{
  "resourceType": "Bundle",
  "identifier": {
    "type": {
      "text": "ClinicalDocument VersionNumber"
    },
    "value": "1"
  },
  "type": "message",
  "entry": [ {
    "fullUrl": "urn:uuid:7AEFFED7-78AF-4940-9EE2-5FAA3920ECFE",
    "resource": {
      "resourceType": "MessageHeader",
      "id": "7AEFFED7-78AF-4940-9EE2-5FAA3920ECFE",
      "event": {
        "system": "https://fhir.nhs.uk/STU3/CodeSystem/EventType-1",
        "code": "referral-1",
        "display": "Referral"
      },
      "destination": [ {
        "endpoint": "urn:nhs-uk:addressing:ods:RSHSO14A:DOSServiceID:2000006423"
      } ],
      "timestamp": "2021-04-06T11:33:35.000+00:00",
      "source": {
        "name": "NHS 111 Adaptor",
        "endpoint": "http://localhost:8080/report"
      },
      "reason": {
        "coding": [ {
          "system": "urn:nhs-itk:ns:201005:interaction",
          "code": "urn:nhs-itk:interaction:primaryEmergencyDepartmentRecipientNHS111CDADocument-v2-0"
        } ]
      }
    },
    "response": {
      "status": "success",
      "lastModified": "2022-05-05T12:27:57.287+00:00"
    }
  }, {
    "fullUrl": "urn:uuid:b4244691-6cfe-4145-9570-d992594d8269",
    "resource": {
      "resourceType": "Encounter",
      "id": "b4244691-6cfe-4145-9570-d992594d8269",
      "identifier": [ {
        "system": "2.16.840.1.113883.2.1.3.2.4.18.34",
        "value": "029EE79C-BBD3-478A-93EE-979CB300212E"
      }, {
        "system": "2.16.840.1.113883.2.1.3.2.4.18.35",
        "value": "59132"
      }, {
        "system": "2.16.840.1.113883.2.1.3.2.4.18.49",
        "value": "029EE79C-BBD3-478A-93EE-979CB300212E"
      } ],
      "status": "finished",
      "type": [ {
        "text": "111 Encounter Referral"
      } ],
      "subject": {
        "reference": "urn:uuid:f889bf46-5efc-45a6-a92a-22f70309d592"
      },
      "participant": [ {
        "type": [ {
          "coding": [ {
            "system": "http://hl7.org/fhir/ValueSet/encounter-participant-type",
            "code": "PPRF",
            "display": "Author"
          } ]
        } ],
        "individual": {
          "reference": "urn:uuid:c95e0b29-bfd2-4a36-9430-24b20f288f21"
        }
      }, {
        "type": [ {
          "coding": [ {
            "system": "http://hl7.org/fhir/ValueSet/encounter-participant-type",
            "code": "ATND",
            "display": "Responsible Party"
          } ]
        } ],
        "individual": {
          "reference": "urn:uuid:80e92d4b-b6d7-4def-8cb5-56a0ee107e35"
        }
      } ],
      "period": {
        "start": "2021-04-06T10:54:11+00:00",
        "end": "2021-04-06T11:33:27+00:00"
      },
      "location": [ {
        "location": {
          "reference": "urn:uuid:933d6b94-885c-4d9b-a76e-58a3509a3378"
        },
        "status": "active"
      }, {
        "location": {
          "reference": "urn:uuid:b2721596-659a-4fdd-b6f5-a779e5c70f71"
        },
        "status": "completed"
      } ],
      "serviceProvider": {
        "reference": "urn:uuid:87e261e6-ff52-4e69-80aa-3bc36d1da29a"
      }
    }
  }, {
    "fullUrl": "urn:uuid:87e261e6-ff52-4e69-80aa-3bc36d1da29a",
    "resource": {
      "resourceType": "Organization",
      "id": "87e261e6-ff52-4e69-80aa-3bc36d1da29a",
      "active": true,
      "type": [ {
        "text": "CST"
      } ],
      "name": "SCAS111"
    }
  }, {
    "fullUrl": "urn:uuid:c95e0b29-bfd2-4a36-9430-24b20f288f21",
    "resource": {
      "resourceType": "Practitioner",
      "id": "c95e0b29-bfd2-4a36-9430-24b20f288f21",
      "active": true,
      "name": [ {
        "use": "official",
        "family": "McDonald",
        "given": [ "Denzle" ]
      } ]
    }
  }, {
    "fullUrl": "urn:uuid:80e92d4b-b6d7-4def-8cb5-56a0ee107e35",
    "resource": {
      "resourceType": "Practitioner",
      "id": "80e92d4b-b6d7-4def-8cb5-56a0ee107e35",
      "active": true,
      "name": [ {
        "use": "official",
        "family": "Black",
        "given": [ "John" ]
      } ]
    }
  }, {
    "fullUrl": "urn:uuid:933d6b94-885c-4d9b-a76e-58a3509a3378",
    "resource": {
      "resourceType": "Location",
      "id": "933d6b94-885c-4d9b-a76e-58a3509a3378",
      "managingOrganization": {
        "reference": "urn:uuid:85350535-1fff-4dc5-8058-9cd669883d5b"
      }
    }
  }, {
    "fullUrl": "urn:uuid:85350535-1fff-4dc5-8058-9cd669883d5b",
    "resource": {
      "resourceType": "Organization",
      "id": "85350535-1fff-4dc5-8058-9cd669883d5b",
      "identifier": [ {
        "value": "J82633"
      } ],
      "type": [ {
        "text": "GP Practice"
      } ],
      "name": "The Riverside Partnership ( Riverside Kelsey)",
      "telecom": [ {
        "system": "phone",
        "value": "tel:01730892412",
        "use": "work"
      } ],
      "address": [ {
        "use": "work",
        "line": [ "Riverside Kelsey Surgery", "75 Station Road", "Liss", "Hampshire" ],
        "postalCode": "GU33 7AD"
      } ]
    }
  }, {
    "fullUrl": "urn:uuid:b2721596-659a-4fdd-b6f5-a779e5c70f71",
    "resource": {
      "resourceType": "Location",
      "id": "b2721596-659a-4fdd-b6f5-a779e5c70f71",
      "name": "Incident Location",
      "address": {
        "type": "physical",
        "line": [ "Hampshire Partnership NHS Trust", "Tatchbury Mount Hospital Horseshoe Drive", "Calmore", "Southampton", "Hampshire" ],
        "postalCode": "SO40 2RZ"
      }
    }
  }, {
    "fullUrl": "urn:uuid:f889bf46-5efc-45a6-a92a-22f70309d592",
    "resource": {
      "resourceType": "Patient",
      "id": "f889bf46-5efc-45a6-a92a-22f70309d592",
      "identifier": [ {
        "extension": [ {
          "url": "https://fhir.hl7.org.uk/STU3/StructureDefinition/Extension-CareConnect-NHSNumberVerificationStatus-1",
          "valueCodeableConcept": {
            "coding": [ {
              "system": "https://fhir.hl7.org.uk/STU3/StructureDefinition/Extension-CareConnect-NHSNumberVerificationStatus-1",
              "code": "01"
            } ]
          }
        } ],
        "system": "https://fhir.nhs.uk/Id/nhs-number",
        "value": "9990004951"
      } ],
      "active": true,
      "name": [ {
        "use": "official",
        "family": "Xxtestpatientdfae",
        "given": [ "Btl-Donotuse" ]
      } ],
      "telecom": [ {
        "system": "phone",
        "value": "tel:07948625625",
        "use": "home"
      }, {
        "system": "phone",
        "value": "tel:07948625625"
      } ],
      "gender": "female",
      "birthDate": "2015-04-01",
      "address": [ {
        "use": "home",
        "line": [ "Hampshire Partnership NHS Trust", "Tatchbury Mount Hospital Horseshoe Drive", "Calmore", "Southampton", "Hampshire" ],
        "postalCode": "SO40 2RZ"
      } ],
      "generalPractitioner": [ {
        "reference": "urn:uuid:5feb259d-756d-48da-967e-ee39b9911a2b"
      } ]
    }
  }, {
    "fullUrl": "urn:uuid:5feb259d-756d-48da-967e-ee39b9911a2b",
    "resource": {
      "resourceType": "Organization",
      "id": "5feb259d-756d-48da-967e-ee39b9911a2b",
      "identifier": [ {
        "value": "J82633"
      } ],
      "type": [ {
        "text": "GP Practice"
      } ],
      "name": "The Riverside Partnership ( Riverside Kelsey)",
      "telecom": [ {
        "system": "phone",
        "value": "tel:01730892412",
        "use": "work"
      } ],
      "address": [ {
        "use": "work",
        "line": [ "Riverside Kelsey Surgery", "75 Station Road", "Liss", "Hampshire" ],
        "postalCode": "GU33 7AD"
      } ]
    }
  }, {
    "fullUrl": "urn:uuid:2d67978f-17d2-4f6b-a414-12359049d21d",
    "resource": {
      "resourceType": "HealthcareService",
      "id": "2d67978f-17d2-4f6b-a414-12359049d21d",
      "active": true,
      "providedBy": {
        "reference": "urn:uuid:9125dc4c-8098-4355-911b-c6f1f0c14279"
      },
      "location": [ {
        "reference": "urn:uuid:5503695f-0ef5-4857-8bf6-a84c89021a08"
      } ],
      "name": "Urgent Treatment Centre (GP led), Royal South Hants Hospital"
    }
  }, {
    "fullUrl": "urn:uuid:5503695f-0ef5-4857-8bf6-a84c89021a08",
    "resource": {
      "resourceType": "Location",
      "id": "5503695f-0ef5-4857-8bf6-a84c89021a08",
      "managingOrganization": {
        "reference": "urn:uuid:9125dc4c-8098-4355-911b-c6f1f0c14279"
      }
    }
  }, {
    "fullUrl": "urn:uuid:9125dc4c-8098-4355-911b-c6f1f0c14279",
    "resource": {
      "resourceType": "Organization",
      "id": "9125dc4c-8098-4355-911b-c6f1f0c14279",
      "identifier": [ {
        "value": "RSHSO14A"
      } ],
      "type": [ {
        "coding": [ {
          "code": "PRCP",
          "display": "Urgent Treatment Centre (GP led), Royal South Hants Hospital"
        } ]
      } ],
      "name": "Urgent Treatment Centre (GP led), Royal South Hants Hospital"
    }
  }, {
    "fullUrl": "urn:uuid:683a4d4f-49a6-4869-b2a1-34f52b988e1c",
    "resource": {
      "resourceType": "ReferralRequest",
      "id": "683a4d4f-49a6-4869-b2a1-34f52b988e1c",
      "status": "active",
      "intent": "plan",
      "priority": "routine",
      "subject": {
        "reference": "urn:uuid:f889bf46-5efc-45a6-a92a-22f70309d592"
      },
      "context": {
        "reference": "urn:uuid:b4244691-6cfe-4145-9570-d992594d8269"
      },
      "occurrencePeriod": {
        "start": "2021-04-06T11:33:35+00:00"
      },
      "authoredOn": "2021-04-06T11:33:27+00:00",
      "requester": {
        "agent": {
          "reference": "urn:uuid:393356ef-5c81-433d-a9bf-a37830324208"
        },
        "onBehalfOf": {
          "reference": "urn:uuid:87e261e6-ff52-4e69-80aa-3bc36d1da29a"
        }
      },
      "recipient": [ {
        "reference": "urn:uuid:2d67978f-17d2-4f6b-a414-12359049d21d"
      } ],
      "reasonReference": [ {
        "reference": "urn:uuid:341f8142-d2f2-4129-a8de-880d14b448fd"
      } ],
      "supportingInfo": [ {
        "reference": "urn:uuid:07878220-525b-4b9c-8d53-258f4a0cc509"
      } ]
    }
  }, {
    "fullUrl": "urn:uuid:07878220-525b-4b9c-8d53-258f4a0cc509",
    "resource": {
      "resourceType": "ProcedureRequest",
      "id": "07878220-525b-4b9c-8d53-258f4a0cc509",
      "status": "active",
      "intent": "plan",
      "priority": "routine",
      "doNotPerform": false,
      "code": {
        "coding": [ {
          "system": "2.16.840.1.113883.2.1.3.2.4.17.325",
          "code": "Dx06",
          "display": "To contact a local service within 6 hours"
        } ]
      },
      "subject": {
        "reference": "urn:uuid:f889bf46-5efc-45a6-a92a-22f70309d592"
      },
      "occurrencePeriod": {
        "start": "2021-04-06T11:33:35+00:00"
      },
      "reasonReference": [ {
        "reference": "urn:uuid:341f8142-d2f2-4129-a8de-880d14b448fd"
      } ]
    }
  }, {
    "fullUrl": "urn:uuid:8f2e0123-dc4c-473a-b675-f249d4aaabd9",
    "resource": {
      "resourceType": "Composition",
      "id": "8f2e0123-dc4c-473a-b675-f249d4aaabd9",
      "identifier": {
        "use": "usual",
        "value": "A8E3FB32-6805-4191-B071-EA540A9318CD"
      },
      "status": "final",
      "type": {
        "coding": [ {
          "system": "http://snomed.info/sct",
          "code": "371531000",
          "display": "Report of clinical encounter (record artifact)"
        } ]
      },
      "subject": {
        "reference": "urn:uuid:f889bf46-5efc-45a6-a92a-22f70309d592"
      },
      "encounter": {
        "reference": "urn:uuid:b4244691-6cfe-4145-9570-d992594d8269"
      },
      "date": "2021-04-06T11:33:35+00:00",
      "author": [ {
        "reference": "urn:uuid:c95e0b29-bfd2-4a36-9430-24b20f288f21"
      } ],
      "title": "111 Report",
      "confidentiality": "N",
      "section": [ {
        "section": [ {
          "title": "Patient's Reported Condition",
          "text": {
            "status": "generated",
            "div": "<div xmlns=\"http://www.w3.org/1999/xhtml\">&lt;content&gt;Pharmacy ITK Testing&lt;/content&gt;\n                                                    &lt;br/&gt;</div>"
          }
        }, {
          "title": "Pathways Disposition",
          "text": {
            "status": "generated",
            "div": "<div xmlns=\"http://www.w3.org/1999/xhtml\">To contact a local service within 6 hours (Dx06)                                         &lt;br/&gt;\n                                                    &lt;br/&gt;                                         Selected service: Urgent Treatment Centre (GP led), Royal South Hant&lt;br/&gt;</div>"
          }
        }, {
          "title": "Consultation Summary",
          "text": {
            "status": "generated",
            "div": "<div xmlns=\"http://www.w3.org/1999/xhtml\">Illness&lt;br/&gt;Warm to touch&lt;br/&gt;Nausea without vomiting&lt;br/&gt;Abdominal pain also present&lt;br/&gt;Moderately severe pain&lt;br/&gt;Flank pain&lt;br/&gt;Fever at time of assessment or in last 12 hours&lt;br/&gt;</div>"
          }
        }, {
          "title": "Pathways Assessment",
          "text": {
            "status": "generated",
            "div": "<div xmlns=\"http://www.w3.org/1999/xhtml\">An injury or health problem was the reason for the contact.&lt;br/&gt;Heavy bleeding had not occurred in the previous 30 minutes.&lt;br/&gt;An illness or health problem was the main problem.&lt;br/&gt;User Comments: Pharmacy ITK Testing&lt;br/&gt;The individual was not fighting for breath.&lt;br/&gt;The main reason for the contact was not an allergic reaction, chest/upper back pain, recent fit/seizure, suicide attempt, new confusion or suspected stroke.&lt;br/&gt;The main reason for contact was not declared diabetic hypo/hyperglycaemia or ICD shock.&lt;br/&gt;The skin on the torso felt normal, warm or hot.&lt;br/&gt;Pathway selected - Vomiting and/or Nausea&lt;br/&gt;The individual had not vomited.&lt;br/&gt;The individual did not also have diarrhoea.&lt;br/&gt;The symptoms did not follow drinking alcohol.&lt;br/&gt;Abdominal pain was also present.&lt;br/&gt;The pain interfered with normal activity.&lt;br/&gt;The individual was able to carry out most or all normal activities.&lt;br/&gt;The individual had not ingested a harmful or toxic substance.&lt;br/&gt;There had been no black and tarry or red/maroon bowel motions.&lt;br/&gt;There was no new or worsening confusion.&lt;br/&gt;Breathing harder or faster when doing nothing was not described.&lt;br/&gt;There was no new shoulder tip pain or pain in the lower right abdomen.&lt;br/&gt;The individual had not been in constant pain for 4 hours or more.&lt;br/&gt;There was no previous history of diabetes.&lt;br/&gt;There was flank pain.&lt;br/&gt;There was a fever at the time of assessment or within the previous 12 hours.&lt;br/&gt;There was no new, widespread, red rash.&lt;br/&gt;Instructions given were: The individual needs to contact a local service within 6 hours.&lt;br/&gt;Directory of Services referral: Urgent Treatment Centre (GP led), Royal South Hants Hospital&lt;br/&gt;</div>"
          }
        }, {
          "title": "Advice Given",
          "text": {
            "status": "generated",
            "div": "<div xmlns=\"http://www.w3.org/1999/xhtml\">I will arrange for a clinician to contact the individual. I need to ask some further questions in order to determine the best way to do this.&lt;br/&gt;If there are any new symptoms, or if the condition gets worse, changes or you have any other concerns, call us back.&lt;br/&gt;\n                                                    &lt;br/&gt;</div>"
          }
        }, {
          "title": "Information And Advice Given"
        }, {
          "title": "Disposition",
          "text": {
            "status": "generated",
            "div": "<div xmlns=\"http://www.w3.org/1999/xhtml\">&lt;content&gt;To contact a local service within 6 hours&lt;br/&gt;\n                                                    &lt;/content&gt;\n                                                    &lt;br/&gt;\n                                                    &lt;br/&gt;</div>"
          }
        } ]
      }, {
        "title": "CarePlan",
        "entry": [ {
          "reference": "urn:uuid:e32e2eb7-de5e-48d6-a3dc-7b3025a28fba"
        } ]
      }, {
        "title": "ReferralRequest",
        "entry": [ {
          "reference": "urn:uuid:683a4d4f-49a6-4869-b2a1-34f52b988e1c"
        } ]
      }, {
        "title": "QuestionnaireResponse",
        "entry": [ {
          "reference": "urn:uuid:c881db8c-a074-470e-b121-4fbce602349b"
        } ]
      }, {
        "title": "QuestionnaireResponse",
        "entry": [ {
          "reference": "urn:uuid:7f080088-92fa-45e9-8993-43392e07d2ef"
        } ]
      }, {
        "title": "QuestionnaireResponse",
        "entry": [ {
          "reference": "urn:uuid:036714be-592f-4460-9865-7deccb9dd5cc"
        } ]
      }, {
        "title": "QuestionnaireResponse",
        "entry": [ {
          "reference": "urn:uuid:1536b2b4-7ce0-4cfb-bd88-a6ce7581e06f"
        } ]
      }, {
        "title": "QuestionnaireResponse",
        "entry": [ {
          "reference": "urn:uuid:5cebf2b9-8810-422e-93b8-153524b10a65"
        } ]
      }, {
        "title": "QuestionnaireResponse",
        "entry": [ {
          "reference": "urn:uuid:3b880029-10bf-4e6c-8557-f819558fcadb"
        } ]
      }, {
        "title": "QuestionnaireResponse",
        "entry": [ {
          "reference": "urn:uuid:4bb0983b-f927-4d53-930e-b6b468155380"
        } ]
      }, {
        "title": "QuestionnaireResponse",
        "entry": [ {
          "reference": "urn:uuid:759a7e78-5ce0-4f09-b3ec-1f49d289398f"
        } ]
      }, {
        "title": "QuestionnaireResponse",
        "entry": [ {
          "reference": "urn:uuid:1020664f-e320-4b3e-95c5-bda2c39fecf3"
        } ]
      }, {
        "title": "QuestionnaireResponse",
        "entry": [ {
          "reference": "urn:uuid:0923c307-101c-4d19-bbd5-c8fb0d119366"
        } ]
      }, {
        "title": "QuestionnaireResponse",
        "entry": [ {
          "reference": "urn:uuid:7720d584-aa34-4c1b-896f-b3c337ce9472"
        } ]
      }, {
        "title": "QuestionnaireResponse",
        "entry": [ {
          "reference": "urn:uuid:aa68b285-246e-4f19-bd12-f3b7999fcb6f"
        } ]
      }, {
        "title": "QuestionnaireResponse",
        "entry": [ {
          "reference": "urn:uuid:93bafbf3-9678-46f7-9be0-4b20d542c6fe"
        } ]
      }, {
        "title": "QuestionnaireResponse",
        "entry": [ {
          "reference": "urn:uuid:4e551586-e2c9-4e9e-bd9e-b9a55364c0bc"
        } ]
      }, {
        "title": "QuestionnaireResponse",
        "entry": [ {
          "reference": "urn:uuid:c878fc57-3b53-4d1d-a811-d2b9c853b3c8"
        } ]
      }, {
        "title": "QuestionnaireResponse",
        "entry": [ {
          "reference": "urn:uuid:3b9bf26d-b403-42b8-bdc6-bc7e170f96fb"
        } ]
      }, {
        "title": "QuestionnaireResponse",
        "entry": [ {
          "reference": "urn:uuid:3f9e2eda-4ae8-4638-94f4-6f5de43c64a5"
        } ]
      }, {
        "title": "QuestionnaireResponse",
        "entry": [ {
          "reference": "urn:uuid:9a8e2334-357d-4a1f-ae49-d64cf81c6194"
        } ]
      }, {
        "title": "QuestionnaireResponse",
        "entry": [ {
          "reference": "urn:uuid:7cba9cbb-6ce1-4c09-b373-258963912f6e"
        } ]
      }, {
        "title": "QuestionnaireResponse",
        "entry": [ {
          "reference": "urn:uuid:62c3ee1e-98b0-4b0b-9c1c-ef9dc9b77a36"
        } ]
      }, {
        "title": "QuestionnaireResponse",
        "entry": [ {
          "reference": "urn:uuid:77526291-f629-421a-ba26-e5a3a01873cb"
        } ]
      }, {
        "title": "QuestionnaireResponse",
        "entry": [ {
          "reference": "urn:uuid:171875ea-07f3-42d1-99f1-b682d91515ca"
        } ]
      }, {
        "title": "QuestionnaireResponse",
        "entry": [ {
          "reference": "urn:uuid:1ea0bdb8-016f-41ff-97d9-7d51eb27dffb"
        } ]
      }, {
        "title": "QuestionnaireResponse",
        "entry": [ {
          "reference": "urn:uuid:00df2388-f01e-4cb3-8802-f28eb0b54cc0"
        } ]
      }, {
        "title": "QuestionnaireResponse",
        "entry": [ {
          "reference": "urn:uuid:680fa994-170b-44a0-8faf-95ba610a72a4"
        } ]
      }, {
        "title": "QuestionnaireResponse",
        "entry": [ {
          "reference": "urn:uuid:eb0f936b-252f-4c76-aa3a-089535c37ad6"
        } ]
      }, {
        "title": "QuestionnaireResponse",
        "entry": [ {
          "reference": "urn:uuid:cabfb3fc-a3dd-4fdc-b3f3-3a09d0645d59"
        } ]
      }, {
        "title": "QuestionnaireResponse",
        "entry": [ {
          "reference": "urn:uuid:6ed5a14a-f432-4140-bd47-30e31155a0c1"
        } ]
      }, {
        "title": "QuestionnaireResponse",
        "entry": [ {
          "reference": "urn:uuid:7d97a30c-fa9d-4f5e-b126-e0c1c5f0395e"
        } ]
      }, {
        "title": "QuestionnaireResponse",
        "entry": [ {
          "reference": "urn:uuid:ac42ce74-5745-4596-8153-1fdeb5f36b8b"
        } ]
      }, {
        "title": "QuestionnaireResponse",
        "entry": [ {
          "reference": "urn:uuid:e184b5f0-100d-4d37-ada8-8442df0e8055"
        } ]
      }, {
        "title": "QuestionnaireResponse",
        "entry": [ {
          "reference": "urn:uuid:52a90dbd-e104-458e-b4fd-0d8b9ebff389"
        } ]
      }, {
        "title": "QuestionnaireResponse",
        "entry": [ {
          "reference": "urn:uuid:f51bd7c0-bfb8-4f45-a47c-94eef25e0e3a"
        } ]
      }, {
        "title": "QuestionnaireResponse",
        "entry": [ {
          "reference": "urn:uuid:4733c96c-5d3d-4654-a0d0-fb606182b850"
        } ]
      }, {
        "title": "QuestionnaireResponse",
        "entry": [ {
          "reference": "urn:uuid:3a9d68b9-4985-48c8-866b-118601625ceb"
        } ]
      }, {
        "title": "QuestionnaireResponse",
        "entry": [ {
          "reference": "urn:uuid:ed1c9ac9-0b1c-4158-803b-ab367dc6bc2a"
        } ]
      }, {
        "title": "QuestionnaireResponse",
        "entry": [ {
          "reference": "urn:uuid:78db7ccf-e6d5-4698-af8e-cc72c249418b"
        } ]
      }, {
        "title": "QuestionnaireResponse",
        "entry": [ {
          "reference": "urn:uuid:1a2ea4ce-cff6-4bd1-b948-a39416c6568b"
        } ]
      }, {
        "title": "QuestionnaireResponse",
        "entry": [ {
          "reference": "urn:uuid:e35f3eb6-450a-451a-b857-b59897ac3d5b"
        } ]
      }, {
        "title": "QuestionnaireResponse",
        "entry": [ {
          "reference": "urn:uuid:7665da7b-4bdf-4097-a57c-8bab684e19f0"
        } ]
      }, {
        "title": "QuestionnaireResponse",
        "entry": [ {
          "reference": "urn:uuid:e9584de4-3ca2-4143-89ec-2ad7eb017fce"
        } ]
      }, {
        "title": "QuestionnaireResponse",
        "entry": [ {
          "reference": "urn:uuid:8f0986fc-f241-4b1e-92dc-821fc5367a7c"
        } ]
      }, {
        "title": "QuestionnaireResponse",
        "entry": [ {
          "reference": "urn:uuid:7decd45c-5b0c-4dc9-a99d-7fcccaf1f00c"
        } ]
      }, {
        "title": "QuestionnaireResponse",
        "entry": [ {
          "reference": "urn:uuid:b354d5ee-21c0-480d-9a04-ac21905207cd"
        } ]
      }, {
        "title": "QuestionnaireResponse",
        "entry": [ {
          "reference": "urn:uuid:adb59401-17f6-49ed-9aa8-a7849b25ee9e"
        } ]
      }, {
        "title": "QuestionnaireResponse",
        "entry": [ {
          "reference": "urn:uuid:1336fe86-8d61-4ebe-aede-666db1bad89d"
        } ]
      }, {
        "title": "QuestionnaireResponse",
        "entry": [ {
          "reference": "urn:uuid:cb5628ab-8ad4-4e87-96c2-1cc73482568a"
        } ]
      }, {
        "title": "QuestionnaireResponse",
        "entry": [ {
          "reference": "urn:uuid:50102bae-ea82-478e-899f-6a17e2493f08"
        } ]
      }, {
        "title": "QuestionnaireResponse",
        "entry": [ {
          "reference": "urn:uuid:0aca7016-a409-4b08-8a23-295336c048e5"
        } ]
      }, {
        "title": "QuestionnaireResponse",
        "entry": [ {
          "reference": "urn:uuid:7ef3fae2-499e-481b-bff3-19d670836856"
        } ]
      }, {
        "title": "QuestionnaireResponse",
        "entry": [ {
          "reference": "urn:uuid:9262fa45-2064-40ee-8d8d-cf6e39210f70"
        } ]
      }, {
        "title": "QuestionnaireResponse",
        "entry": [ {
          "reference": "urn:uuid:e8b13f26-2e34-4101-8116-bb2091b4426c"
        } ]
      }, {
        "title": "QuestionnaireResponse",
        "entry": [ {
          "reference": "urn:uuid:52ca5a3e-a780-4660-81b5-51b21fece5aa"
        } ]
      }, {
        "title": "QuestionnaireResponse",
        "entry": [ {
          "reference": "urn:uuid:241b611b-0601-4180-b5df-ea10e5a2ac86"
        } ]
      }, {
        "title": "QuestionnaireResponse",
        "entry": [ {
          "reference": "urn:uuid:b1b8ae12-81fe-4c8c-be73-a84226145eb5"
        } ]
      }, {
        "title": "QuestionnaireResponse",
        "entry": [ {
          "reference": "urn:uuid:843eada4-de7b-4894-94b1-6831c89e5da2"
        } ]
      }, {
        "title": "QuestionnaireResponse",
        "entry": [ {
          "reference": "urn:uuid:3d43a84f-8d6d-476f-9533-fc5e7b5961f9"
        } ]
      }, {
        "title": "QuestionnaireResponse",
        "entry": [ {
          "reference": "urn:uuid:01c1e972-9147-4de0-aa18-b7a7c29543c2"
        } ]
      }, {
        "title": "QuestionnaireResponse",
        "entry": [ {
          "reference": "urn:uuid:fd362ab8-6b91-4af2-b828-2572d93ab20f"
        } ]
      }, {
        "title": "QuestionnaireResponse",
        "entry": [ {
          "reference": "urn:uuid:fd12be06-9e6e-4c47-a61a-3d85ed8d4515"
        } ]
      }, {
        "title": "QuestionnaireResponse",
        "entry": [ {
          "reference": "urn:uuid:03d179ac-280d-4513-8d45-9813fb75081a"
        } ]
      }, {
        "title": "QuestionnaireResponse",
        "entry": [ {
          "reference": "urn:uuid:5239d1b4-8c78-430f-b837-3721d39b30a8"
        } ]
      }, {
        "title": "QuestionnaireResponse",
        "entry": [ {
          "reference": "urn:uuid:9cdef870-a817-4645-b241-078c44d1f081"
        } ]
      }, {
        "title": "QuestionnaireResponse",
        "entry": [ {
          "reference": "urn:uuid:90db8594-6159-475b-a988-79a4c12760ba"
        } ]
      }, {
        "title": "QuestionnaireResponse",
        "entry": [ {
          "reference": "urn:uuid:b46fff30-41bd-450c-b148-4a1877e3fc53"
        } ]
      }, {
        "title": "QuestionnaireResponse",
        "entry": [ {
          "reference": "urn:uuid:a5c843dc-b1f6-4759-9722-651ae2d1c485"
        } ]
      }, {
        "title": "QuestionnaireResponse",
        "entry": [ {
          "reference": "urn:uuid:3cd0df48-8c99-430e-86db-ae9d87abd146"
        } ]
      }, {
        "title": "QuestionnaireResponse",
        "entry": [ {
          "reference": "urn:uuid:b453c0fa-f0a1-4525-b7f0-94306e5dfb50"
        } ]
      }, {
        "title": "QuestionnaireResponse",
        "entry": [ {
          "reference": "urn:uuid:537f1133-5205-4152-9d50-bdf49cc0e620"
        } ]
      }, {
        "title": "QuestionnaireResponse",
        "entry": [ {
          "reference": "urn:uuid:e8e5f119-5c7d-415c-8976-66218135142e"
        } ]
      }, {
        "title": "QuestionnaireResponse",
        "entry": [ {
          "reference": "urn:uuid:186e00e2-b799-462e-aea8-a21e731e602f"
        } ]
      }, {
        "title": "QuestionnaireResponse",
        "entry": [ {
          "reference": "urn:uuid:0b9ae822-541d-4c94-b936-4316be0269f4"
        } ]
      }, {
        "title": "QuestionnaireResponse",
        "entry": [ {
          "reference": "urn:uuid:1487179e-ced2-40f4-803c-6a2387588241"
        } ]
      } ]
    }
  }, {
    "fullUrl": "urn:uuid:e32e2eb7-de5e-48d6-a3dc-7b3025a28fba",
    "resource": {
      "resourceType": "CarePlan",
      "id": "e32e2eb7-de5e-48d6-a3dc-7b3025a28fba",
      "status": "completed",
      "intent": "plan",
      "title": "Information And Advice Given",
      "subject": {
        "reference": "urn:uuid:f889bf46-5efc-45a6-a92a-22f70309d592"
      },
      "context": {
        "reference": "urn:uuid:b4244691-6cfe-4145-9570-d992594d8269"
      },
      "period": {
        "start": "2021-04-06T10:54:11+00:00",
        "end": "2021-04-06T11:33:27+00:00"
      },
      "author": [ {
        "reference": "urn:uuid:85350535-1fff-4dc5-8058-9cd669883d5b"
      } ],
      "addresses": [ {
        "reference": "urn:uuid:341f8142-d2f2-4129-a8de-880d14b448fd"
      } ]
    }
  }, {
    "fullUrl": "urn:uuid:b7968135-f132-48b3-8d0d-d5d0ac2f95e4",
    "resource": {
      "resourceType": "Consent",
      "id": "b7968135-f132-48b3-8d0d-d5d0ac2f95e4",
      "identifier": {
        "use": "usual",
        "value": "A8E3FB32-6805-4191-B071-EA540A9318CD"
      },
      "status": "active",
      "patient": {
        "reference": "urn:uuid:f889bf46-5efc-45a6-a92a-22f70309d592"
      },
      "period": {
        "start": "2021-04-06T10:54:11+00:00",
        "end": "2021-04-06T11:33:27+00:00"
      },
      "consentingParty": [ {
        "reference": "urn:uuid:f889bf46-5efc-45a6-a92a-22f70309d592"
      } ],
      "action": [ {
        "coding": [ {
          "system": "http://snomed.info/sct",
          "code": "425691002",
          "display": "Consent given for electronic record sharing"
        } ],
        "text": "Consent given for electronic record sharing"
      } ],
      "organization": [ {
        "reference": "urn:uuid:87e261e6-ff52-4e69-80aa-3bc36d1da29a"
      } ],
      "policyRule": "http://hl7.org/fhir/ConsentPolicy/opt-out",
      "data": [ {
        "meaning": "related",
        "reference": {
          "reference": "urn:uuid:b4244691-6cfe-4145-9570-d992594d8269"
        }
      } ]
    }
  }, {
    "fullUrl": "urn:uuid:341f8142-d2f2-4129-a8de-880d14b448fd",
    "resource": {
      "resourceType": "Condition",
      "id": "341f8142-d2f2-4129-a8de-880d14b448fd",
      "clinicalStatus": "active",
      "verificationStatus": "unknown",
      "subject": {
        "reference": "urn:uuid:f889bf46-5efc-45a6-a92a-22f70309d592"
      },
      "context": {
        "reference": "urn:uuid:b4244691-6cfe-4145-9570-d992594d8269"
      },
      "evidence": [ {
        "detail": [ {
          "reference": "urn:uuid:c881db8c-a074-470e-b121-4fbce602349b"
        } ]
      }, {
        "detail": [ {
          "reference": "urn:uuid:7f080088-92fa-45e9-8993-43392e07d2ef"
        } ]
      }, {
        "detail": [ {
          "reference": "urn:uuid:036714be-592f-4460-9865-7deccb9dd5cc"
        } ]
      }, {
        "detail": [ {
          "reference": "urn:uuid:1536b2b4-7ce0-4cfb-bd88-a6ce7581e06f"
        } ]
      }, {
        "detail": [ {
          "reference": "urn:uuid:5cebf2b9-8810-422e-93b8-153524b10a65"
        } ]
      }, {
        "detail": [ {
          "reference": "urn:uuid:3b880029-10bf-4e6c-8557-f819558fcadb"
        } ]
      }, {
        "detail": [ {
          "reference": "urn:uuid:4bb0983b-f927-4d53-930e-b6b468155380"
        } ]
      }, {
        "detail": [ {
          "reference": "urn:uuid:759a7e78-5ce0-4f09-b3ec-1f49d289398f"
        } ]
      }, {
        "detail": [ {
          "reference": "urn:uuid:1020664f-e320-4b3e-95c5-bda2c39fecf3"
        } ]
      }, {
        "detail": [ {
          "reference": "urn:uuid:0923c307-101c-4d19-bbd5-c8fb0d119366"
        } ]
      }, {
        "detail": [ {
          "reference": "urn:uuid:7720d584-aa34-4c1b-896f-b3c337ce9472"
        } ]
      }, {
        "detail": [ {
          "reference": "urn:uuid:aa68b285-246e-4f19-bd12-f3b7999fcb6f"
        } ]
      }, {
        "detail": [ {
          "reference": "urn:uuid:93bafbf3-9678-46f7-9be0-4b20d542c6fe"
        } ]
      }, {
        "detail": [ {
          "reference": "urn:uuid:4e551586-e2c9-4e9e-bd9e-b9a55364c0bc"
        } ]
      }, {
        "detail": [ {
          "reference": "urn:uuid:c878fc57-3b53-4d1d-a811-d2b9c853b3c8"
        } ]
      }, {
        "detail": [ {
          "reference": "urn:uuid:3b9bf26d-b403-42b8-bdc6-bc7e170f96fb"
        } ]
      }, {
        "detail": [ {
          "reference": "urn:uuid:3f9e2eda-4ae8-4638-94f4-6f5de43c64a5"
        } ]
      }, {
        "detail": [ {
          "reference": "urn:uuid:9a8e2334-357d-4a1f-ae49-d64cf81c6194"
        } ]
      }, {
        "detail": [ {
          "reference": "urn:uuid:7cba9cbb-6ce1-4c09-b373-258963912f6e"
        } ]
      }, {
        "detail": [ {
          "reference": "urn:uuid:62c3ee1e-98b0-4b0b-9c1c-ef9dc9b77a36"
        } ]
      }, {
        "detail": [ {
          "reference": "urn:uuid:77526291-f629-421a-ba26-e5a3a01873cb"
        } ]
      }, {
        "detail": [ {
          "reference": "urn:uuid:171875ea-07f3-42d1-99f1-b682d91515ca"
        } ]
      }, {
        "detail": [ {
          "reference": "urn:uuid:1ea0bdb8-016f-41ff-97d9-7d51eb27dffb"
        } ]
      }, {
        "detail": [ {
          "reference": "urn:uuid:00df2388-f01e-4cb3-8802-f28eb0b54cc0"
        } ]
      }, {
        "detail": [ {
          "reference": "urn:uuid:680fa994-170b-44a0-8faf-95ba610a72a4"
        } ]
      }, {
        "detail": [ {
          "reference": "urn:uuid:eb0f936b-252f-4c76-aa3a-089535c37ad6"
        } ]
      }, {
        "detail": [ {
          "reference": "urn:uuid:cabfb3fc-a3dd-4fdc-b3f3-3a09d0645d59"
        } ]
      }, {
        "detail": [ {
          "reference": "urn:uuid:6ed5a14a-f432-4140-bd47-30e31155a0c1"
        } ]
      }, {
        "detail": [ {
          "reference": "urn:uuid:7d97a30c-fa9d-4f5e-b126-e0c1c5f0395e"
        } ]
      }, {
        "detail": [ {
          "reference": "urn:uuid:ac42ce74-5745-4596-8153-1fdeb5f36b8b"
        } ]
      }, {
        "detail": [ {
          "reference": "urn:uuid:e184b5f0-100d-4d37-ada8-8442df0e8055"
        } ]
      }, {
        "detail": [ {
          "reference": "urn:uuid:52a90dbd-e104-458e-b4fd-0d8b9ebff389"
        } ]
      }, {
        "detail": [ {
          "reference": "urn:uuid:f51bd7c0-bfb8-4f45-a47c-94eef25e0e3a"
        } ]
      }, {
        "detail": [ {
          "reference": "urn:uuid:4733c96c-5d3d-4654-a0d0-fb606182b850"
        } ]
      }, {
        "detail": [ {
          "reference": "urn:uuid:3a9d68b9-4985-48c8-866b-118601625ceb"
        } ]
      }, {
        "detail": [ {
          "reference": "urn:uuid:ed1c9ac9-0b1c-4158-803b-ab367dc6bc2a"
        } ]
      }, {
        "detail": [ {
          "reference": "urn:uuid:78db7ccf-e6d5-4698-af8e-cc72c249418b"
        } ]
      }, {
        "detail": [ {
          "reference": "urn:uuid:1a2ea4ce-cff6-4bd1-b948-a39416c6568b"
        } ]
      }, {
        "detail": [ {
          "reference": "urn:uuid:e35f3eb6-450a-451a-b857-b59897ac3d5b"
        } ]
      }, {
        "detail": [ {
          "reference": "urn:uuid:7665da7b-4bdf-4097-a57c-8bab684e19f0"
        } ]
      }, {
        "detail": [ {
          "reference": "urn:uuid:e9584de4-3ca2-4143-89ec-2ad7eb017fce"
        } ]
      }, {
        "detail": [ {
          "reference": "urn:uuid:8f0986fc-f241-4b1e-92dc-821fc5367a7c"
        } ]
      }, {
        "detail": [ {
          "reference": "urn:uuid:7decd45c-5b0c-4dc9-a99d-7fcccaf1f00c"
        } ]
      }, {
        "detail": [ {
          "reference": "urn:uuid:b354d5ee-21c0-480d-9a04-ac21905207cd"
        } ]
      }, {
        "detail": [ {
          "reference": "urn:uuid:adb59401-17f6-49ed-9aa8-a7849b25ee9e"
        } ]
      }, {
        "detail": [ {
          "reference": "urn:uuid:1336fe86-8d61-4ebe-aede-666db1bad89d"
        } ]
      }, {
        "detail": [ {
          "reference": "urn:uuid:cb5628ab-8ad4-4e87-96c2-1cc73482568a"
        } ]
      }, {
        "detail": [ {
          "reference": "urn:uuid:50102bae-ea82-478e-899f-6a17e2493f08"
        } ]
      }, {
        "detail": [ {
          "reference": "urn:uuid:0aca7016-a409-4b08-8a23-295336c048e5"
        } ]
      }, {
        "detail": [ {
          "reference": "urn:uuid:7ef3fae2-499e-481b-bff3-19d670836856"
        } ]
      }, {
        "detail": [ {
          "reference": "urn:uuid:9262fa45-2064-40ee-8d8d-cf6e39210f70"
        } ]
      }, {
        "detail": [ {
          "reference": "urn:uuid:e8b13f26-2e34-4101-8116-bb2091b4426c"
        } ]
      }, {
        "detail": [ {
          "reference": "urn:uuid:52ca5a3e-a780-4660-81b5-51b21fece5aa"
        } ]
      }, {
        "detail": [ {
          "reference": "urn:uuid:241b611b-0601-4180-b5df-ea10e5a2ac86"
        } ]
      }, {
        "detail": [ {
          "reference": "urn:uuid:b1b8ae12-81fe-4c8c-be73-a84226145eb5"
        } ]
      }, {
        "detail": [ {
          "reference": "urn:uuid:843eada4-de7b-4894-94b1-6831c89e5da2"
        } ]
      }, {
        "detail": [ {
          "reference": "urn:uuid:3d43a84f-8d6d-476f-9533-fc5e7b5961f9"
        } ]
      }, {
        "detail": [ {
          "reference": "urn:uuid:01c1e972-9147-4de0-aa18-b7a7c29543c2"
        } ]
      }, {
        "detail": [ {
          "reference": "urn:uuid:fd362ab8-6b91-4af2-b828-2572d93ab20f"
        } ]
      }, {
        "detail": [ {
          "reference": "urn:uuid:fd12be06-9e6e-4c47-a61a-3d85ed8d4515"
        } ]
      }, {
        "detail": [ {
          "reference": "urn:uuid:03d179ac-280d-4513-8d45-9813fb75081a"
        } ]
      }, {
        "detail": [ {
          "reference": "urn:uuid:5239d1b4-8c78-430f-b837-3721d39b30a8"
        } ]
      }, {
        "detail": [ {
          "reference": "urn:uuid:9cdef870-a817-4645-b241-078c44d1f081"
        } ]
      }, {
        "detail": [ {
          "reference": "urn:uuid:90db8594-6159-475b-a988-79a4c12760ba"
        } ]
      }, {
        "detail": [ {
          "reference": "urn:uuid:b46fff30-41bd-450c-b148-4a1877e3fc53"
        } ]
      }, {
        "detail": [ {
          "reference": "urn:uuid:a5c843dc-b1f6-4759-9722-651ae2d1c485"
        } ]
      }, {
        "detail": [ {
          "reference": "urn:uuid:3cd0df48-8c99-430e-86db-ae9d87abd146"
        } ]
      }, {
        "detail": [ {
          "reference": "urn:uuid:b453c0fa-f0a1-4525-b7f0-94306e5dfb50"
        } ]
      }, {
        "detail": [ {
          "reference": "urn:uuid:537f1133-5205-4152-9d50-bdf49cc0e620"
        } ]
      }, {
        "detail": [ {
          "reference": "urn:uuid:e8e5f119-5c7d-415c-8976-66218135142e"
        } ]
      }, {
        "detail": [ {
          "reference": "urn:uuid:186e00e2-b799-462e-aea8-a21e731e602f"
        } ]
      }, {
        "detail": [ {
          "reference": "urn:uuid:0b9ae822-541d-4c94-b936-4316be0269f4"
        } ]
      }, {
        "detail": [ {
          "reference": "urn:uuid:1487179e-ced2-40f4-803c-6a2387588241"
        } ]
      } ]
    }
  }, {
    "fullUrl": "urn:uuid:c881db8c-a074-470e-b121-4fbce602349b",
    "resource": {
      "resourceType": "QuestionnaireResponse",
      "id": "c881db8c-a074-470e-b121-4fbce602349b",
      "identifier": {
        "value": "59132"
      },
      "questionnaire": {
        "reference": "urn:uuid:e5f10d05-9e38-4073-9ab4-ee1c99ec2df0"
      },
      "status": "completed",
      "subject": {
        "reference": "urn:uuid:f889bf46-5efc-45a6-a92a-22f70309d592"
      },
      "context": {
        "reference": "urn:uuid:b4244691-6cfe-4145-9570-d992594d8269"
      },
      "authored": "2021-04-06T11:33:34+00:00",
      "item": [ {
        "linkId": "Tx220074",
        "text": "What is the reason for the contact?",
        "answer": [ {
          "valueString": "an injury or other health problem"
        } ]
      } ]
    }
  }, {
    "fullUrl": "urn:uuid:e5f10d05-9e38-4073-9ab4-ee1c99ec2df0",
    "resource": {
      "resourceType": "Questionnaire",
      "id": "e5f10d05-9e38-4073-9ab4-ee1c99ec2df0",
      "identifier": [ {
        "value": "59132"
      } ],
      "version": "2021-04-06T11:33:34.963Z",
      "status": "active",
      "experimental": false,
      "date": "2021-04-06T11:33:34+00:00",
      "publisher": "User ID: 'MCDONALDD' User name: 'Denzle McDonald' User skill set: 'T3'",
      "lastReviewDate": "2021-04-06",
      "subjectType": [ "Patient" ],
      "item": [ {
        "linkId": "59132",
        "prefix": "5",
        "text": "What is the reason for the contact?",
        "type": "choice",
        "required": true,
        "repeats": false,
        "option": [ {
          "valueString": "an injury or other health problem, Selected: true"
        }, {
          "valueString": "labour or childbirth, Selected: false"
        }, {
          "valueString": "a need to access another healthcare service, Selected: false"
        }, {
          "valueString": "a healthcare professional requesting contact with another clinician, Selected: false"
        }, {
          "valueString": "a report of results or tests, Selected: false"
        }, {
          "valueString": "a possible failure of contraception, Selected: false"
        }, {
          "valueString": "more, Selected: false"
        } ]
      } ]
    }
  }, {
    "fullUrl": "urn:uuid:7f080088-92fa-45e9-8993-43392e07d2ef",
    "resource": {
      "resourceType": "QuestionnaireResponse",
      "id": "7f080088-92fa-45e9-8993-43392e07d2ef",
      "identifier": {
        "value": "59132"
      },
      "questionnaire": {
        "reference": "urn:uuid:30ba725b-4adb-4e93-9552-c0eae9b5a74d"
      },
      "status": "completed",
      "subject": {
        "reference": "urn:uuid:f889bf46-5efc-45a6-a92a-22f70309d592"
      },
      "context": {
        "reference": "urn:uuid:b4244691-6cfe-4145-9570-d992594d8269"
      },
      "authored": "2021-04-06T11:33:34+00:00",
      "item": [ {
        "linkId": "Tx221807",
        "text": "STRING:to'Immediatethreatstolife(SPA/OOHversion)'-'Majorbloodloss'stem",
        "answer": [ {
          "valueString": "\"present\""
        } ]
      } ]
    }
  }, {
    "fullUrl": "urn:uuid:30ba725b-4adb-4e93-9552-c0eae9b5a74d",
    "resource": {
      "resourceType": "Questionnaire",
      "id": "30ba725b-4adb-4e93-9552-c0eae9b5a74d",
      "identifier": [ {
        "value": "59132"
      } ],
      "version": "2021-04-06T11:33:34.963Z",
      "status": "active",
      "experimental": false,
      "date": "2021-04-06T11:33:34+00:00",
      "publisher": "User ID: 'MCDONALDD' User name: 'Denzle McDonald' User skill set: 'T3'",
      "lastReviewDate": "2021-04-06",
      "subjectType": [ "Patient" ],
      "item": [ {
        "linkId": "59132",
        "prefix": "400",
        "text": "STRING:to'Immediatethreatstolife(SPA/OOHversion)'-'Majorbloodloss'stem",
        "type": "choice",
        "required": true,
        "repeats": false,
        "option": [ {
          "valueString": "\"present\", Selected: true"
        } ]
      } ]
    }
  }, {
    "fullUrl": "urn:uuid:036714be-592f-4460-9865-7deccb9dd5cc",
    "resource": {
      "resourceType": "QuestionnaireResponse",
      "id": "036714be-592f-4460-9865-7deccb9dd5cc",
      "identifier": {
        "value": "59132"
      },
      "questionnaire": {
        "reference": "urn:uuid:f2e91c13-8c3b-41b0-9628-386f0966ab9a"
      },
      "status": "completed",
      "subject": {
        "reference": "urn:uuid:f889bf46-5efc-45a6-a92a-22f70309d592"
      },
      "context": {
        "reference": "urn:uuid:b4244691-6cfe-4145-9570-d992594d8269"
      },
      "authored": "2021-04-06T11:33:34+00:00"
    }
  }, {
    "fullUrl": "urn:uuid:f2e91c13-8c3b-41b0-9628-386f0966ab9a",
    "resource": {
      "resourceType": "Questionnaire",
      "id": "f2e91c13-8c3b-41b0-9628-386f0966ab9a",
      "identifier": [ {
        "value": "59132"
      } ],
      "version": "2021-04-06T11:33:34.963Z",
      "status": "active",
      "experimental": false,
      "date": "2021-04-06T11:33:34+00:00",
      "publisher": "User ID: 'MCDONALDD' User name: 'Denzle McDonald' User skill set: 'T3'",
      "lastReviewDate": "2021-04-06",
      "subjectType": [ "Patient" ]
    }
  }, {
    "fullUrl": "urn:uuid:1536b2b4-7ce0-4cfb-bd88-a6ce7581e06f",
    "resource": {
      "resourceType": "QuestionnaireResponse",
      "id": "1536b2b4-7ce0-4cfb-bd88-a6ce7581e06f",
      "identifier": {
        "value": "59132"
      },
      "questionnaire": {
        "reference": "urn:uuid:fbb66739-04fe-4d33-8027-cd3460be333a"
      },
      "status": "completed",
      "subject": {
        "reference": "urn:uuid:f889bf46-5efc-45a6-a92a-22f70309d592"
      },
      "context": {
        "reference": "urn:uuid:b4244691-6cfe-4145-9570-d992594d8269"
      },
      "authored": "2021-04-06T11:33:34+00:00",
      "item": [ {
        "linkId": "Tx221799",
        "text": "STRING:injury,illnessorlabourestablishedinEntryFlow",
        "answer": [ {
          "valueString": "\"present\""
        } ]
      } ]
    }
  }, {
    "fullUrl": "urn:uuid:fbb66739-04fe-4d33-8027-cd3460be333a",
    "resource": {
      "resourceType": "Questionnaire",
      "id": "fbb66739-04fe-4d33-8027-cd3460be333a",
      "identifier": [ {
        "value": "59132"
      } ],
      "version": "2021-04-06T11:33:34.963Z",
      "status": "active",
      "experimental": false,
      "date": "2021-04-06T11:33:34+00:00",
      "publisher": "User ID: 'MCDONALDD' User name: 'Denzle McDonald' User skill set: 'T3'",
      "lastReviewDate": "2021-04-06",
      "subjectType": [ "Patient" ],
      "item": [ {
        "linkId": "59132",
        "prefix": "0",
        "text": "STRING:injury,illnessorlabourestablishedinEntryFlow",
        "type": "choice",
        "required": true,
        "repeats": false,
        "option": [ {
          "valueString": "\"present\", Selected: true"
        } ]
      } ]
    }
  }, {
    "fullUrl": "urn:uuid:5cebf2b9-8810-422e-93b8-153524b10a65",
    "resource": {
      "resourceType": "QuestionnaireResponse",
      "id": "5cebf2b9-8810-422e-93b8-153524b10a65",
      "identifier": {
        "value": "59132"
      },
      "questionnaire": {
        "reference": "urn:uuid:60fc236c-196e-49a7-a5eb-57a4bbf7cba6"
      },
      "status": "completed",
      "subject": {
        "reference": "urn:uuid:f889bf46-5efc-45a6-a92a-22f70309d592"
      },
      "context": {
        "reference": "urn:uuid:b4244691-6cfe-4145-9570-d992594d8269"
      },
      "authored": "2021-04-06T11:33:34+00:00",
      "item": [ {
        "linkId": "Tx221421",
        "text": "Have you been bleeding RED BLOOD very heavily IN THE LAST 30 MINUTES?",
        "answer": [ {
          "valueString": "no"
        } ]
      } ]
    }
  }, {
    "fullUrl": "urn:uuid:60fc236c-196e-49a7-a5eb-57a4bbf7cba6",
    "resource": {
      "resourceType": "Questionnaire",
      "id": "60fc236c-196e-49a7-a5eb-57a4bbf7cba6",
      "identifier": [ {
        "value": "59132"
      } ],
      "version": "2021-04-06T11:33:34.963Z",
      "status": "active",
      "experimental": false,
      "date": "2021-04-06T11:33:34+00:00",
      "publisher": "User ID: 'MCDONALDD' User name: 'Denzle McDonald' User skill set: 'T3'",
      "lastReviewDate": "2021-04-06",
      "subjectType": [ "Patient" ],
      "item": [ {
        "linkId": "59132",
        "prefix": "200",
        "text": "Have you been bleeding RED BLOOD very heavily IN THE LAST 30 MINUTES?",
        "type": "choice",
        "required": true,
        "repeats": false,
        "option": [ {
          "valueString": "yes, Selected: false"
        }, {
          "valueString": "not sure, Selected: false"
        }, {
          "valueString": "no, Selected: true"
        } ]
      } ]
    }
  }, {
    "fullUrl": "urn:uuid:3b880029-10bf-4e6c-8557-f819558fcadb",
    "resource": {
      "resourceType": "QuestionnaireResponse",
      "id": "3b880029-10bf-4e6c-8557-f819558fcadb",
      "identifier": {
        "value": "59132"
      },
      "questionnaire": {
        "reference": "urn:uuid:1270985c-bdde-48fb-a1ca-f1469861647e"
      },
      "status": "completed",
      "subject": {
        "reference": "urn:uuid:f889bf46-5efc-45a6-a92a-22f70309d592"
      },
      "context": {
        "reference": "urn:uuid:b4244691-6cfe-4145-9570-d992594d8269"
      },
      "authored": "2021-04-06T11:33:34+00:00",
      "item": [ {
        "linkId": "Tx221343",
        "text": "SocialConcernsExcluded",
        "answer": [ {
          "valueString": "*"
        } ]
      } ]
    }
  }, {
    "fullUrl": "urn:uuid:1270985c-bdde-48fb-a1ca-f1469861647e",
    "resource": {
      "resourceType": "Questionnaire",
      "id": "1270985c-bdde-48fb-a1ca-f1469861647e",
      "identifier": [ {
        "value": "59132"
      } ],
      "version": "2021-04-06T11:33:34.963Z",
      "status": "active",
      "experimental": false,
      "date": "2021-04-06T11:33:34+00:00",
      "publisher": "User ID: 'MCDONALDD' User name: 'Denzle McDonald' User skill set: 'T3'",
      "lastReviewDate": "2021-04-06",
      "subjectType": [ "Patient" ],
      "item": [ {
        "linkId": "59132",
        "prefix": "2600",
        "text": "SocialConcernsExcluded",
        "type": "choice",
        "required": true,
        "repeats": false,
        "option": [ {
          "valueString": "==\"present\", Selected: false"
        }, {
          "valueString": "*, Selected: true"
        } ]
      } ]
    }
  }, {
    "fullUrl": "urn:uuid:4bb0983b-f927-4d53-930e-b6b468155380",
    "resource": {
      "resourceType": "QuestionnaireResponse",
      "id": "4bb0983b-f927-4d53-930e-b6b468155380",
      "identifier": {
        "value": "59132"
      },
      "questionnaire": {
        "reference": "urn:uuid:24d7e6f1-aa20-48a5-add2-5d44c79f16ab"
      },
      "status": "completed",
      "subject": {
        "reference": "urn:uuid:f889bf46-5efc-45a6-a92a-22f70309d592"
      },
      "context": {
        "reference": "urn:uuid:b4244691-6cfe-4145-9570-d992594d8269"
      },
      "authored": "2021-04-06T11:33:34+00:00",
      "item": [ {
        "linkId": "Tx130011",
        "text": "What is the main problem?",
        "answer": [ {
          "valueString": "illness or other health problem (specify)"
        } ]
      } ]
    }
  }, {
    "fullUrl": "urn:uuid:24d7e6f1-aa20-48a5-add2-5d44c79f16ab",
    "resource": {
      "resourceType": "Questionnaire",
      "id": "24d7e6f1-aa20-48a5-add2-5d44c79f16ab",
      "identifier": [ {
        "value": "59132"
      } ],
      "version": "2021-04-06T11:33:34.963Z",
      "status": "active",
      "experimental": false,
      "date": "2021-04-06T11:33:34+00:00",
      "publisher": "User ID: 'MCDONALDD' User name: 'Denzle McDonald' User skill set: 'T3'",
      "lastReviewDate": "2021-04-06",
      "subjectType": [ "Patient" ],
      "item": [ {
        "linkId": "59132",
        "prefix": "2500",
        "text": "What is the main problem?",
        "type": "choice",
        "required": true,
        "repeats": false,
        "option": [ {
          "valueString": "the individual has been told to follow a particular course of action (specify), Selected: false"
        }, {
          "valueString": "the individual is an identified frequent caller, Selected: false"
        }, {
          "valueString": "injury (specify), Selected: false"
        }, {
          "valueString": "illness or other health problem (specify), Selected: true"
        }, {
          "valueString": "child protection/vulnerable adult concern, Selected: false"
        }, {
          "valueString": "social or domestic emergency, Selected: false"
        }, {
          "valueString": "the environment potentially poses an immediate threat to life (specify), Selected: false"
        } ]
      } ]
    }
  }, {
    "fullUrl": "urn:uuid:759a7e78-5ce0-4f09-b3ec-1f49d289398f",
    "resource": {
      "resourceType": "QuestionnaireResponse",
      "id": "759a7e78-5ce0-4f09-b3ec-1f49d289398f",
      "identifier": {
        "value": "59132"
      },
      "questionnaire": {
        "reference": "urn:uuid:0e9520f0-d929-4c2c-9f7c-31fc2ba60773"
      },
      "status": "completed",
      "subject": {
        "reference": "urn:uuid:f889bf46-5efc-45a6-a92a-22f70309d592"
      },
      "context": {
        "reference": "urn:uuid:b4244691-6cfe-4145-9570-d992594d8269"
      },
      "authored": "2021-04-06T11:33:34+00:00"
    }
  }, {
    "fullUrl": "urn:uuid:0e9520f0-d929-4c2c-9f7c-31fc2ba60773",
    "resource": {
      "resourceType": "Questionnaire",
      "id": "0e9520f0-d929-4c2c-9f7c-31fc2ba60773",
      "identifier": [ {
        "value": "59132"
      } ],
      "version": "2021-04-06T11:33:34.963Z",
      "status": "active",
      "experimental": false,
      "date": "2021-04-06T11:33:34+00:00",
      "publisher": "User ID: 'MCDONALDD' User name: 'Denzle McDonald' User skill set: 'T3'",
      "lastReviewDate": "2021-04-06",
      "subjectType": [ "Patient" ]
    }
  }, {
    "fullUrl": "urn:uuid:1020664f-e320-4b3e-95c5-bda2c39fecf3",
    "resource": {
      "resourceType": "QuestionnaireResponse",
      "id": "1020664f-e320-4b3e-95c5-bda2c39fecf3",
      "identifier": {
        "value": "59132"
      },
      "questionnaire": {
        "reference": "urn:uuid:80b5e4ef-7b11-4746-a17d-52261679f676"
      },
      "status": "completed",
      "subject": {
        "reference": "urn:uuid:f889bf46-5efc-45a6-a92a-22f70309d592"
      },
      "context": {
        "reference": "urn:uuid:b4244691-6cfe-4145-9570-d992594d8269"
      },
      "authored": "2021-04-06T11:33:34+00:00",
      "item": [ {
        "linkId": "Tx61025",
        "text": "Are you so breathless that speaking more than a few words is impossible?",
        "answer": [ {
          "valueString": "no"
        } ]
      } ]
    }
  }, {
    "fullUrl": "urn:uuid:80b5e4ef-7b11-4746-a17d-52261679f676",
    "resource": {
      "resourceType": "Questionnaire",
      "id": "80b5e4ef-7b11-4746-a17d-52261679f676",
      "identifier": [ {
        "value": "59132"
      } ],
      "version": "2021-04-06T11:33:34.963Z",
      "status": "active",
      "experimental": false,
      "date": "2021-04-06T11:33:34+00:00",
      "publisher": "User ID: 'MCDONALDD' User name: 'Denzle McDonald' User skill set: 'T3'",
      "lastReviewDate": "2021-04-06",
      "subjectType": [ "Patient" ],
      "item": [ {
        "linkId": "59132",
        "prefix": "0",
        "text": "Are you so breathless that speaking more than a few words is impossible?",
        "type": "choice",
        "required": true,
        "repeats": false,
        "option": [ {
          "valueString": "yes, Selected: false"
        }, {
          "valueString": "not sure, Selected: false"
        }, {
          "valueString": "no, Selected: true"
        } ]
      } ]
    }
  }, {
    "fullUrl": "urn:uuid:0923c307-101c-4d19-bbd5-c8fb0d119366",
    "resource": {
      "resourceType": "QuestionnaireResponse",
      "id": "0923c307-101c-4d19-bbd5-c8fb0d119366",
      "identifier": {
        "value": "59132"
      },
      "questionnaire": {
        "reference": "urn:uuid:6d890a31-6419-476e-b3a7-39dcdd1abbc2"
      },
      "status": "completed",
      "subject": {
        "reference": "urn:uuid:f889bf46-5efc-45a6-a92a-22f70309d592"
      },
      "context": {
        "reference": "urn:uuid:b4244691-6cfe-4145-9570-d992594d8269"
      },
      "authored": "2021-04-06T11:33:34+00:00",
      "item": [ {
        "linkId": "Tx220845",
        "text": "SYSTEM_FLUPANDEMIC",
        "answer": [ {
          "valueString": "*"
        } ]
      } ]
    }
  }, {
    "fullUrl": "urn:uuid:6d890a31-6419-476e-b3a7-39dcdd1abbc2",
    "resource": {
      "resourceType": "Questionnaire",
      "id": "6d890a31-6419-476e-b3a7-39dcdd1abbc2",
      "identifier": [ {
        "value": "59132"
      } ],
      "version": "2021-04-06T11:33:34.963Z",
      "status": "active",
      "experimental": false,
      "date": "2021-04-06T11:33:34+00:00",
      "publisher": "User ID: 'MCDONALDD' User name: 'Denzle McDonald' User skill set: 'T3'",
      "lastReviewDate": "2021-04-06",
      "subjectType": [ "Patient" ],
      "item": [ {
        "linkId": "59132",
        "prefix": "100",
        "text": "SYSTEM_FLUPANDEMIC",
        "type": "choice",
        "required": true,
        "repeats": false,
        "option": [ {
          "valueString": "==\"pandemic\", Selected: false"
        }, {
          "valueString": "*, Selected: true"
        } ]
      } ]
    }
  }, {
    "fullUrl": "urn:uuid:7720d584-aa34-4c1b-896f-b3c337ce9472",
    "resource": {
      "resourceType": "QuestionnaireResponse",
      "id": "7720d584-aa34-4c1b-896f-b3c337ce9472",
      "identifier": {
        "value": "59132"
      },
      "questionnaire": {
        "reference": "urn:uuid:915a6c26-d5fe-4c06-948a-22febce62655"
      },
      "status": "completed",
      "subject": {
        "reference": "urn:uuid:f889bf46-5efc-45a6-a92a-22f70309d592"
      },
      "context": {
        "reference": "urn:uuid:b4244691-6cfe-4145-9570-d992594d8269"
      },
      "authored": "2021-04-06T11:33:34+00:00",
      "item": [ {
        "linkId": "Tx220044",
        "text": "WHAT IS SAID TO BE THE MAIN REASON FOR THIS CONTACT?",
        "answer": [ {
          "valueString": "more"
        } ]
      } ]
    }
  }, {
    "fullUrl": "urn:uuid:915a6c26-d5fe-4c06-948a-22febce62655",
    "resource": {
      "resourceType": "Questionnaire",
      "id": "915a6c26-d5fe-4c06-948a-22febce62655",
      "identifier": [ {
        "value": "59132"
      } ],
      "version": "2021-04-06T11:33:34.963Z",
      "status": "active",
      "experimental": false,
      "date": "2021-04-06T11:33:34+00:00",
      "publisher": "User ID: 'MCDONALDD' User name: 'Denzle McDonald' User skill set: 'T3'",
      "lastReviewDate": "2021-04-06",
      "subjectType": [ "Patient" ],
      "item": [ {
        "linkId": "59132",
        "prefix": "5000",
        "text": "WHAT IS SAID TO BE THE MAIN REASON FOR THIS CONTACT?",
        "type": "choice",
        "required": true,
        "repeats": false,
        "option": [ {
          "valueString": "a probable allergic reaction now, Selected: false"
        }, {
          "valueString": "chest or upper back pain, Selected: false"
        }, {
          "valueString": "a probable fit or seizure within the last 12 hours, Selected: false"
        }, {
          "valueString": "a suicide attempt, Selected: false"
        }, {
          "valueString": "new confusion now, Selected: false"
        }, {
          "valueString": "a probable stroke or mini stroke, Selected: false"
        }, {
          "valueString": "more, Selected: true"
        } ]
      } ]
    }
  }, {
    "fullUrl": "urn:uuid:aa68b285-246e-4f19-bd12-f3b7999fcb6f",
    "resource": {
      "resourceType": "QuestionnaireResponse",
      "id": "aa68b285-246e-4f19-bd12-f3b7999fcb6f",
      "identifier": {
        "value": "59132"
      },
      "questionnaire": {
        "reference": "urn:uuid:8a4de939-7b82-4742-bea0-cac33190d84f"
      },
      "status": "completed",
      "subject": {
        "reference": "urn:uuid:f889bf46-5efc-45a6-a92a-22f70309d592"
      },
      "context": {
        "reference": "urn:uuid:b4244691-6cfe-4145-9570-d992594d8269"
      },
      "authored": "2021-04-06T11:33:34+00:00",
      "item": [ {
        "linkId": "Tx223029",
        "text": "WHAT IS SAID TO BE THE MAIN REASON FOR THIS CONTACT?",
        "answer": [ {
          "valueString": "none of the above"
        } ]
      } ]
    }
  }, {
    "fullUrl": "urn:uuid:8a4de939-7b82-4742-bea0-cac33190d84f",
    "resource": {
      "resourceType": "Questionnaire",
      "id": "8a4de939-7b82-4742-bea0-cac33190d84f",
      "identifier": [ {
        "value": "59132"
      } ],
      "version": "2021-04-06T11:33:34.963Z",
      "status": "active",
      "experimental": false,
      "date": "2021-04-06T11:33:34+00:00",
      "publisher": "User ID: 'MCDONALDD' User name: 'Denzle McDonald' User skill set: 'T3'",
      "lastReviewDate": "2021-04-06",
      "subjectType": [ "Patient" ],
      "item": [ {
        "linkId": "59132",
        "prefix": "4100",
        "text": "WHAT IS SAID TO BE THE MAIN REASON FOR THIS CONTACT?",
        "type": "choice",
        "required": true,
        "repeats": false,
        "option": [ {
          "valueString": "a diabetic hypo (low blood sugar) or a diabetic hyper (high blood sugar), Selected: false"
        }, {
          "valueString": "recovery from an ICD (implanted cardioverter defibrillator) shock, Selected: false"
        }, {
          "valueString": "none of the above, Selected: true"
        } ]
      } ]
    }
  }, {
    "fullUrl": "urn:uuid:93bafbf3-9678-46f7-9be0-4b20d542c6fe",
    "resource": {
      "resourceType": "QuestionnaireResponse",
      "id": "93bafbf3-9678-46f7-9be0-4b20d542c6fe",
      "identifier": {
        "value": "59132"
      },
      "questionnaire": {
        "reference": "urn:uuid:f1205dab-127d-48e1-96ab-49495507f34a"
      },
      "status": "completed",
      "subject": {
        "reference": "urn:uuid:f889bf46-5efc-45a6-a92a-22f70309d592"
      },
      "context": {
        "reference": "urn:uuid:b4244691-6cfe-4145-9570-d992594d8269"
      },
      "authored": "2021-04-06T11:33:34+00:00",
      "item": [ {
        "linkId": "Tx223142",
        "text": "Does the skin on the chest, back or abdomen feel a normal temperature?",
        "answer": [ {
          "valueString": "yes - normal, warm or hot"
        } ]
      } ]
    }
  }, {
    "fullUrl": "urn:uuid:f1205dab-127d-48e1-96ab-49495507f34a",
    "resource": {
      "resourceType": "Questionnaire",
      "id": "f1205dab-127d-48e1-96ab-49495507f34a",
      "identifier": [ {
        "value": "59132"
      } ],
      "version": "2021-04-06T11:33:34.963Z",
      "status": "active",
      "experimental": false,
      "date": "2021-04-06T11:33:34+00:00",
      "publisher": "User ID: 'MCDONALDD' User name: 'Denzle McDonald' User skill set: 'T3'",
      "lastReviewDate": "2021-04-06",
      "subjectType": [ "Patient" ],
      "item": [ {
        "linkId": "59132",
        "prefix": "4400",
        "text": "Does the skin on the chest, back or abdomen feel a normal temperature?",
        "type": "choice",
        "required": true,
        "repeats": false,
        "option": [ {
          "valueString": "yes - normal, warm or hot, Selected: true"
        }, {
          "valueString": "not sure, Selected: false"
        }, {
          "valueString": "no - cool OR cold, Selected: false"
        }, {
          "valueString": "not safe to touch, Selected: false"
        } ]
      } ]
    }
  }, {
    "fullUrl": "urn:uuid:4e551586-e2c9-4e9e-bd9e-b9a55364c0bc",
    "resource": {
      "resourceType": "QuestionnaireResponse",
      "id": "4e551586-e2c9-4e9e-bd9e-b9a55364c0bc",
      "identifier": {
        "value": "59132"
      },
      "questionnaire": {
        "reference": "urn:uuid:75973ee1-0ca0-4c87-85cb-2cf6e6756121"
      },
      "status": "completed",
      "subject": {
        "reference": "urn:uuid:f889bf46-5efc-45a6-a92a-22f70309d592"
      },
      "context": {
        "reference": "urn:uuid:b4244691-6cfe-4145-9570-d992594d8269"
      },
      "authored": "2021-04-06T11:33:34+00:00",
      "item": [ {
        "linkId": "Tx221724",
        "text": "STRING:ShockAsked",
        "answer": [ {
          "valueString": "\"present\""
        } ]
      } ]
    }
  }, {
    "fullUrl": "urn:uuid:75973ee1-0ca0-4c87-85cb-2cf6e6756121",
    "resource": {
      "resourceType": "Questionnaire",
      "id": "75973ee1-0ca0-4c87-85cb-2cf6e6756121",
      "identifier": [ {
        "value": "59132"
      } ],
      "version": "2021-04-06T11:33:34.963Z",
      "status": "active",
      "experimental": false,
      "date": "2021-04-06T11:33:34+00:00",
      "publisher": "User ID: 'MCDONALDD' User name: 'Denzle McDonald' User skill set: 'T3'",
      "lastReviewDate": "2021-04-06",
      "subjectType": [ "Patient" ],
      "item": [ {
        "linkId": "59132",
        "prefix": "3300",
        "text": "STRING:ShockAsked",
        "type": "choice",
        "required": true,
        "repeats": false,
        "option": [ {
          "valueString": "\"present\", Selected: true"
        } ]
      } ]
    }
  }, {
    "fullUrl": "urn:uuid:c878fc57-3b53-4d1d-a811-d2b9c853b3c8",
    "resource": {
      "resourceType": "QuestionnaireResponse",
      "id": "c878fc57-3b53-4d1d-a811-d2b9c853b3c8",
      "identifier": {
        "value": "59132"
      },
      "questionnaire": {
        "reference": "urn:uuid:659ed256-1261-4548-ad37-57a57df6f1c3"
      },
      "status": "completed",
      "subject": {
        "reference": "urn:uuid:f889bf46-5efc-45a6-a92a-22f70309d592"
      },
      "context": {
        "reference": "urn:uuid:b4244691-6cfe-4145-9570-d992594d8269"
      },
      "authored": "2021-04-06T11:33:34+00:00"
    }
  }, {
    "fullUrl": "urn:uuid:659ed256-1261-4548-ad37-57a57df6f1c3",
    "resource": {
      "resourceType": "Questionnaire",
      "id": "659ed256-1261-4548-ad37-57a57df6f1c3",
      "identifier": [ {
        "value": "59132"
      } ],
      "version": "2021-04-06T11:33:34.963Z",
      "status": "active",
      "experimental": false,
      "date": "2021-04-06T11:33:34+00:00",
      "publisher": "User ID: 'MCDONALDD' User name: 'Denzle McDonald' User skill set: 'T3'",
      "lastReviewDate": "2021-04-06",
      "subjectType": [ "Patient" ]
    }
  }, {
    "fullUrl": "urn:uuid:3b9bf26d-b403-42b8-bdc6-bc7e170f96fb",
    "resource": {
      "resourceType": "QuestionnaireResponse",
      "id": "3b9bf26d-b403-42b8-bdc6-bc7e170f96fb",
      "identifier": {
        "value": "59132"
      },
      "questionnaire": {
        "reference": "urn:uuid:300ee70f-d8e9-4045-9d4d-6556bcf79278"
      },
      "status": "completed",
      "subject": {
        "reference": "urn:uuid:f889bf46-5efc-45a6-a92a-22f70309d592"
      },
      "context": {
        "reference": "urn:uuid:b4244691-6cfe-4145-9570-d992594d8269"
      },
      "authored": "2021-04-06T11:33:34+00:00",
      "item": [ {
        "linkId": "Tx223272",
        "text": "SYSTEM_VHF",
        "answer": [ {
          "valueString": "*"
        } ]
      } ]
    }
  }, {
    "fullUrl": "urn:uuid:300ee70f-d8e9-4045-9d4d-6556bcf79278",
    "resource": {
      "resourceType": "Questionnaire",
      "id": "300ee70f-d8e9-4045-9d4d-6556bcf79278",
      "identifier": [ {
        "value": "59132"
      } ],
      "version": "2021-04-06T11:33:34.963Z",
      "status": "active",
      "experimental": false,
      "date": "2021-04-06T11:33:34+00:00",
      "publisher": "User ID: 'MCDONALDD' User name: 'Denzle McDonald' User skill set: 'T3'",
      "lastReviewDate": "2021-04-06",
      "subjectType": [ "Patient" ],
      "item": [ {
        "linkId": "59132",
        "prefix": "0",
        "text": "SYSTEM_VHF",
        "type": "choice",
        "required": true,
        "repeats": false,
        "option": [ {
          "valueString": "==\"vhf\", Selected: false"
        }, {
          "valueString": "*, Selected: true"
        } ]
      } ]
    }
  }, {
    "fullUrl": "urn:uuid:3f9e2eda-4ae8-4638-94f4-6f5de43c64a5",
    "resource": {
      "resourceType": "QuestionnaireResponse",
      "id": "3f9e2eda-4ae8-4638-94f4-6f5de43c64a5",
      "identifier": {
        "value": "59132"
      },
      "questionnaire": {
        "reference": "urn:uuid:68782442-9abe-4aac-ade0-62a86dec945c"
      },
      "status": "completed",
      "subject": {
        "reference": "urn:uuid:f889bf46-5efc-45a6-a92a-22f70309d592"
      },
      "context": {
        "reference": "urn:uuid:b4244691-6cfe-4145-9570-d992594d8269"
      },
      "authored": "2021-04-06T11:33:34+00:00",
      "item": [ {
        "linkId": "Tx222416",
        "text": "Have you actually vomited?",
        "answer": [ {
          "valueString": "no"
        } ]
      } ]
    }
  }, {
    "fullUrl": "urn:uuid:68782442-9abe-4aac-ade0-62a86dec945c",
    "resource": {
      "resourceType": "Questionnaire",
      "id": "68782442-9abe-4aac-ade0-62a86dec945c",
      "identifier": [ {
        "value": "59132"
      } ],
      "version": "2021-04-06T11:33:34.963Z",
      "status": "active",
      "experimental": false,
      "date": "2021-04-06T11:33:34+00:00",
      "publisher": "User ID: 'MCDONALDD' User name: 'Denzle McDonald' User skill set: 'T3'",
      "lastReviewDate": "2021-04-06",
      "subjectType": [ "Patient" ],
      "item": [ {
        "linkId": "59132",
        "prefix": "30400",
        "text": "Have you actually vomited?",
        "type": "choice",
        "required": true,
        "repeats": false,
        "option": [ {
          "valueString": "yes, Selected: false"
        }, {
          "valueString": "not sure, Selected: false"
        }, {
          "valueString": "no, Selected: true"
        } ]
      } ]
    }
  }, {
    "fullUrl": "urn:uuid:9a8e2334-357d-4a1f-ae49-d64cf81c6194",
    "resource": {
      "resourceType": "QuestionnaireResponse",
      "id": "9a8e2334-357d-4a1f-ae49-d64cf81c6194",
      "identifier": {
        "value": "59132"
      },
      "questionnaire": {
        "reference": "urn:uuid:1649771d-57f8-4d98-b020-919aaa2539c5"
      },
      "status": "completed",
      "subject": {
        "reference": "urn:uuid:f889bf46-5efc-45a6-a92a-22f70309d592"
      },
      "context": {
        "reference": "urn:uuid:b4244691-6cfe-4145-9570-d992594d8269"
      },
      "authored": "2021-04-06T11:33:34+00:00",
      "item": [ {
        "linkId": "Tx220964",
        "text": "Have you got diarrhoea as well?",
        "answer": [ {
          "valueString": "no"
        } ]
      } ]
    }
  }, {
    "fullUrl": "urn:uuid:1649771d-57f8-4d98-b020-919aaa2539c5",
    "resource": {
      "resourceType": "Questionnaire",
      "id": "1649771d-57f8-4d98-b020-919aaa2539c5",
      "identifier": [ {
        "value": "59132"
      } ],
      "version": "2021-04-06T11:33:34.963Z",
      "status": "active",
      "experimental": false,
      "date": "2021-04-06T11:33:34+00:00",
      "publisher": "User ID: 'MCDONALDD' User name: 'Denzle McDonald' User skill set: 'T3'",
      "lastReviewDate": "2021-04-06",
      "subjectType": [ "Patient" ],
      "item": [ {
        "linkId": "59132",
        "prefix": "100",
        "text": "Have you got diarrhoea as well?",
        "type": "choice",
        "required": true,
        "repeats": false,
        "option": [ {
          "valueString": "yes, Selected: false"
        }, {
          "valueString": "not sure, Selected: false"
        }, {
          "valueString": "no, Selected: true"
        } ]
      } ]
    }
  }, {
    "fullUrl": "urn:uuid:7cba9cbb-6ce1-4c09-b373-258963912f6e",
    "resource": {
      "resourceType": "QuestionnaireResponse",
      "id": "7cba9cbb-6ce1-4c09-b373-258963912f6e",
      "identifier": {
        "value": "59132"
      },
      "questionnaire": {
        "reference": "urn:uuid:3c73527f-b7fa-4583-b00e-f003d7600aee"
      },
      "status": "completed",
      "subject": {
        "reference": "urn:uuid:f889bf46-5efc-45a6-a92a-22f70309d592"
      },
      "context": {
        "reference": "urn:uuid:b4244691-6cfe-4145-9570-d992594d8269"
      },
      "authored": "2021-04-06T11:33:34+00:00",
      "item": [ {
        "linkId": "Tx221277",
        "text": "Vomiting",
        "answer": [ {
          "valueString": "*"
        } ]
      } ]
    }
  }, {
    "fullUrl": "urn:uuid:3c73527f-b7fa-4583-b00e-f003d7600aee",
    "resource": {
      "resourceType": "Questionnaire",
      "id": "3c73527f-b7fa-4583-b00e-f003d7600aee",
      "identifier": [ {
        "value": "59132"
      } ],
      "version": "2021-04-06T11:33:34.963Z",
      "status": "active",
      "experimental": false,
      "date": "2021-04-06T11:33:34+00:00",
      "publisher": "User ID: 'MCDONALDD' User name: 'Denzle McDonald' User skill set: 'T3'",
      "lastReviewDate": "2021-04-06",
      "subjectType": [ "Patient" ],
      "item": [ {
        "linkId": "59132",
        "prefix": "400",
        "text": "Vomiting",
        "type": "choice",
        "required": true,
        "repeats": false,
        "option": [ {
          "valueString": "==\"present\", Selected: false"
        }, {
          "valueString": "*, Selected: true"
        } ]
      } ]
    }
  }, {
    "fullUrl": "urn:uuid:62c3ee1e-98b0-4b0b-9c1c-ef9dc9b77a36",
    "resource": {
      "resourceType": "QuestionnaireResponse",
      "id": "62c3ee1e-98b0-4b0b-9c1c-ef9dc9b77a36",
      "identifier": {
        "value": "59132"
      },
      "questionnaire": {
        "reference": "urn:uuid:baafb752-c57c-445d-85ab-69d30c62537c"
      },
      "status": "completed",
      "subject": {
        "reference": "urn:uuid:f889bf46-5efc-45a6-a92a-22f70309d592"
      },
      "context": {
        "reference": "urn:uuid:b4244691-6cfe-4145-9570-d992594d8269"
      },
      "authored": "2021-04-06T11:33:34+00:00",
      "item": [ {
        "linkId": "Tx221183",
        "text": "Did the symptoms come on after drinking alcohol?",
        "answer": [ {
          "valueString": "no"
        } ]
      } ]
    }
  }, {
    "fullUrl": "urn:uuid:baafb752-c57c-445d-85ab-69d30c62537c",
    "resource": {
      "resourceType": "Questionnaire",
      "id": "baafb752-c57c-445d-85ab-69d30c62537c",
      "identifier": [ {
        "value": "59132"
      } ],
      "version": "2021-04-06T11:33:34.963Z",
      "status": "active",
      "experimental": false,
      "date": "2021-04-06T11:33:34+00:00",
      "publisher": "User ID: 'MCDONALDD' User name: 'Denzle McDonald' User skill set: 'T3'",
      "lastReviewDate": "2021-04-06",
      "subjectType": [ "Patient" ],
      "item": [ {
        "linkId": "59132",
        "prefix": "300",
        "text": "Did the symptoms come on after drinking alcohol?",
        "type": "choice",
        "required": true,
        "repeats": false,
        "option": [ {
          "valueString": "yes, Selected: false"
        }, {
          "valueString": "not sure, Selected: false"
        }, {
          "valueString": "no, Selected: true"
        } ]
      } ]
    }
  }, {
    "fullUrl": "urn:uuid:77526291-f629-421a-ba26-e5a3a01873cb",
    "resource": {
      "resourceType": "QuestionnaireResponse",
      "id": "77526291-f629-421a-ba26-e5a3a01873cb",
      "identifier": {
        "value": "59132"
      },
      "questionnaire": {
        "reference": "urn:uuid:35dbdafd-7b01-4e30-931e-23a26872abdc"
      },
      "status": "completed",
      "subject": {
        "reference": "urn:uuid:f889bf46-5efc-45a6-a92a-22f70309d592"
      },
      "context": {
        "reference": "urn:uuid:b4244691-6cfe-4145-9570-d992594d8269"
      },
      "authored": "2021-04-06T11:33:34+00:00",
      "item": [ {
        "linkId": "Tx221277",
        "text": "Vomiting",
        "answer": [ {
          "valueString": "*"
        } ]
      } ]
    }
  }, {
    "fullUrl": "urn:uuid:35dbdafd-7b01-4e30-931e-23a26872abdc",
    "resource": {
      "resourceType": "Questionnaire",
      "id": "35dbdafd-7b01-4e30-931e-23a26872abdc",
      "identifier": [ {
        "value": "59132"
      } ],
      "version": "2021-04-06T11:33:34.963Z",
      "status": "active",
      "experimental": false,
      "date": "2021-04-06T11:33:34+00:00",
      "publisher": "User ID: 'MCDONALDD' User name: 'Denzle McDonald' User skill set: 'T3'",
      "lastReviewDate": "2021-04-06",
      "subjectType": [ "Patient" ],
      "item": [ {
        "linkId": "59132",
        "prefix": "1000",
        "text": "Vomiting",
        "type": "choice",
        "required": true,
        "repeats": false,
        "option": [ {
          "valueString": "==\"present\", Selected: false"
        }, {
          "valueString": "*, Selected: true"
        } ]
      } ]
    }
  }, {
    "fullUrl": "urn:uuid:171875ea-07f3-42d1-99f1-b682d91515ca",
    "resource": {
      "resourceType": "QuestionnaireResponse",
      "id": "171875ea-07f3-42d1-99f1-b682d91515ca",
      "identifier": {
        "value": "59132"
      },
      "questionnaire": {
        "reference": "urn:uuid:c897842e-bee3-4412-9079-c998adabb60a"
      },
      "status": "completed",
      "subject": {
        "reference": "urn:uuid:f889bf46-5efc-45a6-a92a-22f70309d592"
      },
      "context": {
        "reference": "urn:uuid:b4244691-6cfe-4145-9570-d992594d8269"
      },
      "authored": "2021-04-06T11:33:34+00:00",
      "item": [ {
        "linkId": "Tx220825",
        "text": "Have you also got any pain in the abdomen?",
        "answer": [ {
          "valueString": "yes"
        } ]
      } ]
    }
  }, {
    "fullUrl": "urn:uuid:c897842e-bee3-4412-9079-c998adabb60a",
    "resource": {
      "resourceType": "Questionnaire",
      "id": "c897842e-bee3-4412-9079-c998adabb60a",
      "identifier": [ {
        "value": "59132"
      } ],
      "version": "2021-04-06T11:33:34.963Z",
      "status": "active",
      "experimental": false,
      "date": "2021-04-06T11:33:34+00:00",
      "publisher": "User ID: 'MCDONALDD' User name: 'Denzle McDonald' User skill set: 'T3'",
      "lastReviewDate": "2021-04-06",
      "subjectType": [ "Patient" ],
      "item": [ {
        "linkId": "59132",
        "prefix": "1500",
        "text": "Have you also got any pain in the abdomen?",
        "type": "choice",
        "required": true,
        "repeats": false,
        "option": [ {
          "valueString": "yes, Selected: true"
        }, {
          "valueString": "not sure, Selected: false"
        }, {
          "valueString": "no, Selected: false"
        } ]
      } ]
    }
  }, {
    "fullUrl": "urn:uuid:1ea0bdb8-016f-41ff-97d9-7d51eb27dffb",
    "resource": {
      "resourceType": "QuestionnaireResponse",
      "id": "1ea0bdb8-016f-41ff-97d9-7d51eb27dffb",
      "identifier": {
        "value": "59132"
      },
      "questionnaire": {
        "reference": "urn:uuid:dacbca47-5d06-4e5d-bb4f-47a3da3698dd"
      },
      "status": "completed",
      "subject": {
        "reference": "urn:uuid:f889bf46-5efc-45a6-a92a-22f70309d592"
      },
      "context": {
        "reference": "urn:uuid:b4244691-6cfe-4145-9570-d992594d8269"
      },
      "authored": "2021-04-06T11:33:34+00:00",
      "item": [ {
        "linkId": "Tx224927",
        "text": "STRING:VomitingAnd/OrNauseaWithAbdominalPainPW",
        "answer": [ {
          "valueString": "\"present\""
        } ]
      } ]
    }
  }, {
    "fullUrl": "urn:uuid:dacbca47-5d06-4e5d-bb4f-47a3da3698dd",
    "resource": {
      "resourceType": "Questionnaire",
      "id": "dacbca47-5d06-4e5d-bb4f-47a3da3698dd",
      "identifier": [ {
        "value": "59132"
      } ],
      "version": "2021-04-06T11:33:34.963Z",
      "status": "active",
      "experimental": false,
      "date": "2021-04-06T11:33:34+00:00",
      "publisher": "User ID: 'MCDONALDD' User name: 'Denzle McDonald' User skill set: 'T3'",
      "lastReviewDate": "2021-04-06",
      "subjectType": [ "Patient" ],
      "item": [ {
        "linkId": "59132",
        "prefix": "64600",
        "text": "STRING:VomitingAnd/OrNauseaWithAbdominalPainPW",
        "type": "choice",
        "required": true,
        "repeats": false,
        "option": [ {
          "valueString": "\"present\", Selected: true"
        } ]
      } ]
    }
  }, {
    "fullUrl": "urn:uuid:00df2388-f01e-4cb3-8802-f28eb0b54cc0",
    "resource": {
      "resourceType": "QuestionnaireResponse",
      "id": "00df2388-f01e-4cb3-8802-f28eb0b54cc0",
      "identifier": {
        "value": "59132"
      },
      "questionnaire": {
        "reference": "urn:uuid:7a4b07fd-b7a6-4313-828a-53b5d007c083"
      },
      "status": "completed",
      "subject": {
        "reference": "urn:uuid:f889bf46-5efc-45a6-a92a-22f70309d592"
      },
      "context": {
        "reference": "urn:uuid:b4244691-6cfe-4145-9570-d992594d8269"
      },
      "authored": "2021-04-06T11:33:34+00:00",
      "item": [ {
        "linkId": "Tx224907",
        "text": "STRING:GITSymptomWithAbdominalPain",
        "answer": [ {
          "valueString": "\"present\""
        } ]
      } ]
    }
  }, {
    "fullUrl": "urn:uuid:7a4b07fd-b7a6-4313-828a-53b5d007c083",
    "resource": {
      "resourceType": "Questionnaire",
      "id": "7a4b07fd-b7a6-4313-828a-53b5d007c083",
      "identifier": [ {
        "value": "59132"
      } ],
      "version": "2021-04-06T11:33:34.963Z",
      "status": "active",
      "experimental": false,
      "date": "2021-04-06T11:33:34+00:00",
      "publisher": "User ID: 'MCDONALDD' User name: 'Denzle McDonald' User skill set: 'T3'",
      "lastReviewDate": "2021-04-06",
      "subjectType": [ "Patient" ],
      "item": [ {
        "linkId": "59132",
        "prefix": "64700",
        "text": "STRING:GITSymptomWithAbdominalPain",
        "type": "choice",
        "required": true,
        "repeats": false,
        "option": [ {
          "valueString": "\"present\", Selected: true"
        } ]
      } ]
    }
  }, {
    "fullUrl": "urn:uuid:680fa994-170b-44a0-8faf-95ba610a72a4",
    "resource": {
      "resourceType": "QuestionnaireResponse",
      "id": "680fa994-170b-44a0-8faf-95ba610a72a4",
      "identifier": {
        "value": "59132"
      },
      "questionnaire": {
        "reference": "urn:uuid:14772b34-1bff-4c26-8d80-b9b17c002efa"
      },
      "status": "completed",
      "subject": {
        "reference": "urn:uuid:f889bf46-5efc-45a6-a92a-22f70309d592"
      },
      "context": {
        "reference": "urn:uuid:b4244691-6cfe-4145-9570-d992594d8269"
      },
      "authored": "2021-04-06T11:33:34+00:00"
    }
  }, {
    "fullUrl": "urn:uuid:14772b34-1bff-4c26-8d80-b9b17c002efa",
    "resource": {
      "resourceType": "Questionnaire",
      "id": "14772b34-1bff-4c26-8d80-b9b17c002efa",
      "identifier": [ {
        "value": "59132"
      } ],
      "version": "2021-04-06T11:33:34.963Z",
      "status": "active",
      "experimental": false,
      "date": "2021-04-06T11:33:34+00:00",
      "publisher": "User ID: 'MCDONALDD' User name: 'Denzle McDonald' User skill set: 'T3'",
      "lastReviewDate": "2021-04-06",
      "subjectType": [ "Patient" ]
    }
  }, {
    "fullUrl": "urn:uuid:eb0f936b-252f-4c76-aa3a-089535c37ad6",
    "resource": {
      "resourceType": "QuestionnaireResponse",
      "id": "eb0f936b-252f-4c76-aa3a-089535c37ad6",
      "identifier": {
        "value": "59132"
      },
      "questionnaire": {
        "reference": "urn:uuid:976d2e6f-cf24-4d8a-bb7f-9780aa4d676c"
      },
      "status": "completed",
      "subject": {
        "reference": "urn:uuid:f889bf46-5efc-45a6-a92a-22f70309d592"
      },
      "context": {
        "reference": "urn:uuid:b4244691-6cfe-4145-9570-d992594d8269"
      },
      "authored": "2021-04-06T11:33:34+00:00",
      "item": [ {
        "linkId": "Tx221039",
        "text": "PATIENT_AGEGROUP",
        "answer": [ {
          "valueString": "==\"CHILD\""
        } ]
      } ]
    }
  }, {
    "fullUrl": "urn:uuid:976d2e6f-cf24-4d8a-bb7f-9780aa4d676c",
    "resource": {
      "resourceType": "Questionnaire",
      "id": "976d2e6f-cf24-4d8a-bb7f-9780aa4d676c",
      "identifier": [ {
        "value": "59132"
      } ],
      "version": "2021-04-06T11:33:34.963Z",
      "status": "active",
      "experimental": false,
      "date": "2021-04-06T11:33:34+00:00",
      "publisher": "User ID: 'MCDONALDD' User name: 'Denzle McDonald' User skill set: 'T3'",
      "lastReviewDate": "2021-04-06",
      "subjectType": [ "Patient" ],
      "item": [ {
        "linkId": "59132",
        "prefix": "0",
        "text": "PATIENT_AGEGROUP",
        "type": "choice",
        "required": true,
        "repeats": false,
        "option": [ {
          "valueString": "==\"ADULT\", Selected: false"
        }, {
          "valueString": "==\"CHILD\", Selected: true"
        }, {
          "valueString": "==\"TODDLER\", Selected: false"
        }, {
          "valueString": "==\"INFANT\", Selected: false"
        }, {
          "valueString": "==\"NEONATE\", Selected: false"
        }, {
          "valueString": "*, Selected: false"
        } ]
      } ]
    }
  }, {
    "fullUrl": "urn:uuid:cabfb3fc-a3dd-4fdc-b3f3-3a09d0645d59",
    "resource": {
      "resourceType": "QuestionnaireResponse",
      "id": "cabfb3fc-a3dd-4fdc-b3f3-3a09d0645d59",
      "identifier": {
        "value": "59132"
      },
      "questionnaire": {
        "reference": "urn:uuid:00decfb6-6edc-480f-abe2-0dc68029059d"
      },
      "status": "completed",
      "subject": {
        "reference": "urn:uuid:f889bf46-5efc-45a6-a92a-22f70309d592"
      },
      "context": {
        "reference": "urn:uuid:b4244691-6cfe-4145-9570-d992594d8269"
      },
      "authored": "2021-04-06T11:33:34+00:00",
      "item": [ {
        "linkId": "Tx224919",
        "text": "PATIENT_AGE",
        "answer": [ {
          "valueString": "<11"
        } ]
      } ]
    }
  }, {
    "fullUrl": "urn:uuid:00decfb6-6edc-480f-abe2-0dc68029059d",
    "resource": {
      "resourceType": "Questionnaire",
      "id": "00decfb6-6edc-480f-abe2-0dc68029059d",
      "identifier": [ {
        "value": "59132"
      } ],
      "version": "2021-04-06T11:33:34.963Z",
      "status": "active",
      "experimental": false,
      "date": "2021-04-06T11:33:34+00:00",
      "publisher": "User ID: 'MCDONALDD' User name: 'Denzle McDonald' User skill set: 'T3'",
      "lastReviewDate": "2021-04-06",
      "subjectType": [ "Patient" ],
      "item": [ {
        "linkId": "59132",
        "prefix": "15300",
        "text": "PATIENT_AGE",
        "type": "choice",
        "required": true,
        "repeats": false,
        "option": [ {
          "valueString": "<11, Selected: true"
        }, {
          "valueString": "<13, Selected: false"
        }, {
          "valueString": ">=13, Selected: false"
        }, {
          "valueString": "*, Selected: false"
        } ]
      } ]
    }
  }, {
    "fullUrl": "urn:uuid:6ed5a14a-f432-4140-bd47-30e31155a0c1",
    "resource": {
      "resourceType": "QuestionnaireResponse",
      "id": "6ed5a14a-f432-4140-bd47-30e31155a0c1",
      "identifier": {
        "value": "59132"
      },
      "questionnaire": {
        "reference": "urn:uuid:07a9862d-3501-496a-a5d8-fa6880356bf4"
      },
      "status": "completed",
      "subject": {
        "reference": "urn:uuid:f889bf46-5efc-45a6-a92a-22f70309d592"
      },
      "context": {
        "reference": "urn:uuid:b4244691-6cfe-4145-9570-d992594d8269"
      },
      "authored": "2021-04-06T11:33:34+00:00",
      "item": [ {
        "linkId": "Tx224498",
        "text": "STRING:Under11",
        "answer": [ {
          "valueString": "\"present\""
        } ]
      } ]
    }
  }, {
    "fullUrl": "urn:uuid:07a9862d-3501-496a-a5d8-fa6880356bf4",
    "resource": {
      "resourceType": "Questionnaire",
      "id": "07a9862d-3501-496a-a5d8-fa6880356bf4",
      "identifier": [ {
        "value": "59132"
      } ],
      "version": "2021-04-06T11:33:34.963Z",
      "status": "active",
      "experimental": false,
      "date": "2021-04-06T11:33:34+00:00",
      "publisher": "User ID: 'MCDONALDD' User name: 'Denzle McDonald' User skill set: 'T3'",
      "lastReviewDate": "2021-04-06",
      "subjectType": [ "Patient" ],
      "item": [ {
        "linkId": "59132",
        "prefix": "14800",
        "text": "STRING:Under11",
        "type": "choice",
        "required": true,
        "repeats": false,
        "option": [ {
          "valueString": "\"present\", Selected: true"
        } ]
      } ]
    }
  }, {
    "fullUrl": "urn:uuid:7d97a30c-fa9d-4f5e-b126-e0c1c5f0395e",
    "resource": {
      "resourceType": "QuestionnaireResponse",
      "id": "7d97a30c-fa9d-4f5e-b126-e0c1c5f0395e",
      "identifier": {
        "value": "59132"
      },
      "questionnaire": {
        "reference": "urn:uuid:1c16d4b7-89a8-41e7-aa32-72f9ac7c0914"
      },
      "status": "completed",
      "subject": {
        "reference": "urn:uuid:f889bf46-5efc-45a6-a92a-22f70309d592"
      },
      "context": {
        "reference": "urn:uuid:b4244691-6cfe-4145-9570-d992594d8269"
      },
      "authored": "2021-04-06T11:33:34+00:00",
      "item": [ {
        "linkId": "Tx224906",
        "text": "AbdominalPainPW",
        "answer": [ {
          "valueString": "*"
        } ]
      } ]
    }
  }, {
    "fullUrl": "urn:uuid:1c16d4b7-89a8-41e7-aa32-72f9ac7c0914",
    "resource": {
      "resourceType": "Questionnaire",
      "id": "1c16d4b7-89a8-41e7-aa32-72f9ac7c0914",
      "identifier": [ {
        "value": "59132"
      } ],
      "version": "2021-04-06T11:33:34.963Z",
      "status": "active",
      "experimental": false,
      "date": "2021-04-06T11:33:34+00:00",
      "publisher": "User ID: 'MCDONALDD' User name: 'Denzle McDonald' User skill set: 'T3'",
      "lastReviewDate": "2021-04-06",
      "subjectType": [ "Patient" ],
      "item": [ {
        "linkId": "59132",
        "prefix": "15600",
        "text": "AbdominalPainPW",
        "type": "choice",
        "required": true,
        "repeats": false,
        "option": [ {
          "valueString": "==\"present\", Selected: false"
        }, {
          "valueString": "*, Selected: true"
        } ]
      } ]
    }
  }, {
    "fullUrl": "urn:uuid:ac42ce74-5745-4596-8153-1fdeb5f36b8b",
    "resource": {
      "resourceType": "QuestionnaireResponse",
      "id": "ac42ce74-5745-4596-8153-1fdeb5f36b8b",
      "identifier": {
        "value": "59132"
      },
      "questionnaire": {
        "reference": "urn:uuid:9edccdd6-c66b-4450-a19d-1e2caf34700c"
      },
      "status": "completed",
      "subject": {
        "reference": "urn:uuid:f889bf46-5efc-45a6-a92a-22f70309d592"
      },
      "context": {
        "reference": "urn:uuid:b4244691-6cfe-4145-9570-d992594d8269"
      },
      "authored": "2021-04-06T11:33:34+00:00",
      "item": [ {
        "linkId": "Tx225151",
        "text": "RectalBleedingwithAbdominalPainPW",
        "answer": [ {
          "valueString": "*"
        } ]
      } ]
    }
  }, {
    "fullUrl": "urn:uuid:9edccdd6-c66b-4450-a19d-1e2caf34700c",
    "resource": {
      "resourceType": "Questionnaire",
      "id": "9edccdd6-c66b-4450-a19d-1e2caf34700c",
      "identifier": [ {
        "value": "59132"
      } ],
      "version": "2021-04-06T11:33:34.963Z",
      "status": "active",
      "experimental": false,
      "date": "2021-04-06T11:33:34+00:00",
      "publisher": "User ID: 'MCDONALDD' User name: 'Denzle McDonald' User skill set: 'T3'",
      "lastReviewDate": "2021-04-06",
      "subjectType": [ "Patient" ],
      "item": [ {
        "linkId": "59132",
        "prefix": "21300",
        "text": "RectalBleedingwithAbdominalPainPW",
        "type": "choice",
        "required": true,
        "repeats": false,
        "option": [ {
          "valueString": "==\"present\", Selected: false"
        }, {
          "valueString": "*, Selected: true"
        } ]
      } ]
    }
  }, {
    "fullUrl": "urn:uuid:e184b5f0-100d-4d37-ada8-8442df0e8055",
    "resource": {
      "resourceType": "QuestionnaireResponse",
      "id": "e184b5f0-100d-4d37-ada8-8442df0e8055",
      "identifier": {
        "value": "59132"
      },
      "questionnaire": {
        "reference": "urn:uuid:08985f75-3895-46ec-8f85-0721fa4f9c90"
      },
      "status": "completed",
      "subject": {
        "reference": "urn:uuid:f889bf46-5efc-45a6-a92a-22f70309d592"
      },
      "context": {
        "reference": "urn:uuid:b4244691-6cfe-4145-9570-d992594d8269"
      },
      "authored": "2021-04-06T11:33:34+00:00",
      "item": [ {
        "linkId": "Tx224908",
        "text": "GITSymptomWithAbdominalPain",
        "answer": [ {
          "valueString": "==\"present\""
        } ]
      } ]
    }
  }, {
    "fullUrl": "urn:uuid:08985f75-3895-46ec-8f85-0721fa4f9c90",
    "resource": {
      "resourceType": "Questionnaire",
      "id": "08985f75-3895-46ec-8f85-0721fa4f9c90",
      "identifier": [ {
        "value": "59132"
      } ],
      "version": "2021-04-06T11:33:34.963Z",
      "status": "active",
      "experimental": false,
      "date": "2021-04-06T11:33:34+00:00",
      "publisher": "User ID: 'MCDONALDD' User name: 'Denzle McDonald' User skill set: 'T3'",
      "lastReviewDate": "2021-04-06",
      "subjectType": [ "Patient" ],
      "item": [ {
        "linkId": "59132",
        "prefix": "15700",
        "text": "GITSymptomWithAbdominalPain",
        "type": "choice",
        "required": true,
        "repeats": false,
        "option": [ {
          "valueString": "==\"present\", Selected: true"
        }, {
          "valueString": "*, Selected: false"
        } ]
      } ]
    }
  }, {
    "fullUrl": "urn:uuid:52a90dbd-e104-458e-b4fd-0d8b9ebff389",
    "resource": {
      "resourceType": "QuestionnaireResponse",
      "id": "52a90dbd-e104-458e-b4fd-0d8b9ebff389",
      "identifier": {
        "value": "59132"
      },
      "questionnaire": {
        "reference": "urn:uuid:ef890802-a266-4b37-a618-811d27123f08"
      },
      "status": "completed",
      "subject": {
        "reference": "urn:uuid:f889bf46-5efc-45a6-a92a-22f70309d592"
      },
      "context": {
        "reference": "urn:uuid:b4244691-6cfe-4145-9570-d992594d8269"
      },
      "authored": "2021-04-06T11:33:34+00:00"
    }
  }, {
    "fullUrl": "urn:uuid:ef890802-a266-4b37-a618-811d27123f08",
    "resource": {
      "resourceType": "Questionnaire",
      "id": "ef890802-a266-4b37-a618-811d27123f08",
      "identifier": [ {
        "value": "59132"
      } ],
      "version": "2021-04-06T11:33:34.963Z",
      "status": "active",
      "experimental": false,
      "date": "2021-04-06T11:33:34+00:00",
      "publisher": "User ID: 'MCDONALDD' User name: 'Denzle McDonald' User skill set: 'T3'",
      "lastReviewDate": "2021-04-06",
      "subjectType": [ "Patient" ]
    }
  }, {
    "fullUrl": "urn:uuid:f51bd7c0-bfb8-4f45-a47c-94eef25e0e3a",
    "resource": {
      "resourceType": "QuestionnaireResponse",
      "id": "f51bd7c0-bfb8-4f45-a47c-94eef25e0e3a",
      "identifier": {
        "value": "59132"
      },
      "questionnaire": {
        "reference": "urn:uuid:13aa5a13-4a15-4efe-8abb-a341488721ad"
      },
      "status": "completed",
      "subject": {
        "reference": "urn:uuid:f889bf46-5efc-45a6-a92a-22f70309d592"
      },
      "context": {
        "reference": "urn:uuid:b4244691-6cfe-4145-9570-d992594d8269"
      },
      "authored": "2021-04-06T11:33:34+00:00",
      "item": [ {
        "linkId": "Tx221039",
        "text": "PATIENT_AGEGROUP",
        "answer": [ {
          "valueString": "==\"CHILD\""
        } ]
      } ]
    }
  }, {
    "fullUrl": "urn:uuid:13aa5a13-4a15-4efe-8abb-a341488721ad",
    "resource": {
      "resourceType": "Questionnaire",
      "id": "13aa5a13-4a15-4efe-8abb-a341488721ad",
      "identifier": [ {
        "value": "59132"
      } ],
      "version": "2021-04-06T11:33:34.963Z",
      "status": "active",
      "experimental": false,
      "date": "2021-04-06T11:33:34+00:00",
      "publisher": "User ID: 'MCDONALDD' User name: 'Denzle McDonald' User skill set: 'T3'",
      "lastReviewDate": "2021-04-06",
      "subjectType": [ "Patient" ],
      "item": [ {
        "linkId": "59132",
        "prefix": "0",
        "text": "PATIENT_AGEGROUP",
        "type": "choice",
        "required": true,
        "repeats": false,
        "option": [ {
          "valueString": "==\"ADULT\", Selected: false"
        }, {
          "valueString": "==\"CHILD\", Selected: true"
        }, {
          "valueString": "==\"TODDLER\", Selected: false"
        }, {
          "valueString": "==\"INFANT\", Selected: false"
        }, {
          "valueString": "==\"NEONATE\", Selected: false"
        }, {
          "valueString": "*, Selected: false"
        } ]
      } ]
    }
  }, {
    "fullUrl": "urn:uuid:4733c96c-5d3d-4654-a0d0-fb606182b850",
    "resource": {
      "resourceType": "QuestionnaireResponse",
      "id": "4733c96c-5d3d-4654-a0d0-fb606182b850",
      "identifier": {
        "value": "59132"
      },
      "questionnaire": {
        "reference": "urn:uuid:2f495d91-1ab2-4fd5-9170-bcb8d368f69a"
      },
      "status": "completed",
      "subject": {
        "reference": "urn:uuid:f889bf46-5efc-45a6-a92a-22f70309d592"
      },
      "context": {
        "reference": "urn:uuid:b4244691-6cfe-4145-9570-d992594d8269"
      },
      "authored": "2021-04-06T11:33:34+00:00",
      "item": [ {
        "linkId": "Tx220156",
        "text": "How bad is the pain?",
        "answer": [ {
          "valueString": "bad enough to interfere with normal activity"
        } ]
      } ]
    }
  }, {
    "fullUrl": "urn:uuid:2f495d91-1ab2-4fd5-9170-bcb8d368f69a",
    "resource": {
      "resourceType": "Questionnaire",
      "id": "2f495d91-1ab2-4fd5-9170-bcb8d368f69a",
      "identifier": [ {
        "value": "59132"
      } ],
      "version": "2021-04-06T11:33:34.963Z",
      "status": "active",
      "experimental": false,
      "date": "2021-04-06T11:33:34+00:00",
      "publisher": "User ID: 'MCDONALDD' User name: 'Denzle McDonald' User skill set: 'T3'",
      "lastReviewDate": "2021-04-06",
      "subjectType": [ "Patient" ],
      "item": [ {
        "linkId": "59132",
        "prefix": "6500",
        "text": "How bad is the pain?",
        "type": "choice",
        "required": true,
        "repeats": false,
        "option": [ {
          "valueString": "so bad that doing anything is impossible, Selected: false"
        }, {
          "valueString": "bad enough to interfere with normal activity, Selected: true"
        }, {
          "valueString": "neither of the above, Selected: false"
        } ]
      } ]
    }
  }, {
    "fullUrl": "urn:uuid:3a9d68b9-4985-48c8-866b-118601625ceb",
    "resource": {
      "resourceType": "QuestionnaireResponse",
      "id": "3a9d68b9-4985-48c8-866b-118601625ceb",
      "identifier": {
        "value": "59132"
      },
      "questionnaire": {
        "reference": "urn:uuid:faec67b8-35c8-4f72-9e2d-86fecd5fbadf"
      },
      "status": "completed",
      "subject": {
        "reference": "urn:uuid:f889bf46-5efc-45a6-a92a-22f70309d592"
      },
      "context": {
        "reference": "urn:uuid:b4244691-6cfe-4145-9570-d992594d8269"
      },
      "authored": "2021-04-06T11:33:34+00:00",
      "item": [ {
        "linkId": "Tx224664",
        "text": "STRING:ModeratePain",
        "answer": [ {
          "valueString": "\"present\""
        } ]
      } ]
    }
  }, {
    "fullUrl": "urn:uuid:faec67b8-35c8-4f72-9e2d-86fecd5fbadf",
    "resource": {
      "resourceType": "Questionnaire",
      "id": "faec67b8-35c8-4f72-9e2d-86fecd5fbadf",
      "identifier": [ {
        "value": "59132"
      } ],
      "version": "2021-04-06T11:33:34.963Z",
      "status": "active",
      "experimental": false,
      "date": "2021-04-06T11:33:34+00:00",
      "publisher": "User ID: 'MCDONALDD' User name: 'Denzle McDonald' User skill set: 'T3'",
      "lastReviewDate": "2021-04-06",
      "subjectType": [ "Patient" ],
      "item": [ {
        "linkId": "59132",
        "prefix": "6600",
        "text": "STRING:ModeratePain",
        "type": "choice",
        "required": true,
        "repeats": false,
        "option": [ {
          "valueString": "\"present\", Selected: true"
        } ]
      } ]
    }
  }, {
    "fullUrl": "urn:uuid:ed1c9ac9-0b1c-4158-803b-ab367dc6bc2a",
    "resource": {
      "resourceType": "QuestionnaireResponse",
      "id": "ed1c9ac9-0b1c-4158-803b-ab367dc6bc2a",
      "identifier": {
        "value": "59132"
      },
      "questionnaire": {
        "reference": "urn:uuid:d78939c7-4cff-4701-b1fd-509dbc0dc2ff"
      },
      "status": "completed",
      "subject": {
        "reference": "urn:uuid:f889bf46-5efc-45a6-a92a-22f70309d592"
      },
      "context": {
        "reference": "urn:uuid:b4244691-6cfe-4145-9570-d992594d8269"
      },
      "authored": "2021-04-06T11:33:34+00:00",
      "item": [ {
        "linkId": "Tx170003",
        "text": "PATIENT_PARTY",
        "answer": [ {
          "valueString": "==1"
        } ]
      } ]
    }
  }, {
    "fullUrl": "urn:uuid:d78939c7-4cff-4701-b1fd-509dbc0dc2ff",
    "resource": {
      "resourceType": "Questionnaire",
      "id": "d78939c7-4cff-4701-b1fd-509dbc0dc2ff",
      "identifier": [ {
        "value": "59132"
      } ],
      "version": "2021-04-06T11:33:34.963Z",
      "status": "active",
      "experimental": false,
      "date": "2021-04-06T11:33:34+00:00",
      "publisher": "User ID: 'MCDONALDD' User name: 'Denzle McDonald' User skill set: 'T3'",
      "lastReviewDate": "2021-04-06",
      "subjectType": [ "Patient" ],
      "item": [ {
        "linkId": "59132",
        "prefix": "6800",
        "text": "PATIENT_PARTY",
        "type": "choice",
        "required": true,
        "repeats": false,
        "option": [ {
          "valueString": "==1, Selected: true"
        }, {
          "valueString": "==3, Selected: false"
        }, {
          "valueString": "*, Selected: false"
        } ]
      } ]
    }
  }, {
    "fullUrl": "urn:uuid:78db7ccf-e6d5-4698-af8e-cc72c249418b",
    "resource": {
      "resourceType": "QuestionnaireResponse",
      "id": "78db7ccf-e6d5-4698-af8e-cc72c249418b",
      "identifier": {
        "value": "59132"
      },
      "questionnaire": {
        "reference": "urn:uuid:bb579243-fefa-4375-b916-3fc6b60bd498"
      },
      "status": "completed",
      "subject": {
        "reference": "urn:uuid:f889bf46-5efc-45a6-a92a-22f70309d592"
      },
      "context": {
        "reference": "urn:uuid:b4244691-6cfe-4145-9570-d992594d8269"
      },
      "authored": "2021-04-06T11:33:34+00:00",
      "item": [ {
        "linkId": "Tx224190",
        "text": "Are you so ill that you have stopped doing ALL of your usual activities?",
        "answer": [ {
          "valueString": "no - well enough to do MOST or all activities"
        } ]
      } ]
    }
  }, {
    "fullUrl": "urn:uuid:bb579243-fefa-4375-b916-3fc6b60bd498",
    "resource": {
      "resourceType": "Questionnaire",
      "id": "bb579243-fefa-4375-b916-3fc6b60bd498",
      "identifier": [ {
        "value": "59132"
      } ],
      "version": "2021-04-06T11:33:34.963Z",
      "status": "active",
      "experimental": false,
      "date": "2021-04-06T11:33:34+00:00",
      "publisher": "User ID: 'MCDONALDD' User name: 'Denzle McDonald' User skill set: 'T3'",
      "lastReviewDate": "2021-04-06",
      "subjectType": [ "Patient" ],
      "item": [ {
        "linkId": "59132",
        "prefix": "6900",
        "text": "Are you so ill that you have stopped doing ALL of your usual activities?",
        "type": "choice",
        "required": true,
        "repeats": false,
        "option": [ {
          "valueString": "yes - so ill they have stopped doing ALL normal activities, Selected: false"
        }, {
          "valueString": "no - unwell but able to do SOME normal activities, Selected: false"
        }, {
          "valueString": "no - well enough to do MOST or all activities, Selected: true"
        } ]
      } ]
    }
  }, {
    "fullUrl": "urn:uuid:1a2ea4ce-cff6-4bd1-b948-a39416c6568b",
    "resource": {
      "resourceType": "QuestionnaireResponse",
      "id": "1a2ea4ce-cff6-4bd1-b948-a39416c6568b",
      "identifier": {
        "value": "59132"
      },
      "questionnaire": {
        "reference": "urn:uuid:86ab54b4-3b60-4820-b1e8-8395522d8074"
      },
      "status": "completed",
      "subject": {
        "reference": "urn:uuid:f889bf46-5efc-45a6-a92a-22f70309d592"
      },
      "context": {
        "reference": "urn:uuid:b4244691-6cfe-4145-9570-d992594d8269"
      },
      "authored": "2021-04-06T11:33:34+00:00",
      "item": [ {
        "linkId": "Tx224916",
        "text": "FlankPainPW",
        "answer": [ {
          "valueString": "*"
        } ]
      } ]
    }
  }, {
    "fullUrl": "urn:uuid:86ab54b4-3b60-4820-b1e8-8395522d8074",
    "resource": {
      "resourceType": "Questionnaire",
      "id": "86ab54b4-3b60-4820-b1e8-8395522d8074",
      "identifier": [ {
        "value": "59132"
      } ],
      "version": "2021-04-06T11:33:34.963Z",
      "status": "active",
      "experimental": false,
      "date": "2021-04-06T11:33:34+00:00",
      "publisher": "User ID: 'MCDONALDD' User name: 'Denzle McDonald' User skill set: 'T3'",
      "lastReviewDate": "2021-04-06",
      "subjectType": [ "Patient" ],
      "item": [ {
        "linkId": "59132",
        "prefix": "26500",
        "text": "FlankPainPW",
        "type": "choice",
        "required": true,
        "repeats": false,
        "option": [ {
          "valueString": "==\"present\", Selected: false"
        }, {
          "valueString": "*, Selected: true"
        } ]
      } ]
    }
  }, {
    "fullUrl": "urn:uuid:e35f3eb6-450a-451a-b857-b59897ac3d5b",
    "resource": {
      "resourceType": "QuestionnaireResponse",
      "id": "e35f3eb6-450a-451a-b857-b59897ac3d5b",
      "identifier": {
        "value": "59132"
      },
      "questionnaire": {
        "reference": "urn:uuid:c35c22ce-f33e-4edd-8020-089ce03cd092"
      },
      "status": "completed",
      "subject": {
        "reference": "urn:uuid:f889bf46-5efc-45a6-a92a-22f70309d592"
      },
      "context": {
        "reference": "urn:uuid:b4244691-6cfe-4145-9570-d992594d8269"
      },
      "authored": "2021-04-06T11:33:34+00:00",
      "item": [ {
        "linkId": "Tx222766",
        "text": "PregnancyOver20Weeks",
        "answer": [ {
          "valueString": "*"
        } ]
      } ]
    }
  }, {
    "fullUrl": "urn:uuid:c35c22ce-f33e-4edd-8020-089ce03cd092",
    "resource": {
      "resourceType": "Questionnaire",
      "id": "c35c22ce-f33e-4edd-8020-089ce03cd092",
      "identifier": [ {
        "value": "59132"
      } ],
      "version": "2021-04-06T11:33:34.963Z",
      "status": "active",
      "experimental": false,
      "date": "2021-04-06T11:33:34+00:00",
      "publisher": "User ID: 'MCDONALDD' User name: 'Denzle McDonald' User skill set: 'T3'",
      "lastReviewDate": "2021-04-06",
      "subjectType": [ "Patient" ],
      "item": [ {
        "linkId": "59132",
        "prefix": "16100",
        "text": "PregnancyOver20Weeks",
        "type": "choice",
        "required": true,
        "repeats": false,
        "option": [ {
          "valueString": "==\"present\", Selected: false"
        }, {
          "valueString": "*, Selected: true"
        } ]
      } ]
    }
  }, {
    "fullUrl": "urn:uuid:7665da7b-4bdf-4097-a57c-8bab684e19f0",
    "resource": {
      "resourceType": "QuestionnaireResponse",
      "id": "7665da7b-4bdf-4097-a57c-8bab684e19f0",
      "identifier": {
        "value": "59132"
      },
      "questionnaire": {
        "reference": "urn:uuid:226feddf-0450-46a1-9584-c807aecc67cc"
      },
      "status": "completed",
      "subject": {
        "reference": "urn:uuid:f889bf46-5efc-45a6-a92a-22f70309d592"
      },
      "context": {
        "reference": "urn:uuid:b4244691-6cfe-4145-9570-d992594d8269"
      },
      "authored": "2021-04-06T11:33:34+00:00",
      "item": [ {
        "linkId": "Tx225151",
        "text": "RectalBleedingwithAbdominalPainPW",
        "answer": [ {
          "valueString": "*"
        } ]
      } ]
    }
  }, {
    "fullUrl": "urn:uuid:226feddf-0450-46a1-9584-c807aecc67cc",
    "resource": {
      "resourceType": "Questionnaire",
      "id": "226feddf-0450-46a1-9584-c807aecc67cc",
      "identifier": [ {
        "value": "59132"
      } ],
      "version": "2021-04-06T11:33:34.963Z",
      "status": "active",
      "experimental": false,
      "date": "2021-04-06T11:33:34+00:00",
      "publisher": "User ID: 'MCDONALDD' User name: 'Denzle McDonald' User skill set: 'T3'",
      "lastReviewDate": "2021-04-06",
      "subjectType": [ "Patient" ],
      "item": [ {
        "linkId": "59132",
        "prefix": "26200",
        "text": "RectalBleedingwithAbdominalPainPW",
        "type": "choice",
        "required": true,
        "repeats": false,
        "option": [ {
          "valueString": "==\"present\", Selected: false"
        }, {
          "valueString": "*, Selected: true"
        } ]
      } ]
    }
  }, {
    "fullUrl": "urn:uuid:e9584de4-3ca2-4143-89ec-2ad7eb017fce",
    "resource": {
      "resourceType": "QuestionnaireResponse",
      "id": "e9584de4-3ca2-4143-89ec-2ad7eb017fce",
      "identifier": {
        "value": "59132"
      },
      "questionnaire": {
        "reference": "urn:uuid:13866981-aaf4-43bc-a921-3a53eb490cd6"
      },
      "status": "completed",
      "subject": {
        "reference": "urn:uuid:f889bf46-5efc-45a6-a92a-22f70309d592"
      },
      "context": {
        "reference": "urn:uuid:b4244691-6cfe-4145-9570-d992594d8269"
      },
      "authored": "2021-04-06T11:33:34+00:00",
      "item": [ {
        "linkId": "Tx221119",
        "text": "SeverelyIll",
        "answer": [ {
          "valueString": "*"
        } ]
      } ]
    }
  }, {
    "fullUrl": "urn:uuid:13866981-aaf4-43bc-a921-3a53eb490cd6",
    "resource": {
      "resourceType": "Questionnaire",
      "id": "13866981-aaf4-43bc-a921-3a53eb490cd6",
      "identifier": [ {
        "value": "59132"
      } ],
      "version": "2021-04-06T11:33:34.963Z",
      "status": "active",
      "experimental": false,
      "date": "2021-04-06T11:33:34+00:00",
      "publisher": "User ID: 'MCDONALDD' User name: 'Denzle McDonald' User skill set: 'T3'",
      "lastReviewDate": "2021-04-06",
      "subjectType": [ "Patient" ],
      "item": [ {
        "linkId": "59132",
        "prefix": "7500",
        "text": "SeverelyIll",
        "type": "choice",
        "required": true,
        "repeats": false,
        "option": [ {
          "valueString": "==\"present\", Selected: false"
        }, {
          "valueString": "*, Selected: true"
        } ]
      } ]
    }
  }, {
    "fullUrl": "urn:uuid:8f0986fc-f241-4b1e-92dc-821fc5367a7c",
    "resource": {
      "resourceType": "QuestionnaireResponse",
      "id": "8f0986fc-f241-4b1e-92dc-821fc5367a7c",
      "identifier": {
        "value": "59132"
      },
      "questionnaire": {
        "reference": "urn:uuid:6fb3d329-1590-4923-a2fa-d85bedc31a1d"
      },
      "status": "completed",
      "subject": {
        "reference": "urn:uuid:f889bf46-5efc-45a6-a92a-22f70309d592"
      },
      "context": {
        "reference": "urn:uuid:b4244691-6cfe-4145-9570-d992594d8269"
      },
      "authored": "2021-04-06T11:33:34+00:00",
      "item": [ {
        "linkId": "Tx224934",
        "text": "GroinPainOrSwellingPWAbdominalPainPW",
        "answer": [ {
          "valueString": "*"
        } ]
      } ]
    }
  }, {
    "fullUrl": "urn:uuid:6fb3d329-1590-4923-a2fa-d85bedc31a1d",
    "resource": {
      "resourceType": "Questionnaire",
      "id": "6fb3d329-1590-4923-a2fa-d85bedc31a1d",
      "identifier": [ {
        "value": "59132"
      } ],
      "version": "2021-04-06T11:33:34.963Z",
      "status": "active",
      "experimental": false,
      "date": "2021-04-06T11:33:34+00:00",
      "publisher": "User ID: 'MCDONALDD' User name: 'Denzle McDonald' User skill set: 'T3'",
      "lastReviewDate": "2021-04-06",
      "subjectType": [ "Patient" ],
      "item": [ {
        "linkId": "59132",
        "prefix": "23300",
        "text": "GroinPainOrSwellingPWAbdominalPainPW",
        "type": "choice",
        "required": true,
        "repeats": false,
        "option": [ {
          "valueString": "==\"present\", Selected: false"
        }, {
          "valueString": "*, Selected: true"
        } ]
      } ]
    }
  }, {
    "fullUrl": "urn:uuid:7decd45c-5b0c-4dc9-a99d-7fcccaf1f00c",
    "resource": {
      "resourceType": "QuestionnaireResponse",
      "id": "7decd45c-5b0c-4dc9-a99d-7fcccaf1f00c",
      "identifier": {
        "value": "59132"
      },
      "questionnaire": {
        "reference": "urn:uuid:11e5a67e-e317-4134-982c-11f9fc0b963a"
      },
      "status": "completed",
      "subject": {
        "reference": "urn:uuid:f889bf46-5efc-45a6-a92a-22f70309d592"
      },
      "context": {
        "reference": "urn:uuid:b4244691-6cfe-4145-9570-d992594d8269"
      },
      "authored": "2021-04-06T11:33:34+00:00",
      "item": [ {
        "linkId": "Tx224906",
        "text": "AbdominalPainPW",
        "answer": [ {
          "valueString": "*"
        } ]
      } ]
    }
  }, {
    "fullUrl": "urn:uuid:11e5a67e-e317-4134-982c-11f9fc0b963a",
    "resource": {
      "resourceType": "Questionnaire",
      "id": "11e5a67e-e317-4134-982c-11f9fc0b963a",
      "identifier": [ {
        "value": "59132"
      } ],
      "version": "2021-04-06T11:33:34.963Z",
      "status": "active",
      "experimental": false,
      "date": "2021-04-06T11:33:34+00:00",
      "publisher": "User ID: 'MCDONALDD' User name: 'Denzle McDonald' User skill set: 'T3'",
      "lastReviewDate": "2021-04-06",
      "subjectType": [ "Patient" ],
      "item": [ {
        "linkId": "59132",
        "prefix": "23400",
        "text": "AbdominalPainPW",
        "type": "choice",
        "required": true,
        "repeats": false,
        "option": [ {
          "valueString": "==\"present\", Selected: false"
        }, {
          "valueString": "*, Selected: true"
        } ]
      } ]
    }
  }, {
    "fullUrl": "urn:uuid:b354d5ee-21c0-480d-9a04-ac21905207cd",
    "resource": {
      "resourceType": "QuestionnaireResponse",
      "id": "b354d5ee-21c0-480d-9a04-ac21905207cd",
      "identifier": {
        "value": "59132"
      },
      "questionnaire": {
        "reference": "urn:uuid:62e42976-c4ad-47c9-bcbc-a2a639fa84e2"
      },
      "status": "completed",
      "subject": {
        "reference": "urn:uuid:f889bf46-5efc-45a6-a92a-22f70309d592"
      },
      "context": {
        "reference": "urn:uuid:b4244691-6cfe-4145-9570-d992594d8269"
      },
      "authored": "2021-04-06T11:33:34+00:00",
      "item": [ {
        "linkId": "Tx224928",
        "text": "VomitingAnd/OrNauseaWithAbdominalPainPW",
        "answer": [ {
          "valueString": "==\"present\""
        } ]
      } ]
    }
  }, {
    "fullUrl": "urn:uuid:62e42976-c4ad-47c9-bcbc-a2a639fa84e2",
    "resource": {
      "resourceType": "Questionnaire",
      "id": "62e42976-c4ad-47c9-bcbc-a2a639fa84e2",
      "identifier": [ {
        "value": "59132"
      } ],
      "version": "2021-04-06T11:33:34.963Z",
      "status": "active",
      "experimental": false,
      "date": "2021-04-06T11:33:34+00:00",
      "publisher": "User ID: 'MCDONALDD' User name: 'Denzle McDonald' User skill set: 'T3'",
      "lastReviewDate": "2021-04-06",
      "subjectType": [ "Patient" ],
      "item": [ {
        "linkId": "59132",
        "prefix": "23500",
        "text": "VomitingAnd/OrNauseaWithAbdominalPainPW",
        "type": "choice",
        "required": true,
        "repeats": false,
        "option": [ {
          "valueString": "==\"present\", Selected: true"
        }, {
          "valueString": "*, Selected: false"
        } ]
      } ]
    }
  }, {
    "fullUrl": "urn:uuid:adb59401-17f6-49ed-9aa8-a7849b25ee9e",
    "resource": {
      "resourceType": "QuestionnaireResponse",
      "id": "adb59401-17f6-49ed-9aa8-a7849b25ee9e",
      "identifier": {
        "value": "59132"
      },
      "questionnaire": {
        "reference": "urn:uuid:a7b4be60-edb0-41fe-b9b1-643f01b8276f"
      },
      "status": "completed",
      "subject": {
        "reference": "urn:uuid:f889bf46-5efc-45a6-a92a-22f70309d592"
      },
      "context": {
        "reference": "urn:uuid:b4244691-6cfe-4145-9570-d992594d8269"
      },
      "authored": "2021-04-06T11:33:34+00:00",
      "item": [ {
        "linkId": "Tx221017",
        "text": "PATIENT_GENDER",
        "answer": [ {
          "valueString": "==\"F\""
        } ]
      } ]
    }
  }, {
    "fullUrl": "urn:uuid:a7b4be60-edb0-41fe-b9b1-643f01b8276f",
    "resource": {
      "resourceType": "Questionnaire",
      "id": "a7b4be60-edb0-41fe-b9b1-643f01b8276f",
      "identifier": [ {
        "value": "59132"
      } ],
      "version": "2021-04-06T11:33:34.963Z",
      "status": "active",
      "experimental": false,
      "date": "2021-04-06T11:33:34+00:00",
      "publisher": "User ID: 'MCDONALDD' User name: 'Denzle McDonald' User skill set: 'T3'",
      "lastReviewDate": "2021-04-06",
      "subjectType": [ "Patient" ],
      "item": [ {
        "linkId": "59132",
        "prefix": "9000",
        "text": "PATIENT_GENDER",
        "type": "choice",
        "required": true,
        "repeats": false,
        "option": [ {
          "valueString": "==\"M\", Selected: false"
        }, {
          "valueString": "==\"F\", Selected: true"
        }, {
          "valueString": "==\"U\", Selected: false"
        }, {
          "valueString": "*, Selected: false"
        } ]
      } ]
    }
  }, {
    "fullUrl": "urn:uuid:1336fe86-8d61-4ebe-aede-666db1bad89d",
    "resource": {
      "resourceType": "QuestionnaireResponse",
      "id": "1336fe86-8d61-4ebe-aede-666db1bad89d",
      "identifier": {
        "value": "59132"
      },
      "questionnaire": {
        "reference": "urn:uuid:cd33fc5d-0edb-4909-a2e7-e4ab4658945c"
      },
      "status": "completed",
      "subject": {
        "reference": "urn:uuid:f889bf46-5efc-45a6-a92a-22f70309d592"
      },
      "context": {
        "reference": "urn:uuid:b4244691-6cfe-4145-9570-d992594d8269"
      },
      "authored": "2021-04-06T11:33:34+00:00"
    }
  }, {
    "fullUrl": "urn:uuid:cd33fc5d-0edb-4909-a2e7-e4ab4658945c",
    "resource": {
      "resourceType": "Questionnaire",
      "id": "cd33fc5d-0edb-4909-a2e7-e4ab4658945c",
      "identifier": [ {
        "value": "59132"
      } ],
      "version": "2021-04-06T11:33:34.963Z",
      "status": "active",
      "experimental": false,
      "date": "2021-04-06T11:33:34+00:00",
      "publisher": "User ID: 'MCDONALDD' User name: 'Denzle McDonald' User skill set: 'T3'",
      "lastReviewDate": "2021-04-06",
      "subjectType": [ "Patient" ]
    }
  }, {
    "fullUrl": "urn:uuid:cb5628ab-8ad4-4e87-96c2-1cc73482568a",
    "resource": {
      "resourceType": "QuestionnaireResponse",
      "id": "cb5628ab-8ad4-4e87-96c2-1cc73482568a",
      "identifier": {
        "value": "59132"
      },
      "questionnaire": {
        "reference": "urn:uuid:29079c90-2473-4087-bd89-3a9dbcb5d9d1"
      },
      "status": "completed",
      "subject": {
        "reference": "urn:uuid:f889bf46-5efc-45a6-a92a-22f70309d592"
      },
      "context": {
        "reference": "urn:uuid:b4244691-6cfe-4145-9570-d992594d8269"
      },
      "authored": "2021-04-06T11:33:34+00:00",
      "item": [ {
        "linkId": "Tx221114",
        "text": "Pregnancy",
        "answer": [ {
          "valueString": "*"
        } ]
      } ]
    }
  }, {
    "fullUrl": "urn:uuid:29079c90-2473-4087-bd89-3a9dbcb5d9d1",
    "resource": {
      "resourceType": "Questionnaire",
      "id": "29079c90-2473-4087-bd89-3a9dbcb5d9d1",
      "identifier": [ {
        "value": "59132"
      } ],
      "version": "2021-04-06T11:33:34.963Z",
      "status": "active",
      "experimental": false,
      "date": "2021-04-06T11:33:34+00:00",
      "publisher": "User ID: 'MCDONALDD' User name: 'Denzle McDonald' User skill set: 'T3'",
      "lastReviewDate": "2021-04-06",
      "subjectType": [ "Patient" ],
      "item": [ {
        "linkId": "59132",
        "prefix": "64500",
        "text": "Pregnancy",
        "type": "choice",
        "required": true,
        "repeats": false,
        "option": [ {
          "valueString": "==\"present\", Selected: false"
        }, {
          "valueString": "*, Selected: true"
        } ]
      } ]
    }
  }, {
    "fullUrl": "urn:uuid:50102bae-ea82-478e-899f-6a17e2493f08",
    "resource": {
      "resourceType": "QuestionnaireResponse",
      "id": "50102bae-ea82-478e-899f-6a17e2493f08",
      "identifier": {
        "value": "59132"
      },
      "questionnaire": {
        "reference": "urn:uuid:5a008ef8-1b86-49b7-a297-a19441253b06"
      },
      "status": "completed",
      "subject": {
        "reference": "urn:uuid:f889bf46-5efc-45a6-a92a-22f70309d592"
      },
      "context": {
        "reference": "urn:uuid:b4244691-6cfe-4145-9570-d992594d8269"
      },
      "authored": "2021-04-06T11:33:34+00:00",
      "item": [ {
        "linkId": "Tx221338",
        "text": ">=11yearsConfirmed",
        "answer": [ {
          "valueString": "*"
        } ]
      } ]
    }
  }, {
    "fullUrl": "urn:uuid:5a008ef8-1b86-49b7-a297-a19441253b06",
    "resource": {
      "resourceType": "Questionnaire",
      "id": "5a008ef8-1b86-49b7-a297-a19441253b06",
      "identifier": [ {
        "value": "59132"
      } ],
      "version": "2021-04-06T11:33:34.963Z",
      "status": "active",
      "experimental": false,
      "date": "2021-04-06T11:33:34+00:00",
      "publisher": "User ID: 'MCDONALDD' User name: 'Denzle McDonald' User skill set: 'T3'",
      "lastReviewDate": "2021-04-06",
      "subjectType": [ "Patient" ],
      "item": [ {
        "linkId": "59132",
        "prefix": "65600",
        "text": ">=11yearsConfirmed",
        "type": "choice",
        "required": true,
        "repeats": false,
        "option": [ {
          "valueString": "==\"present\", Selected: false"
        }, {
          "valueString": "*, Selected: true"
        } ]
      } ]
    }
  }, {
    "fullUrl": "urn:uuid:0aca7016-a409-4b08-8a23-295336c048e5",
    "resource": {
      "resourceType": "QuestionnaireResponse",
      "id": "0aca7016-a409-4b08-8a23-295336c048e5",
      "identifier": {
        "value": "59132"
      },
      "questionnaire": {
        "reference": "urn:uuid:695b0fcc-1ad6-4746-b191-62364d1e33df"
      },
      "status": "completed",
      "subject": {
        "reference": "urn:uuid:f889bf46-5efc-45a6-a92a-22f70309d592"
      },
      "context": {
        "reference": "urn:uuid:b4244691-6cfe-4145-9570-d992594d8269"
      },
      "authored": "2021-04-06T11:33:34+00:00",
      "item": [ {
        "linkId": "Tx221119",
        "text": "SeverelyIll",
        "answer": [ {
          "valueString": "*"
        } ]
      } ]
    }
  }, {
    "fullUrl": "urn:uuid:695b0fcc-1ad6-4746-b191-62364d1e33df",
    "resource": {
      "resourceType": "Questionnaire",
      "id": "695b0fcc-1ad6-4746-b191-62364d1e33df",
      "identifier": [ {
        "value": "59132"
      } ],
      "version": "2021-04-06T11:33:34.963Z",
      "status": "active",
      "experimental": false,
      "date": "2021-04-06T11:33:34+00:00",
      "publisher": "User ID: 'MCDONALDD' User name: 'Denzle McDonald' User skill set: 'T3'",
      "lastReviewDate": "2021-04-06",
      "subjectType": [ "Patient" ],
      "item": [ {
        "linkId": "59132",
        "prefix": "46200",
        "text": "SeverelyIll",
        "type": "choice",
        "required": true,
        "repeats": false,
        "option": [ {
          "valueString": "==\"present\", Selected: false"
        }, {
          "valueString": "*, Selected: true"
        } ]
      } ]
    }
  }, {
    "fullUrl": "urn:uuid:7ef3fae2-499e-481b-bff3-19d670836856",
    "resource": {
      "resourceType": "QuestionnaireResponse",
      "id": "7ef3fae2-499e-481b-bff3-19d670836856",
      "identifier": {
        "value": "59132"
      },
      "questionnaire": {
        "reference": "urn:uuid:8b1d1364-f453-41a0-9263-a97a1c87440c"
      },
      "status": "completed",
      "subject": {
        "reference": "urn:uuid:f889bf46-5efc-45a6-a92a-22f70309d592"
      },
      "context": {
        "reference": "urn:uuid:b4244691-6cfe-4145-9570-d992594d8269"
      },
      "authored": "2021-04-06T11:33:34+00:00",
      "item": [ {
        "linkId": "Tx220947",
        "text": "SeverePain",
        "answer": [ {
          "valueString": "*"
        } ]
      } ]
    }
  }, {
    "fullUrl": "urn:uuid:8b1d1364-f453-41a0-9263-a97a1c87440c",
    "resource": {
      "resourceType": "Questionnaire",
      "id": "8b1d1364-f453-41a0-9263-a97a1c87440c",
      "identifier": [ {
        "value": "59132"
      } ],
      "version": "2021-04-06T11:33:34.963Z",
      "status": "active",
      "experimental": false,
      "date": "2021-04-06T11:33:34+00:00",
      "publisher": "User ID: 'MCDONALDD' User name: 'Denzle McDonald' User skill set: 'T3'",
      "lastReviewDate": "2021-04-06",
      "subjectType": [ "Patient" ],
      "item": [ {
        "linkId": "59132",
        "prefix": "64600",
        "text": "SeverePain",
        "type": "choice",
        "required": true,
        "repeats": false,
        "option": [ {
          "valueString": "==\"present\", Selected: false"
        }, {
          "valueString": "*, Selected: true"
        } ]
      } ]
    }
  }, {
    "fullUrl": "urn:uuid:9262fa45-2064-40ee-8d8d-cf6e39210f70",
    "resource": {
      "resourceType": "QuestionnaireResponse",
      "id": "9262fa45-2064-40ee-8d8d-cf6e39210f70",
      "identifier": {
        "value": "59132"
      },
      "questionnaire": {
        "reference": "urn:uuid:4635981e-5529-4ffc-8093-890c22f50a31"
      },
      "status": "completed",
      "subject": {
        "reference": "urn:uuid:f889bf46-5efc-45a6-a92a-22f70309d592"
      },
      "context": {
        "reference": "urn:uuid:b4244691-6cfe-4145-9570-d992594d8269"
      },
      "authored": "2021-04-06T11:33:34+00:00",
      "item": [ {
        "linkId": "Tx220114",
        "text": "Have you taken anything that might be harmful or poisonous?",
        "answer": [ {
          "valueString": "no"
        } ]
      } ]
    }
  }, {
    "fullUrl": "urn:uuid:4635981e-5529-4ffc-8093-890c22f50a31",
    "resource": {
      "resourceType": "Questionnaire",
      "id": "4635981e-5529-4ffc-8093-890c22f50a31",
      "identifier": [ {
        "value": "59132"
      } ],
      "version": "2021-04-06T11:33:34.963Z",
      "status": "active",
      "experimental": false,
      "date": "2021-04-06T11:33:34+00:00",
      "publisher": "User ID: 'MCDONALDD' User name: 'Denzle McDonald' User skill set: 'T3'",
      "lastReviewDate": "2021-04-06",
      "subjectType": [ "Patient" ],
      "item": [ {
        "linkId": "59132",
        "prefix": "30300",
        "text": "Have you taken anything that might be harmful or poisonous?",
        "type": "choice",
        "required": true,
        "repeats": false,
        "option": [ {
          "valueString": "yes (specify substance if known), Selected: false"
        }, {
          "valueString": "not sure, Selected: false"
        }, {
          "valueString": "no, Selected: true"
        } ]
      } ]
    }
  }, {
    "fullUrl": "urn:uuid:e8b13f26-2e34-4101-8116-bb2091b4426c",
    "resource": {
      "resourceType": "QuestionnaireResponse",
      "id": "e8b13f26-2e34-4101-8116-bb2091b4426c",
      "identifier": {
        "value": "59132"
      },
      "questionnaire": {
        "reference": "urn:uuid:fb5620ac-5cd5-4c7b-8aec-c4674aec0c0a"
      },
      "status": "completed",
      "subject": {
        "reference": "urn:uuid:f889bf46-5efc-45a6-a92a-22f70309d592"
      },
      "context": {
        "reference": "urn:uuid:b4244691-6cfe-4145-9570-d992594d8269"
      },
      "authored": "2021-04-06T11:33:34+00:00",
      "item": [ {
        "linkId": "Tx221176",
        "text": "PregnancyUnder20Weeks",
        "answer": [ {
          "valueString": "*"
        } ]
      } ]
    }
  }, {
    "fullUrl": "urn:uuid:fb5620ac-5cd5-4c7b-8aec-c4674aec0c0a",
    "resource": {
      "resourceType": "Questionnaire",
      "id": "fb5620ac-5cd5-4c7b-8aec-c4674aec0c0a",
      "identifier": [ {
        "value": "59132"
      } ],
      "version": "2021-04-06T11:33:34.963Z",
      "status": "active",
      "experimental": false,
      "date": "2021-04-06T11:33:34+00:00",
      "publisher": "User ID: 'MCDONALDD' User name: 'Denzle McDonald' User skill set: 'T3'",
      "lastReviewDate": "2021-04-06",
      "subjectType": [ "Patient" ],
      "item": [ {
        "linkId": "59132",
        "prefix": "7700",
        "text": "PregnancyUnder20Weeks",
        "type": "choice",
        "required": true,
        "repeats": false,
        "option": [ {
          "valueString": "==\"present\", Selected: false"
        }, {
          "valueString": "*, Selected: true"
        } ]
      } ]
    }
  }, {
    "fullUrl": "urn:uuid:52ca5a3e-a780-4660-81b5-51b21fece5aa",
    "resource": {
      "resourceType": "QuestionnaireResponse",
      "id": "52ca5a3e-a780-4660-81b5-51b21fece5aa",
      "identifier": {
        "value": "59132"
      },
      "questionnaire": {
        "reference": "urn:uuid:291816c1-e2ad-46ff-a84f-07d832a9b871"
      },
      "status": "completed",
      "subject": {
        "reference": "urn:uuid:f889bf46-5efc-45a6-a92a-22f70309d592"
      },
      "context": {
        "reference": "urn:uuid:b4244691-6cfe-4145-9570-d992594d8269"
      },
      "authored": "2021-04-06T11:33:34+00:00",
      "item": [ {
        "linkId": "Tx221338",
        "text": ">=11yearsConfirmed",
        "answer": [ {
          "valueString": "*"
        } ]
      } ]
    }
  }, {
    "fullUrl": "urn:uuid:291816c1-e2ad-46ff-a84f-07d832a9b871",
    "resource": {
      "resourceType": "Questionnaire",
      "id": "291816c1-e2ad-46ff-a84f-07d832a9b871",
      "identifier": [ {
        "value": "59132"
      } ],
      "version": "2021-04-06T11:33:34.963Z",
      "status": "active",
      "experimental": false,
      "date": "2021-04-06T11:33:34+00:00",
      "publisher": "User ID: 'MCDONALDD' User name: 'Denzle McDonald' User skill set: 'T3'",
      "lastReviewDate": "2021-04-06",
      "subjectType": [ "Patient" ],
      "item": [ {
        "linkId": "59132",
        "prefix": "8200",
        "text": ">=11yearsConfirmed",
        "type": "choice",
        "required": true,
        "repeats": false,
        "option": [ {
          "valueString": "==\"present\", Selected: false"
        }, {
          "valueString": "*, Selected: true"
        } ]
      } ]
    }
  }, {
    "fullUrl": "urn:uuid:241b611b-0601-4180-b5df-ea10e5a2ac86",
    "resource": {
      "resourceType": "QuestionnaireResponse",
      "id": "241b611b-0601-4180-b5df-ea10e5a2ac86",
      "identifier": {
        "value": "59132"
      },
      "questionnaire": {
        "reference": "urn:uuid:50d8ea80-2df0-424b-a853-5a496d764c02"
      },
      "status": "completed",
      "subject": {
        "reference": "urn:uuid:f889bf46-5efc-45a6-a92a-22f70309d592"
      },
      "context": {
        "reference": "urn:uuid:b4244691-6cfe-4145-9570-d992594d8269"
      },
      "authored": "2021-04-06T11:33:34+00:00",
      "item": [ {
        "linkId": "Tx1033",
        "text": "Have you passed a bowel motion that looks like either of the following?",
        "answer": [ {
          "valueString": "no"
        } ]
      } ]
    }
  }, {
    "fullUrl": "urn:uuid:50d8ea80-2df0-424b-a853-5a496d764c02",
    "resource": {
      "resourceType": "Questionnaire",
      "id": "50d8ea80-2df0-424b-a853-5a496d764c02",
      "identifier": [ {
        "value": "59132"
      } ],
      "version": "2021-04-06T11:33:34.963Z",
      "status": "active",
      "experimental": false,
      "date": "2021-04-06T11:33:34+00:00",
      "publisher": "User ID: 'MCDONALDD' User name: 'Denzle McDonald' User skill set: 'T3'",
      "lastReviewDate": "2021-04-06",
      "subjectType": [ "Patient" ],
      "item": [ {
        "linkId": "59132",
        "prefix": "65200",
        "text": "Have you passed a bowel motion that looks like either of the following?",
        "type": "choice",
        "required": true,
        "repeats": false,
        "option": [ {
          "valueString": "black and tarry, Selected: false"
        }, {
          "valueString": "red or maroon, Selected: false"
        }, {
          "valueString": "not sure, Selected: false"
        }, {
          "valueString": "no, Selected: true"
        } ]
      } ]
    }
  }, {
    "fullUrl": "urn:uuid:b1b8ae12-81fe-4c8c-be73-a84226145eb5",
    "resource": {
      "resourceType": "QuestionnaireResponse",
      "id": "b1b8ae12-81fe-4c8c-be73-a84226145eb5",
      "identifier": {
        "value": "59132"
      },
      "questionnaire": {
        "reference": "urn:uuid:f8e7ad6f-dcf5-4435-b8d9-ae52c348223f"
      },
      "status": "completed",
      "subject": {
        "reference": "urn:uuid:f889bf46-5efc-45a6-a92a-22f70309d592"
      },
      "context": {
        "reference": "urn:uuid:b4244691-6cfe-4145-9570-d992594d8269"
      },
      "authored": "2021-04-06T11:33:34+00:00",
      "item": [ {
        "linkId": "Tx223274",
        "text": "VHFSymptom",
        "answer": [ {
          "valueString": "*"
        } ]
      } ]
    }
  }, {
    "fullUrl": "urn:uuid:f8e7ad6f-dcf5-4435-b8d9-ae52c348223f",
    "resource": {
      "resourceType": "Questionnaire",
      "id": "f8e7ad6f-dcf5-4435-b8d9-ae52c348223f",
      "identifier": [ {
        "value": "59132"
      } ],
      "version": "2021-04-06T11:33:34.963Z",
      "status": "active",
      "experimental": false,
      "date": "2021-04-06T11:33:34+00:00",
      "publisher": "User ID: 'MCDONALDD' User name: 'Denzle McDonald' User skill set: 'T3'",
      "lastReviewDate": "2021-04-06",
      "subjectType": [ "Patient" ],
      "item": [ {
        "linkId": "59132",
        "prefix": "34000",
        "text": "VHFSymptom",
        "type": "choice",
        "required": true,
        "repeats": false,
        "option": [ {
          "valueString": "==\"present\", Selected: false"
        }, {
          "valueString": "*, Selected: true"
        } ]
      } ]
    }
  }, {
    "fullUrl": "urn:uuid:843eada4-de7b-4894-94b1-6831c89e5da2",
    "resource": {
      "resourceType": "QuestionnaireResponse",
      "id": "843eada4-de7b-4894-94b1-6831c89e5da2",
      "identifier": {
        "value": "59132"
      },
      "questionnaire": {
        "reference": "urn:uuid:6f5a3c34-7c34-4ae4-b82e-a19a5ac9d2b2"
      },
      "status": "completed",
      "subject": {
        "reference": "urn:uuid:f889bf46-5efc-45a6-a92a-22f70309d592"
      },
      "context": {
        "reference": "urn:uuid:b4244691-6cfe-4145-9570-d992594d8269"
      },
      "authored": "2021-04-06T11:33:34+00:00",
      "item": [ {
        "linkId": "Tx224075",
        "text": "SeverelyIllandConfused",
        "answer": [ {
          "valueString": "*"
        } ]
      } ]
    }
  }, {
    "fullUrl": "urn:uuid:6f5a3c34-7c34-4ae4-b82e-a19a5ac9d2b2",
    "resource": {
      "resourceType": "Questionnaire",
      "id": "6f5a3c34-7c34-4ae4-b82e-a19a5ac9d2b2",
      "identifier": [ {
        "value": "59132"
      } ],
      "version": "2021-04-06T11:33:34.963Z",
      "status": "active",
      "experimental": false,
      "date": "2021-04-06T11:33:34+00:00",
      "publisher": "User ID: 'MCDONALDD' User name: 'Denzle McDonald' User skill set: 'T3'",
      "lastReviewDate": "2021-04-06",
      "subjectType": [ "Patient" ],
      "item": [ {
        "linkId": "59132",
        "prefix": "47300",
        "text": "SeverelyIllandConfused",
        "type": "choice",
        "required": true,
        "repeats": false,
        "option": [ {
          "valueString": "==\"present\", Selected: false"
        }, {
          "valueString": "*, Selected: true"
        } ]
      } ]
    }
  }, {
    "fullUrl": "urn:uuid:3d43a84f-8d6d-476f-9533-fc5e7b5961f9",
    "resource": {
      "resourceType": "QuestionnaireResponse",
      "id": "3d43a84f-8d6d-476f-9533-fc5e7b5961f9",
      "identifier": {
        "value": "59132"
      },
      "questionnaire": {
        "reference": "urn:uuid:fa925056-c3d6-4895-80cd-8bf9588369ef"
      },
      "status": "completed",
      "subject": {
        "reference": "urn:uuid:f889bf46-5efc-45a6-a92a-22f70309d592"
      },
      "context": {
        "reference": "urn:uuid:b4244691-6cfe-4145-9570-d992594d8269"
      },
      "authored": "2021-04-06T11:33:34+00:00",
      "item": [ {
        "linkId": "Tx221119",
        "text": "SeverelyIll",
        "answer": [ {
          "valueString": "*"
        } ]
      } ]
    }
  }, {
    "fullUrl": "urn:uuid:fa925056-c3d6-4895-80cd-8bf9588369ef",
    "resource": {
      "resourceType": "Questionnaire",
      "id": "fa925056-c3d6-4895-80cd-8bf9588369ef",
      "identifier": [ {
        "value": "59132"
      } ],
      "version": "2021-04-06T11:33:34.963Z",
      "status": "active",
      "experimental": false,
      "date": "2021-04-06T11:33:34+00:00",
      "publisher": "User ID: 'MCDONALDD' User name: 'Denzle McDonald' User skill set: 'T3'",
      "lastReviewDate": "2021-04-06",
      "subjectType": [ "Patient" ],
      "item": [ {
        "linkId": "59132",
        "prefix": "55200",
        "text": "SeverelyIll",
        "type": "choice",
        "required": true,
        "repeats": false,
        "option": [ {
          "valueString": "==\"present\", Selected: false"
        }, {
          "valueString": "*, Selected: true"
        } ]
      } ]
    }
  }, {
    "fullUrl": "urn:uuid:01c1e972-9147-4de0-aa18-b7a7c29543c2",
    "resource": {
      "resourceType": "QuestionnaireResponse",
      "id": "01c1e972-9147-4de0-aa18-b7a7c29543c2",
      "identifier": {
        "value": "59132"
      },
      "questionnaire": {
        "reference": "urn:uuid:1322ea91-d59c-447e-8379-68f8828eacf1"
      },
      "status": "completed",
      "subject": {
        "reference": "urn:uuid:f889bf46-5efc-45a6-a92a-22f70309d592"
      },
      "context": {
        "reference": "urn:uuid:b4244691-6cfe-4145-9570-d992594d8269"
      },
      "authored": "2021-04-06T11:33:34+00:00",
      "item": [ {
        "linkId": "Tx223485",
        "text": "ConfusionDeclared",
        "answer": [ {
          "valueString": "*"
        } ]
      } ]
    }
  }, {
    "fullUrl": "urn:uuid:1322ea91-d59c-447e-8379-68f8828eacf1",
    "resource": {
      "resourceType": "Questionnaire",
      "id": "1322ea91-d59c-447e-8379-68f8828eacf1",
      "identifier": [ {
        "value": "59132"
      } ],
      "version": "2021-04-06T11:33:34.963Z",
      "status": "active",
      "experimental": false,
      "date": "2021-04-06T11:33:34+00:00",
      "publisher": "User ID: 'MCDONALDD' User name: 'Denzle McDonald' User skill set: 'T3'",
      "lastReviewDate": "2021-04-06",
      "subjectType": [ "Patient" ],
      "item": [ {
        "linkId": "59132",
        "prefix": "55600",
        "text": "ConfusionDeclared",
        "type": "choice",
        "required": true,
        "repeats": false,
        "option": [ {
          "valueString": "==\"present\", Selected: false"
        }, {
          "valueString": "*, Selected: true"
        } ]
      } ]
    }
  }, {
    "fullUrl": "urn:uuid:fd362ab8-6b91-4af2-b828-2572d93ab20f",
    "resource": {
      "resourceType": "QuestionnaireResponse",
      "id": "fd362ab8-6b91-4af2-b828-2572d93ab20f",
      "identifier": {
        "value": "59132"
      },
      "questionnaire": {
        "reference": "urn:uuid:cba4507b-147d-4d7d-9557-8af30841eca6"
      },
      "status": "completed",
      "subject": {
        "reference": "urn:uuid:f889bf46-5efc-45a6-a92a-22f70309d592"
      },
      "context": {
        "reference": "urn:uuid:b4244691-6cfe-4145-9570-d992594d8269"
      },
      "authored": "2021-04-06T11:33:34+00:00",
      "item": [ {
        "linkId": "Tx1213",
        "text": "Have you suddenly become confused OR more confused than usual?",
        "answer": [ {
          "valueString": "no"
        } ]
      } ]
    }
  }, {
    "fullUrl": "urn:uuid:cba4507b-147d-4d7d-9557-8af30841eca6",
    "resource": {
      "resourceType": "Questionnaire",
      "id": "cba4507b-147d-4d7d-9557-8af30841eca6",
      "identifier": [ {
        "value": "59132"
      } ],
      "version": "2021-04-06T11:33:34.963Z",
      "status": "active",
      "experimental": false,
      "date": "2021-04-06T11:33:34+00:00",
      "publisher": "User ID: 'MCDONALDD' User name: 'Denzle McDonald' User skill set: 'T3'",
      "lastReviewDate": "2021-04-06",
      "subjectType": [ "Patient" ],
      "item": [ {
        "linkId": "59132",
        "prefix": "55500",
        "text": "Have you suddenly become confused OR more confused than usual?",
        "type": "choice",
        "required": true,
        "repeats": false,
        "option": [ {
          "valueString": "yes, Selected: false"
        }, {
          "valueString": "not sure, Selected: false"
        }, {
          "valueString": "no, Selected: true"
        } ]
      } ]
    }
  }, {
    "fullUrl": "urn:uuid:fd12be06-9e6e-4c47-a61a-3d85ed8d4515",
    "resource": {
      "resourceType": "QuestionnaireResponse",
      "id": "fd12be06-9e6e-4c47-a61a-3d85ed8d4515",
      "identifier": {
        "value": "59132"
      },
      "questionnaire": {
        "reference": "urn:uuid:7a282efd-5be6-4deb-9192-d57faee0b9b7"
      },
      "status": "completed",
      "subject": {
        "reference": "urn:uuid:f889bf46-5efc-45a6-a92a-22f70309d592"
      },
      "context": {
        "reference": "urn:uuid:b4244691-6cfe-4145-9570-d992594d8269"
      },
      "authored": "2021-04-06T11:33:34+00:00",
      "item": [ {
        "linkId": "Tx220164",
        "text": "Are you breathing faster or harder when doing nothing at all?",
        "answer": [ {
          "valueString": "no"
        } ]
      } ]
    }
  }, {
    "fullUrl": "urn:uuid:7a282efd-5be6-4deb-9192-d57faee0b9b7",
    "resource": {
      "resourceType": "Questionnaire",
      "id": "7a282efd-5be6-4deb-9192-d57faee0b9b7",
      "identifier": [ {
        "value": "59132"
      } ],
      "version": "2021-04-06T11:33:34.963Z",
      "status": "active",
      "experimental": false,
      "date": "2021-04-06T11:33:34+00:00",
      "publisher": "User ID: 'MCDONALDD' User name: 'Denzle McDonald' User skill set: 'T3'",
      "lastReviewDate": "2021-04-06",
      "subjectType": [ "Patient" ],
      "item": [ {
        "linkId": "59132",
        "prefix": "55400",
        "text": "Are you breathing faster or harder when doing nothing at all?",
        "type": "choice",
        "required": true,
        "repeats": false,
        "option": [ {
          "valueString": "yes, Selected: false"
        }, {
          "valueString": "not sure, Selected: false"
        }, {
          "valueString": "no, Selected: true"
        } ]
      } ]
    }
  }, {
    "fullUrl": "urn:uuid:03d179ac-280d-4513-8d45-9813fb75081a",
    "resource": {
      "resourceType": "QuestionnaireResponse",
      "id": "03d179ac-280d-4513-8d45-9813fb75081a",
      "identifier": {
        "value": "59132"
      },
      "questionnaire": {
        "reference": "urn:uuid:16173c3a-aecb-48e5-a60c-432f784e2b7a"
      },
      "status": "completed",
      "subject": {
        "reference": "urn:uuid:f889bf46-5efc-45a6-a92a-22f70309d592"
      },
      "context": {
        "reference": "urn:uuid:b4244691-6cfe-4145-9570-d992594d8269"
      },
      "authored": "2021-04-06T11:33:34+00:00",
      "item": [ {
        "linkId": "Tx224697",
        "text": "ShoulderTipPainAsked",
        "answer": [ {
          "valueString": "*"
        } ]
      } ]
    }
  }, {
    "fullUrl": "urn:uuid:16173c3a-aecb-48e5-a60c-432f784e2b7a",
    "resource": {
      "resourceType": "Questionnaire",
      "id": "16173c3a-aecb-48e5-a60c-432f784e2b7a",
      "identifier": [ {
        "value": "59132"
      } ],
      "version": "2021-04-06T11:33:34.963Z",
      "status": "active",
      "experimental": false,
      "date": "2021-04-06T11:33:34+00:00",
      "publisher": "User ID: 'MCDONALDD' User name: 'Denzle McDonald' User skill set: 'T3'",
      "lastReviewDate": "2021-04-06",
      "subjectType": [ "Patient" ],
      "item": [ {
        "linkId": "59132",
        "prefix": "59300",
        "text": "ShoulderTipPainAsked",
        "type": "choice",
        "required": true,
        "repeats": false,
        "option": [ {
          "valueString": "==\"present\", Selected: false"
        }, {
          "valueString": "*, Selected: true"
        } ]
      } ]
    }
  }, {
    "fullUrl": "urn:uuid:5239d1b4-8c78-430f-b837-3721d39b30a8",
    "resource": {
      "resourceType": "QuestionnaireResponse",
      "id": "5239d1b4-8c78-430f-b837-3721d39b30a8",
      "identifier": {
        "value": "59132"
      },
      "questionnaire": {
        "reference": "urn:uuid:bdb35572-0555-4620-bb8f-3b5c550df432"
      },
      "status": "completed",
      "subject": {
        "reference": "urn:uuid:f889bf46-5efc-45a6-a92a-22f70309d592"
      },
      "context": {
        "reference": "urn:uuid:b4244691-6cfe-4145-9570-d992594d8269"
      },
      "authored": "2021-04-06T11:33:34+00:00",
      "item": [ {
        "linkId": "Tx1513",
        "text": "Have you got either of the following problems?",
        "answer": [ {
          "valueString": "no"
        } ]
      } ]
    }
  }, {
    "fullUrl": "urn:uuid:bdb35572-0555-4620-bb8f-3b5c550df432",
    "resource": {
      "resourceType": "Questionnaire",
      "id": "bdb35572-0555-4620-bb8f-3b5c550df432",
      "identifier": [ {
        "value": "59132"
      } ],
      "version": "2021-04-06T11:33:34.963Z",
      "status": "active",
      "experimental": false,
      "date": "2021-04-06T11:33:34+00:00",
      "publisher": "User ID: 'MCDONALDD' User name: 'Denzle McDonald' User skill set: 'T3'",
      "lastReviewDate": "2021-04-06",
      "subjectType": [ "Patient" ],
      "item": [ {
        "linkId": "59132",
        "prefix": "11000",
        "text": "Have you got either of the following problems?",
        "type": "choice",
        "required": true,
        "repeats": false,
        "option": [ {
          "valueString": "new pain in the TIP of a shoulder as well, Selected: false"
        }, {
          "valueString": "pain in the lower right side of the abdomen, Selected: false"
        }, {
          "valueString": "not sure, Selected: false"
        }, {
          "valueString": "no, Selected: true"
        } ]
      } ]
    }
  }, {
    "fullUrl": "urn:uuid:9cdef870-a817-4645-b241-078c44d1f081",
    "resource": {
      "resourceType": "QuestionnaireResponse",
      "id": "9cdef870-a817-4645-b241-078c44d1f081",
      "identifier": {
        "value": "59132"
      },
      "questionnaire": {
        "reference": "urn:uuid:0d3c17ba-2879-4726-b649-8bae1d2921bc"
      },
      "status": "completed",
      "subject": {
        "reference": "urn:uuid:f889bf46-5efc-45a6-a92a-22f70309d592"
      },
      "context": {
        "reference": "urn:uuid:b4244691-6cfe-4145-9570-d992594d8269"
      },
      "authored": "2021-04-06T11:33:34+00:00",
      "item": [ {
        "linkId": "Tx3481",
        "text": "Has the pain been there ALL THE TIME for MORE THAN 4 HOURS?",
        "answer": [ {
          "valueString": "no (LESS THAN 4 hours)"
        } ]
      } ]
    }
  }, {
    "fullUrl": "urn:uuid:0d3c17ba-2879-4726-b649-8bae1d2921bc",
    "resource": {
      "resourceType": "Questionnaire",
      "id": "0d3c17ba-2879-4726-b649-8bae1d2921bc",
      "identifier": [ {
        "value": "59132"
      } ],
      "version": "2021-04-06T11:33:34.963Z",
      "status": "active",
      "experimental": false,
      "date": "2021-04-06T11:33:34+00:00",
      "publisher": "User ID: 'MCDONALDD' User name: 'Denzle McDonald' User skill set: 'T3'",
      "lastReviewDate": "2021-04-06",
      "subjectType": [ "Patient" ],
      "item": [ {
        "linkId": "59132",
        "prefix": "13000",
        "text": "Has the pain been there ALL THE TIME for MORE THAN 4 HOURS?",
        "type": "choice",
        "required": true,
        "repeats": false,
        "option": [ {
          "valueString": "yes (4 hours or MORE), Selected: false"
        }, {
          "valueString": "not sure, Selected: false"
        }, {
          "valueString": "no (LESS THAN 4 hours), Selected: true"
        } ]
      } ]
    }
  }, {
    "fullUrl": "urn:uuid:90db8594-6159-475b-a988-79a4c12760ba",
    "resource": {
      "resourceType": "QuestionnaireResponse",
      "id": "90db8594-6159-475b-a988-79a4c12760ba",
      "identifier": {
        "value": "59132"
      },
      "questionnaire": {
        "reference": "urn:uuid:50339810-8c57-4838-b753-8c86361b55ae"
      },
      "status": "completed",
      "subject": {
        "reference": "urn:uuid:f889bf46-5efc-45a6-a92a-22f70309d592"
      },
      "context": {
        "reference": "urn:uuid:b4244691-6cfe-4145-9570-d992594d8269"
      },
      "authored": "2021-04-06T11:33:34+00:00",
      "item": [ {
        "linkId": "Tx1178",
        "text": "Have you been diagnosed with diabetes?",
        "answer": [ {
          "valueString": "no"
        } ]
      } ]
    }
  }, {
    "fullUrl": "urn:uuid:50339810-8c57-4838-b753-8c86361b55ae",
    "resource": {
      "resourceType": "Questionnaire",
      "id": "50339810-8c57-4838-b753-8c86361b55ae",
      "identifier": [ {
        "value": "59132"
      } ],
      "version": "2021-04-06T11:33:34.963Z",
      "status": "active",
      "experimental": false,
      "date": "2021-04-06T11:33:34+00:00",
      "publisher": "User ID: 'MCDONALDD' User name: 'Denzle McDonald' User skill set: 'T3'",
      "lastReviewDate": "2021-04-06",
      "subjectType": [ "Patient" ],
      "item": [ {
        "linkId": "59132",
        "prefix": "13700",
        "text": "Have you been diagnosed with diabetes?",
        "type": "choice",
        "required": true,
        "repeats": false,
        "option": [ {
          "valueString": "yes, Selected: false"
        }, {
          "valueString": "not sure, Selected: false"
        }, {
          "valueString": "no, Selected: true"
        } ]
      } ]
    }
  }, {
    "fullUrl": "urn:uuid:b46fff30-41bd-450c-b148-4a1877e3fc53",
    "resource": {
      "resourceType": "QuestionnaireResponse",
      "id": "b46fff30-41bd-450c-b148-4a1877e3fc53",
      "identifier": {
        "value": "59132"
      },
      "questionnaire": {
        "reference": "urn:uuid:00ae8546-4fd0-41a9-976d-427613d2ab44"
      },
      "status": "completed",
      "subject": {
        "reference": "urn:uuid:f889bf46-5efc-45a6-a92a-22f70309d592"
      },
      "context": {
        "reference": "urn:uuid:b4244691-6cfe-4145-9570-d992594d8269"
      },
      "authored": "2021-04-06T11:33:34+00:00",
      "item": [ {
        "linkId": "Tx220906",
        "text": "Have you got pain in the back or side between the ribs and hips?",
        "answer": [ {
          "valueString": "yes"
        } ]
      } ]
    }
  }, {
    "fullUrl": "urn:uuid:00ae8546-4fd0-41a9-976d-427613d2ab44",
    "resource": {
      "resourceType": "Questionnaire",
      "id": "00ae8546-4fd0-41a9-976d-427613d2ab44",
      "identifier": [ {
        "value": "59132"
      } ],
      "version": "2021-04-06T11:33:34.963Z",
      "status": "active",
      "experimental": false,
      "date": "2021-04-06T11:33:34+00:00",
      "publisher": "User ID: 'MCDONALDD' User name: 'Denzle McDonald' User skill set: 'T3'",
      "lastReviewDate": "2021-04-06",
      "subjectType": [ "Patient" ],
      "item": [ {
        "linkId": "59132",
        "prefix": "14400",
        "text": "Have you got pain in the back or side between the ribs and hips?",
        "type": "choice",
        "required": true,
        "repeats": false,
        "option": [ {
          "valueString": "yes, Selected: true"
        }, {
          "valueString": "not sure, Selected: false"
        }, {
          "valueString": "no, Selected: false"
        } ]
      } ]
    }
  }, {
    "fullUrl": "urn:uuid:a5c843dc-b1f6-4759-9722-651ae2d1c485",
    "resource": {
      "resourceType": "QuestionnaireResponse",
      "id": "a5c843dc-b1f6-4759-9722-651ae2d1c485",
      "identifier": {
        "value": "59132"
      },
      "questionnaire": {
        "reference": "urn:uuid:741ff33f-72e8-4cfa-a591-795b5e2c9627"
      },
      "status": "completed",
      "subject": {
        "reference": "urn:uuid:f889bf46-5efc-45a6-a92a-22f70309d592"
      },
      "context": {
        "reference": "urn:uuid:b4244691-6cfe-4145-9570-d992594d8269"
      },
      "authored": "2021-04-06T11:33:34+00:00",
      "item": [ {
        "linkId": "Tx1122",
        "text": "Have you felt hot or feverish at any time in the last 12 hours?",
        "answer": [ {
          "valueString": "yes - temperature not taken"
        } ]
      } ]
    }
  }, {
    "fullUrl": "urn:uuid:741ff33f-72e8-4cfa-a591-795b5e2c9627",
    "resource": {
      "resourceType": "Questionnaire",
      "id": "741ff33f-72e8-4cfa-a591-795b5e2c9627",
      "identifier": [ {
        "value": "59132"
      } ],
      "version": "2021-04-06T11:33:34.963Z",
      "status": "active",
      "experimental": false,
      "date": "2021-04-06T11:33:34+00:00",
      "publisher": "User ID: 'MCDONALDD' User name: 'Denzle McDonald' User skill set: 'T3'",
      "lastReviewDate": "2021-04-06",
      "subjectType": [ "Patient" ],
      "item": [ {
        "linkId": "59132",
        "prefix": "14700",
        "text": "Have you felt hot or feverish at any time in the last 12 hours?",
        "type": "choice",
        "required": true,
        "repeats": false,
        "option": [ {
          "valueString": "yes - temperature not taken, Selected: true"
        }, {
          "valueString": "yes - temperature taken (specify), Selected: false"
        }, {
          "valueString": "not sure, Selected: false"
        }, {
          "valueString": "no, Selected: false"
        } ]
      } ]
    }
  }, {
    "fullUrl": "urn:uuid:3cd0df48-8c99-430e-86db-ae9d87abd146",
    "resource": {
      "resourceType": "QuestionnaireResponse",
      "id": "3cd0df48-8c99-430e-86db-ae9d87abd146",
      "identifier": {
        "value": "59132"
      },
      "questionnaire": {
        "reference": "urn:uuid:4e7754c7-c05d-47c4-97e9-7d98d7cc6053"
      },
      "status": "completed",
      "subject": {
        "reference": "urn:uuid:f889bf46-5efc-45a6-a92a-22f70309d592"
      },
      "context": {
        "reference": "urn:uuid:b4244691-6cfe-4145-9570-d992594d8269"
      },
      "authored": "2021-04-06T11:33:34+00:00",
      "item": [ {
        "linkId": "Tx1320",
        "text": "Have you got a new red rash all over, like sunburn?",
        "answer": [ {
          "valueString": "no"
        } ]
      } ]
    }
  }, {
    "fullUrl": "urn:uuid:4e7754c7-c05d-47c4-97e9-7d98d7cc6053",
    "resource": {
      "resourceType": "Questionnaire",
      "id": "4e7754c7-c05d-47c4-97e9-7d98d7cc6053",
      "identifier": [ {
        "value": "59132"
      } ],
      "version": "2021-04-06T11:33:34.963Z",
      "status": "active",
      "experimental": false,
      "date": "2021-04-06T11:33:34+00:00",
      "publisher": "User ID: 'MCDONALDD' User name: 'Denzle McDonald' User skill set: 'T3'",
      "lastReviewDate": "2021-04-06",
      "subjectType": [ "Patient" ],
      "item": [ {
        "linkId": "59132",
        "prefix": "14800",
        "text": "Have you got a new red rash all over, like sunburn?",
        "type": "choice",
        "required": true,
        "repeats": false,
        "option": [ {
          "valueString": "yes, Selected: false"
        }, {
          "valueString": "not sure, Selected: false"
        }, {
          "valueString": "no, Selected: true"
        } ]
      } ]
    }
  }, {
    "fullUrl": "urn:uuid:b453c0fa-f0a1-4525-b7f0-94306e5dfb50",
    "resource": {
      "resourceType": "QuestionnaireResponse",
      "id": "b453c0fa-f0a1-4525-b7f0-94306e5dfb50",
      "identifier": {
        "value": "59132"
      },
      "questionnaire": {
        "reference": "urn:uuid:fdfea76b-432b-45d8-933a-2040868fcc38"
      },
      "status": "completed",
      "subject": {
        "reference": "urn:uuid:f889bf46-5efc-45a6-a92a-22f70309d592"
      },
      "context": {
        "reference": "urn:uuid:b4244691-6cfe-4145-9570-d992594d8269"
      },
      "authored": "2021-04-06T11:33:34+00:00",
      "item": [ {
        "linkId": "Tx221449",
        "text": "STRING:SDPCFullPrimaryCareassessmentandprescribingcapability",
        "answer": [ {
          "valueString": "\"PC full Primary Care assessment and prescribing capability\""
        } ]
      } ]
    }
  }, {
    "fullUrl": "urn:uuid:fdfea76b-432b-45d8-933a-2040868fcc38",
    "resource": {
      "resourceType": "Questionnaire",
      "id": "fdfea76b-432b-45d8-933a-2040868fcc38",
      "identifier": [ {
        "value": "59132"
      } ],
      "version": "2021-04-06T11:33:34.963Z",
      "status": "active",
      "experimental": false,
      "date": "2021-04-06T11:33:34+00:00",
      "publisher": "User ID: 'MCDONALDD' User name: 'Denzle McDonald' User skill set: 'T3'",
      "lastReviewDate": "2021-04-06",
      "subjectType": [ "Patient" ],
      "item": [ {
        "linkId": "59132",
        "prefix": "14900",
        "text": "STRING:SDPCFullPrimaryCareassessmentandprescribingcapability",
        "type": "choice",
        "required": true,
        "repeats": false,
        "option": [ {
          "valueString": "\"PC full Primary Care assessment and prescribing capability\", Selected: true"
        } ]
      } ]
    }
  }, {
    "fullUrl": "urn:uuid:537f1133-5205-4152-9d50-bdf49cc0e620",
    "resource": {
      "resourceType": "QuestionnaireResponse",
      "id": "537f1133-5205-4152-9d50-bdf49cc0e620",
      "identifier": {
        "value": "59132"
      },
      "questionnaire": {
        "reference": "urn:uuid:c9cbedc7-079a-4fb9-ad66-ca9ac951795f"
      },
      "status": "completed",
      "subject": {
        "reference": "urn:uuid:f889bf46-5efc-45a6-a92a-22f70309d592"
      },
      "context": {
        "reference": "urn:uuid:b4244691-6cfe-4145-9570-d992594d8269"
      },
      "authored": "2021-04-06T11:33:34+00:00"
    }
  }, {
    "fullUrl": "urn:uuid:c9cbedc7-079a-4fb9-ad66-ca9ac951795f",
    "resource": {
      "resourceType": "Questionnaire",
      "id": "c9cbedc7-079a-4fb9-ad66-ca9ac951795f",
      "identifier": [ {
        "value": "59132"
      } ],
      "version": "2021-04-06T11:33:34.963Z",
      "status": "active",
      "experimental": false,
      "date": "2021-04-06T11:33:34+00:00",
      "publisher": "User ID: 'MCDONALDD' User name: 'Denzle McDonald' User skill set: 'T3'",
      "lastReviewDate": "2021-04-06",
      "subjectType": [ "Patient" ]
    }
  }, {
    "fullUrl": "urn:uuid:e8e5f119-5c7d-415c-8976-66218135142e",
    "resource": {
      "resourceType": "QuestionnaireResponse",
      "id": "e8e5f119-5c7d-415c-8976-66218135142e",
      "identifier": {
        "value": "59132"
      },
      "questionnaire": {
        "reference": "urn:uuid:26fd8b38-ecb1-4a96-a4f6-546cfe7ca510"
      },
      "status": "completed",
      "subject": {
        "reference": "urn:uuid:f889bf46-5efc-45a6-a92a-22f70309d592"
      },
      "context": {
        "reference": "urn:uuid:b4244691-6cfe-4145-9570-d992594d8269"
      },
      "authored": "2021-04-06T11:33:34+00:00"
    }
  }, {
    "fullUrl": "urn:uuid:26fd8b38-ecb1-4a96-a4f6-546cfe7ca510",
    "resource": {
      "resourceType": "Questionnaire",
      "id": "26fd8b38-ecb1-4a96-a4f6-546cfe7ca510",
      "identifier": [ {
        "value": "59132"
      } ],
      "version": "2021-04-06T11:33:34.963Z",
      "status": "active",
      "experimental": false,
      "date": "2021-04-06T11:33:34+00:00",
      "publisher": "User ID: 'MCDONALDD' User name: 'Denzle McDonald' User skill set: 'T3'",
      "lastReviewDate": "2021-04-06",
      "subjectType": [ "Patient" ]
    }
  }, {
    "fullUrl": "urn:uuid:186e00e2-b799-462e-aea8-a21e731e602f",
    "resource": {
      "resourceType": "QuestionnaireResponse",
      "id": "186e00e2-b799-462e-aea8-a21e731e602f",
      "identifier": {
        "value": "59132"
      },
      "questionnaire": {
        "reference": "urn:uuid:e9cac611-e270-4711-b688-b978c6756e89"
      },
      "status": "completed",
      "subject": {
        "reference": "urn:uuid:f889bf46-5efc-45a6-a92a-22f70309d592"
      },
      "context": {
        "reference": "urn:uuid:b4244691-6cfe-4145-9570-d992594d8269"
      },
      "authored": "2021-04-06T11:33:34+00:00"
    }
  }, {
    "fullUrl": "urn:uuid:e9cac611-e270-4711-b688-b978c6756e89",
    "resource": {
      "resourceType": "Questionnaire",
      "id": "e9cac611-e270-4711-b688-b978c6756e89",
      "identifier": [ {
        "value": "59132"
      } ],
      "version": "2021-04-06T11:33:34.963Z",
      "status": "active",
      "experimental": false,
      "date": "2021-04-06T11:33:34+00:00",
      "publisher": "User ID: 'MCDONALDD' User name: 'Denzle McDonald' User skill set: 'T3'",
      "lastReviewDate": "2021-04-06",
      "subjectType": [ "Patient" ]
    }
  }, {
    "fullUrl": "urn:uuid:0b9ae822-541d-4c94-b936-4316be0269f4",
    "resource": {
      "resourceType": "QuestionnaireResponse",
      "id": "0b9ae822-541d-4c94-b936-4316be0269f4",
      "identifier": {
        "value": "59132"
      },
      "questionnaire": {
        "reference": "urn:uuid:f2c9b9b1-e6c8-4e81-910c-1952a4fcceae"
      },
      "status": "completed",
      "subject": {
        "reference": "urn:uuid:f889bf46-5efc-45a6-a92a-22f70309d592"
      },
      "context": {
        "reference": "urn:uuid:b4244691-6cfe-4145-9570-d992594d8269"
      },
      "authored": "2021-04-06T11:33:34+00:00"
    }
  }, {
    "fullUrl": "urn:uuid:f2c9b9b1-e6c8-4e81-910c-1952a4fcceae",
    "resource": {
      "resourceType": "Questionnaire",
      "id": "f2c9b9b1-e6c8-4e81-910c-1952a4fcceae",
      "identifier": [ {
        "value": "59132"
      } ],
      "version": "2021-04-06T11:33:34.963Z",
      "status": "active",
      "experimental": false,
      "date": "2021-04-06T11:33:34+00:00",
      "publisher": "User ID: 'MCDONALDD' User name: 'Denzle McDonald' User skill set: 'T3'",
      "lastReviewDate": "2021-04-06",
      "subjectType": [ "Patient" ]
    }
  }, {
    "fullUrl": "urn:uuid:1487179e-ced2-40f4-803c-6a2387588241",
    "resource": {
      "resourceType": "QuestionnaireResponse",
      "id": "1487179e-ced2-40f4-803c-6a2387588241",
      "identifier": {
        "value": "59132"
      },
      "questionnaire": {
        "reference": "urn:uuid:5612f237-0274-4fed-88cc-6fec87b9099a"
      },
      "status": "completed",
      "subject": {
        "reference": "urn:uuid:f889bf46-5efc-45a6-a92a-22f70309d592"
      },
      "context": {
        "reference": "urn:uuid:b4244691-6cfe-4145-9570-d992594d8269"
      },
      "authored": "2021-04-06T11:33:34+00:00"
    }
  }, {
    "fullUrl": "urn:uuid:5612f237-0274-4fed-88cc-6fec87b9099a",
    "resource": {
      "resourceType": "Questionnaire",
      "id": "5612f237-0274-4fed-88cc-6fec87b9099a",
      "identifier": [ {
        "value": "59132"
      } ],
      "version": "2021-04-06T11:33:34.963Z",
      "status": "active",
      "experimental": false,
      "date": "2021-04-06T11:33:34+00:00",
      "publisher": "User ID: 'MCDONALDD' User name: 'Denzle McDonald' User skill set: 'T3'",
      "lastReviewDate": "2021-04-06",
      "subjectType": [ "Patient" ]
    }
  }, {
    "fullUrl": "urn:uuid:402b450a-e4ef-4601-bf93-0daa08b34bc4",
    "resource": {
      "resourceType": "Observation",
      "id": "402b450a-e4ef-4601-bf93-0daa08b34bc4",
      "status": "final",
      "code": {
        "coding": [ {
          "system": "http://snomed.info/sct",
          "code": "33962009",
          "display": "Presenting complaint"
        } ]
      },
      "subject": {
        "reference": "urn:uuid:f889bf46-5efc-45a6-a92a-22f70309d592"
      },
      "context": {
        "reference": "urn:uuid:b4244691-6cfe-4145-9570-d992594d8269"
      },
      "valueString": "Pharmacy ITK Testing"
    }
  }, {
    "fullUrl": "urn:uuid:870ad55a-88d7-4b13-95ae-88b708088fb3",
    "resource": {
      "resourceType": "PractitionerRole",
      "id": "870ad55a-88d7-4b13-95ae-88b708088fb3",
      "practitioner": {
        "reference": "urn:uuid:c95e0b29-bfd2-4a36-9430-24b20f288f21"
      },
      "organization": {
        "reference": "urn:uuid:d794e53c-85e7-435b-bd96-a74eb3519a78"
      },
      "code": [ {
        "coding": [ {
          "system": "2.16.840.1.113883.2.1.3.2.4.17.339",
          "code": "DOCTOR",
          "display": "Doctor"
        } ]
      } ]
    }
  }, {
    "fullUrl": "urn:uuid:d794e53c-85e7-435b-bd96-a74eb3519a78",
    "resource": {
      "resourceType": "Organization",
      "id": "d794e53c-85e7-435b-bd96-a74eb3519a78",
      "identifier": [ {
        "value": "RYE"
      } ],
      "name": "1.SCAS Administrator (SCAS111)"
    }
  }, {
    "fullUrl": "urn:uuid:416b8a7d-9cf1-447e-8b5a-1e11b16001b4",
    "resource": {
      "resourceType": "PractitionerRole",
      "id": "416b8a7d-9cf1-447e-8b5a-1e11b16001b4",
      "practitioner": {
        "reference": "urn:uuid:80e92d4b-b6d7-4def-8cb5-56a0ee107e35"
      },
      "organization": {
        "reference": "urn:uuid:32913ba9-918c-437e-86f2-94de214c4287"
      },
      "code": [ {
        "coding": [ {
          "system": "2.16.840.1.113883.2.1.3.2.4.17.196",
          "code": "R0010",
          "display": "Medical Director"
        } ]
      } ]
    }
  }, {
    "fullUrl": "urn:uuid:32913ba9-918c-437e-86f2-94de214c4287",
    "resource": {
      "resourceType": "Organization",
      "id": "32913ba9-918c-437e-86f2-94de214c4287",
      "identifier": [ {
        "value": "RYE"
      } ],
      "name": "SCAS111"
    }
  }, {
    "fullUrl": "urn:uuid:9dfb3286-48fb-4903-91a5-a6b283e7a4fd",
    "resource": {
      "resourceType": "RelatedPerson",
      "id": "9dfb3286-48fb-4903-91a5-a6b283e7a4fd",
      "patient": {
        "reference": "urn:uuid:f889bf46-5efc-45a6-a92a-22f70309d592"
      },
      "relationship": {
        "coding": [ {
          "system": "http://hl7.org/fhir/v2/0131",
          "code": "C",
          "display": "Emergency Contact"
        } ]
      },
      "telecom": [ {
        "system": "phone",
        "value": "tel:07948625625"
      } ]
    }
  }, {
    "fullUrl": "urn:uuid:393356ef-5c81-433d-a9bf-a37830324208",
    "resource": {
      "resourceType": "Device",
      "id": "393356ef-5c81-433d-a9bf-a37830324208",
      "model": "111 Adaptor",
      "version": "1.0.1"
    }
  }, {
    "fullUrl": "urn:uuid:71af796f-921e-4d9d-8953-ad4a199710fd",
    "resource": {
      "resourceType": "List",
      "id": "71af796f-921e-4d9d-8953-ad4a199710fd",
      "status": "current",
      "mode": "working",
      "title": "111 Report List",
      "code": {
        "coding": [ {
          "system": "http://snomed.info/sct",
          "code": "225390008",
          "display": "Triage"
        } ]
      },
      "subject": {
        "reference": "urn:uuid:f889bf46-5efc-45a6-a92a-22f70309d592"
      },
      "encounter": {
        "reference": "urn:uuid:b4244691-6cfe-4145-9570-d992594d8269"
      },
      "date": "2021-04-06T11:33:35+00:00",
      "source": {
        "reference": "urn:uuid:393356ef-5c81-433d-a9bf-a37830324208"
      },
      "orderedBy": {
        "coding": [ {
          "system": "http://hl7.org/fhir/list-order",
          "code": "event-date",
          "display": "Sorted by Event Date"
        } ]
      },
      "entry": [ {
        "item": {
          "reference": "urn:uuid:87e261e6-ff52-4e69-80aa-3bc36d1da29a"
        }
      }, {
        "item": {
          "reference": "urn:uuid:d794e53c-85e7-435b-bd96-a74eb3519a78"
        }
      }, {
        "item": {
          "reference": "urn:uuid:402b450a-e4ef-4601-bf93-0daa08b34bc4"
        }
      }, {
        "item": {
          "reference": "urn:uuid:341f8142-d2f2-4129-a8de-880d14b448fd"
        }
      }, {
        "item": {
          "reference": "urn:uuid:80e92d4b-b6d7-4def-8cb5-56a0ee107e35"
        }
      }, {
        "item": {
          "reference": "urn:uuid:9dfb3286-48fb-4903-91a5-a6b283e7a4fd"
        }
      }, {
        "item": {
          "reference": "urn:uuid:85350535-1fff-4dc5-8058-9cd669883d5b"
        }
      }, {
        "item": {
          "reference": "urn:uuid:c95e0b29-bfd2-4a36-9430-24b20f288f21"
        }
      }, {
        "item": {
          "reference": "urn:uuid:9125dc4c-8098-4355-911b-c6f1f0c14279"
        }
      }, {
        "item": {
          "reference": "urn:uuid:5feb259d-756d-48da-967e-ee39b9911a2b"
        }
      }, {
        "item": {
          "reference": "urn:uuid:32913ba9-918c-437e-86f2-94de214c4287"
        }
      }, {
        "item": {
          "reference": "urn:uuid:1a2ea4ce-cff6-4bd1-b948-a39416c6568b"
        }
      }, {
        "item": {
          "reference": "urn:uuid:29079c90-2473-4087-bd89-3a9dbcb5d9d1"
        }
      }, {
        "item": {
          "reference": "urn:uuid:291816c1-e2ad-46ff-a84f-07d832a9b871"
        }
      }, {
        "item": {
          "reference": "urn:uuid:e35f3eb6-450a-451a-b857-b59897ac3d5b"
        }
      }, {
        "item": {
          "reference": "urn:uuid:5239d1b4-8c78-430f-b837-3721d39b30a8"
        }
      }, {
        "item": {
          "reference": "urn:uuid:4e551586-e2c9-4e9e-bd9e-b9a55364c0bc"
        }
      }, {
        "item": {
          "reference": "urn:uuid:659ed256-1261-4548-ad37-57a57df6f1c3"
        }
      }, {
        "item": {
          "reference": "urn:uuid:e8e5f119-5c7d-415c-8976-66218135142e"
        }
      }, {
        "item": {
          "reference": "urn:uuid:4e7754c7-c05d-47c4-97e9-7d98d7cc6053"
        }
      }, {
        "item": {
          "reference": "urn:uuid:cb5628ab-8ad4-4e87-96c2-1cc73482568a"
        }
      }, {
        "item": {
          "reference": "urn:uuid:00decfb6-6edc-480f-abe2-0dc68029059d"
        }
      }, {
        "item": {
          "reference": "urn:uuid:62e42976-c4ad-47c9-bcbc-a2a639fa84e2"
        }
      }, {
        "item": {
          "reference": "urn:uuid:52ca5a3e-a780-4660-81b5-51b21fece5aa"
        }
      }, {
        "item": {
          "reference": "urn:uuid:93bafbf3-9678-46f7-9be0-4b20d542c6fe"
        }
      }, {
        "item": {
          "reference": "urn:uuid:1020664f-e320-4b3e-95c5-bda2c39fecf3"
        }
      }, {
        "item": {
          "reference": "urn:uuid:9262fa45-2064-40ee-8d8d-cf6e39210f70"
        }
      }, {
        "item": {
          "reference": "urn:uuid:7720d584-aa34-4c1b-896f-b3c337ce9472"
        }
      }, {
        "item": {
          "reference": "urn:uuid:843eada4-de7b-4894-94b1-6831c89e5da2"
        }
      }, {
        "item": {
          "reference": "urn:uuid:8f0986fc-f241-4b1e-92dc-821fc5367a7c"
        }
      }, {
        "item": {
          "reference": "urn:uuid:8b1d1364-f453-41a0-9263-a97a1c87440c"
        }
      }, {
        "item": {
          "reference": "urn:uuid:f2c9b9b1-e6c8-4e81-910c-1952a4fcceae"
        }
      }, {
        "item": {
          "reference": "urn:uuid:6ed5a14a-f432-4140-bd47-30e31155a0c1"
        }
      }, {
        "item": {
          "reference": "urn:uuid:3a9d68b9-4985-48c8-866b-118601625ceb"
        }
      }, {
        "item": {
          "reference": "urn:uuid:bb579243-fefa-4375-b916-3fc6b60bd498"
        }
      }, {
        "item": {
          "reference": "urn:uuid:3c73527f-b7fa-4583-b00e-f003d7600aee"
        }
      }, {
        "item": {
          "reference": "urn:uuid:cabfb3fc-a3dd-4fdc-b3f3-3a09d0645d59"
        }
      }, {
        "item": {
          "reference": "urn:uuid:aa68b285-246e-4f19-bd12-f3b7999fcb6f"
        }
      }, {
        "item": {
          "reference": "urn:uuid:ed1c9ac9-0b1c-4158-803b-ab367dc6bc2a"
        }
      }, {
        "item": {
          "reference": "urn:uuid:b453c0fa-f0a1-4525-b7f0-94306e5dfb50"
        }
      }, {
        "item": {
          "reference": "urn:uuid:759a7e78-5ce0-4f09-b3ec-1f49d289398f"
        }
      }, {
        "item": {
          "reference": "urn:uuid:1649771d-57f8-4d98-b020-919aaa2539c5"
        }
      }, {
        "item": {
          "reference": "urn:uuid:4635981e-5529-4ffc-8093-890c22f50a31"
        }
      }, {
        "item": {
          "reference": "urn:uuid:62c3ee1e-98b0-4b0b-9c1c-ef9dc9b77a36"
        }
      }, {
        "item": {
          "reference": "urn:uuid:680fa994-170b-44a0-8faf-95ba610a72a4"
        }
      }, {
        "item": {
          "reference": "urn:uuid:ac42ce74-5745-4596-8153-1fdeb5f36b8b"
        }
      }, {
        "item": {
          "reference": "urn:uuid:0b9ae822-541d-4c94-b936-4316be0269f4"
        }
      }, {
        "item": {
          "reference": "urn:uuid:fbb66739-04fe-4d33-8027-cd3460be333a"
        }
      }, {
        "item": {
          "reference": "urn:uuid:fb5620ac-5cd5-4c7b-8aec-c4674aec0c0a"
        }
      }, {
        "item": {
          "reference": "urn:uuid:bdb35572-0555-4620-bb8f-3b5c550df432"
        }
      }, {
        "item": {
          "reference": "urn:uuid:a7b4be60-edb0-41fe-b9b1-643f01b8276f"
        }
      }, {
        "item": {
          "reference": "urn:uuid:90db8594-6159-475b-a988-79a4c12760ba"
        }
      }, {
        "item": {
          "reference": "urn:uuid:537f1133-5205-4152-9d50-bdf49cc0e620"
        }
      }, {
        "item": {
          "reference": "urn:uuid:30ba725b-4adb-4e93-9552-c0eae9b5a74d"
        }
      }, {
        "item": {
          "reference": "urn:uuid:1ea0bdb8-016f-41ff-97d9-7d51eb27dffb"
        }
      }, {
        "item": {
          "reference": "urn:uuid:dacbca47-5d06-4e5d-bb4f-47a3da3698dd"
        }
      }, {
        "item": {
          "reference": "urn:uuid:3f9e2eda-4ae8-4638-94f4-6f5de43c64a5"
        }
      }, {
        "item": {
          "reference": "urn:uuid:f1205dab-127d-48e1-96ab-49495507f34a"
        }
      }, {
        "item": {
          "reference": "urn:uuid:86ab54b4-3b60-4820-b1e8-8395522d8074"
        }
      }, {
        "item": {
          "reference": "urn:uuid:1487179e-ced2-40f4-803c-6a2387588241"
        }
      }, {
        "item": {
          "reference": "urn:uuid:5cebf2b9-8810-422e-93b8-153524b10a65"
        }
      }, {
        "item": {
          "reference": "urn:uuid:00df2388-f01e-4cb3-8802-f28eb0b54cc0"
        }
      }, {
        "item": {
          "reference": "urn:uuid:adb59401-17f6-49ed-9aa8-a7849b25ee9e"
        }
      }, {
        "item": {
          "reference": "urn:uuid:01c1e972-9147-4de0-aa18-b7a7c29543c2"
        }
      }, {
        "item": {
          "reference": "urn:uuid:036714be-592f-4460-9865-7deccb9dd5cc"
        }
      }, {
        "item": {
          "reference": "urn:uuid:1322ea91-d59c-447e-8379-68f8828eacf1"
        }
      }, {
        "item": {
          "reference": "urn:uuid:fd362ab8-6b91-4af2-b828-2572d93ab20f"
        }
      }, {
        "item": {
          "reference": "urn:uuid:00ae8546-4fd0-41a9-976d-427613d2ab44"
        }
      }, {
        "item": {
          "reference": "urn:uuid:03d179ac-280d-4513-8d45-9813fb75081a"
        }
      }, {
        "item": {
          "reference": "urn:uuid:0d3c17ba-2879-4726-b649-8bae1d2921bc"
        }
      }, {
        "item": {
          "reference": "urn:uuid:68782442-9abe-4aac-ade0-62a86dec945c"
        }
      }, {
        "item": {
          "reference": "urn:uuid:e8b13f26-2e34-4101-8116-bb2091b4426c"
        }
      }, {
        "item": {
          "reference": "urn:uuid:0e9520f0-d929-4c2c-9f7c-31fc2ba60773"
        }
      }, {
        "item": {
          "reference": "urn:uuid:13aa5a13-4a15-4efe-8abb-a341488721ad"
        }
      }, {
        "item": {
          "reference": "urn:uuid:915a6c26-d5fe-4c06-948a-22febce62655"
        }
      }, {
        "item": {
          "reference": "urn:uuid:cba4507b-147d-4d7d-9557-8af30841eca6"
        }
      }, {
        "item": {
          "reference": "urn:uuid:8a4de939-7b82-4742-bea0-cac33190d84f"
        }
      }, {
        "item": {
          "reference": "urn:uuid:9a8e2334-357d-4a1f-ae49-d64cf81c6194"
        }
      }, {
        "item": {
          "reference": "urn:uuid:7f080088-92fa-45e9-8993-43392e07d2ef"
        }
      }, {
        "item": {
          "reference": "urn:uuid:2f495d91-1ab2-4fd5-9170-bcb8d368f69a"
        }
      }, {
        "item": {
          "reference": "urn:uuid:50102bae-ea82-478e-899f-6a17e2493f08"
        }
      }, {
        "item": {
          "reference": "urn:uuid:78db7ccf-e6d5-4698-af8e-cc72c249418b"
        }
      }, {
        "item": {
          "reference": "urn:uuid:f51bd7c0-bfb8-4f45-a47c-94eef25e0e3a"
        }
      }, {
        "item": {
          "reference": "urn:uuid:1536b2b4-7ce0-4cfb-bd88-a6ce7581e06f"
        }
      }, {
        "item": {
          "reference": "urn:uuid:7decd45c-5b0c-4dc9-a99d-7fcccaf1f00c"
        }
      }, {
        "item": {
          "reference": "urn:uuid:171875ea-07f3-42d1-99f1-b682d91515ca"
        }
      }, {
        "item": {
          "reference": "urn:uuid:186e00e2-b799-462e-aea8-a21e731e602f"
        }
      }, {
        "item": {
          "reference": "urn:uuid:7d97a30c-fa9d-4f5e-b126-e0c1c5f0395e"
        }
      }, {
        "item": {
          "reference": "urn:uuid:c9cbedc7-079a-4fb9-ad66-ca9ac951795f"
        }
      }, {
        "item": {
          "reference": "urn:uuid:6f5a3c34-7c34-4ae4-b82e-a19a5ac9d2b2"
        }
      }, {
        "item": {
          "reference": "urn:uuid:0aca7016-a409-4b08-8a23-295336c048e5"
        }
      }, {
        "item": {
          "reference": "urn:uuid:695b0fcc-1ad6-4746-b191-62364d1e33df"
        }
      }, {
        "item": {
          "reference": "urn:uuid:ef890802-a266-4b37-a618-811d27123f08"
        }
      }, {
        "item": {
          "reference": "urn:uuid:26fd8b38-ecb1-4a96-a4f6-546cfe7ca510"
        }
      }, {
        "item": {
          "reference": "urn:uuid:80b5e4ef-7b11-4746-a17d-52261679f676"
        }
      }, {
        "item": {
          "reference": "urn:uuid:7665da7b-4bdf-4097-a57c-8bab684e19f0"
        }
      }, {
        "item": {
          "reference": "urn:uuid:5a008ef8-1b86-49b7-a297-a19441253b06"
        }
      }, {
        "item": {
          "reference": "urn:uuid:fdfea76b-432b-45d8-933a-2040868fcc38"
        }
      }, {
        "item": {
          "reference": "urn:uuid:52a90dbd-e104-458e-b4fd-0d8b9ebff389"
        }
      }, {
        "item": {
          "reference": "urn:uuid:35dbdafd-7b01-4e30-931e-23a26872abdc"
        }
      }, {
        "item": {
          "reference": "urn:uuid:f8e7ad6f-dcf5-4435-b8d9-ae52c348223f"
        }
      }, {
        "item": {
          "reference": "urn:uuid:eb0f936b-252f-4c76-aa3a-089535c37ad6"
        }
      }, {
        "item": {
          "reference": "urn:uuid:3b9bf26d-b403-42b8-bdc6-bc7e170f96fb"
        }
      }, {
        "item": {
          "reference": "urn:uuid:1336fe86-8d61-4ebe-aede-666db1bad89d"
        }
      }, {
        "item": {
          "reference": "urn:uuid:fd12be06-9e6e-4c47-a61a-3d85ed8d4515"
        }
      }, {
        "item": {
          "reference": "urn:uuid:a5c843dc-b1f6-4759-9722-651ae2d1c485"
        }
      }, {
        "item": {
          "reference": "urn:uuid:4733c96c-5d3d-4654-a0d0-fb606182b850"
        }
      }, {
        "item": {
          "reference": "urn:uuid:226feddf-0450-46a1-9584-c807aecc67cc"
        }
      }, {
        "item": {
          "reference": "urn:uuid:11e5a67e-e317-4134-982c-11f9fc0b963a"
        }
      }, {
        "item": {
          "reference": "urn:uuid:cd33fc5d-0edb-4909-a2e7-e4ab4658945c"
        }
      }, {
        "item": {
          "reference": "urn:uuid:75973ee1-0ca0-4c87-85cb-2cf6e6756121"
        }
      }, {
        "item": {
          "reference": "urn:uuid:77526291-f629-421a-ba26-e5a3a01873cb"
        }
      }, {
        "item": {
          "reference": "urn:uuid:07a9862d-3501-496a-a5d8-fa6880356bf4"
        }
      }, {
        "item": {
          "reference": "urn:uuid:b46fff30-41bd-450c-b148-4a1877e3fc53"
        }
      }, {
        "item": {
          "reference": "urn:uuid:1270985c-bdde-48fb-a1ca-f1469861647e"
        }
      }, {
        "item": {
          "reference": "urn:uuid:5612f237-0274-4fed-88cc-6fec87b9099a"
        }
      }, {
        "item": {
          "reference": "urn:uuid:4bb0983b-f927-4d53-930e-b6b468155380"
        }
      }, {
        "item": {
          "reference": "urn:uuid:baafb752-c57c-445d-85ab-69d30c62537c"
        }
      }, {
        "item": {
          "reference": "urn:uuid:b1b8ae12-81fe-4c8c-be73-a84226145eb5"
        }
      }, {
        "item": {
          "reference": "urn:uuid:300ee70f-d8e9-4045-9d4d-6556bcf79278"
        }
      }, {
        "item": {
          "reference": "urn:uuid:50d8ea80-2df0-424b-a853-5a496d764c02"
        }
      }, {
        "item": {
          "reference": "urn:uuid:9cdef870-a817-4645-b241-078c44d1f081"
        }
      }, {
        "item": {
          "reference": "urn:uuid:741ff33f-72e8-4cfa-a591-795b5e2c9627"
        }
      }, {
        "item": {
          "reference": "urn:uuid:976d2e6f-cf24-4d8a-bb7f-9780aa4d676c"
        }
      }, {
        "item": {
          "reference": "urn:uuid:b354d5ee-21c0-480d-9a04-ac21905207cd"
        }
      }, {
        "item": {
          "reference": "urn:uuid:0923c307-101c-4d19-bbd5-c8fb0d119366"
        }
      }, {
        "item": {
          "reference": "urn:uuid:16173c3a-aecb-48e5-a60c-432f784e2b7a"
        }
      }, {
        "item": {
          "reference": "urn:uuid:c35c22ce-f33e-4edd-8020-089ce03cd092"
        }
      }, {
        "item": {
          "reference": "urn:uuid:13866981-aaf4-43bc-a921-3a53eb490cd6"
        }
      }, {
        "item": {
          "reference": "urn:uuid:faec67b8-35c8-4f72-9e2d-86fecd5fbadf"
        }
      }, {
        "item": {
          "reference": "urn:uuid:50339810-8c57-4838-b753-8c86361b55ae"
        }
      }, {
        "item": {
          "reference": "urn:uuid:e184b5f0-100d-4d37-ada8-8442df0e8055"
        }
      }, {
        "item": {
          "reference": "urn:uuid:7a282efd-5be6-4deb-9192-d57faee0b9b7"
        }
      }, {
        "item": {
          "reference": "urn:uuid:c897842e-bee3-4412-9079-c998adabb60a"
        }
      }, {
        "item": {
          "reference": "urn:uuid:f2e91c13-8c3b-41b0-9628-386f0966ab9a"
        }
      }, {
        "item": {
          "reference": "urn:uuid:c881db8c-a074-470e-b121-4fbce602349b"
        }
      }, {
        "item": {
          "reference": "urn:uuid:d78939c7-4cff-4701-b1fd-509dbc0dc2ff"
        }
      }, {
        "item": {
          "reference": "urn:uuid:7cba9cbb-6ce1-4c09-b373-258963912f6e"
        }
      }, {
        "item": {
          "reference": "urn:uuid:3d43a84f-8d6d-476f-9533-fc5e7b5961f9"
        }
      }, {
        "item": {
          "reference": "urn:uuid:e9cac611-e270-4711-b688-b978c6756e89"
        }
      }, {
        "item": {
          "reference": "urn:uuid:9edccdd6-c66b-4450-a19d-1e2caf34700c"
        }
      }, {
        "item": {
          "reference": "urn:uuid:60fc236c-196e-49a7-a5eb-57a4bbf7cba6"
        }
      }, {
        "item": {
          "reference": "urn:uuid:c878fc57-3b53-4d1d-a811-d2b9c853b3c8"
        }
      }, {
        "item": {
          "reference": "urn:uuid:fa925056-c3d6-4895-80cd-8bf9588369ef"
        }
      }, {
        "item": {
          "reference": "urn:uuid:7a4b07fd-b7a6-4313-828a-53b5d007c083"
        }
      }, {
        "item": {
          "reference": "urn:uuid:3b880029-10bf-4e6c-8557-f819558fcadb"
        }
      }, {
        "item": {
          "reference": "urn:uuid:6fb3d329-1590-4923-a2fa-d85bedc31a1d"
        }
      }, {
        "item": {
          "reference": "urn:uuid:3cd0df48-8c99-430e-86db-ae9d87abd146"
        }
      }, {
        "item": {
          "reference": "urn:uuid:14772b34-1bff-4c26-8d80-b9b17c002efa"
        }
      }, {
        "item": {
          "reference": "urn:uuid:e9584de4-3ca2-4143-89ec-2ad7eb017fce"
        }
      }, {
        "item": {
          "reference": "urn:uuid:e5f10d05-9e38-4073-9ab4-ee1c99ec2df0"
        }
      }, {
        "item": {
          "reference": "urn:uuid:6d890a31-6419-476e-b3a7-39dcdd1abbc2"
        }
      }, {
        "item": {
          "reference": "urn:uuid:08985f75-3895-46ec-8f85-0721fa4f9c90"
        }
      }, {
        "item": {
          "reference": "urn:uuid:241b611b-0601-4180-b5df-ea10e5a2ac86"
        }
      }, {
        "item": {
          "reference": "urn:uuid:24d7e6f1-aa20-48a5-add2-5d44c79f16ab"
        }
      }, {
        "item": {
          "reference": "urn:uuid:1c16d4b7-89a8-41e7-aa32-72f9ac7c0914"
        }
      }, {
        "item": {
          "reference": "urn:uuid:7ef3fae2-499e-481b-bff3-19d670836856"
        }
      }, {
        "item": {
          "reference": "urn:uuid:683a4d4f-49a6-4869-b2a1-34f52b988e1c"
        }
      } ]
    }
  } ]
}