{
  "resourceType": "Bundle",
  "identifier": {
    "type": {
      "text": "ClinicalDocument VersionNumber"
    },
    "value": "1"
  },
  "type": "message",
  "entry": [ {
    "fullUrl": "urn:uuid:7AEFFED7-78AF-4940-9EE2-5FAA3920ECFE",
    "resource": {
      "resourceType": "MessageHeader",
      "id": "7AEFFED7-78AF-4940-9EE2-5FAA3920ECFE",
      "event": {
        "system": "https://fhir.nhs.uk/STU3/CodeSystem/EventType-1",
        "code": "referral-1",
        "display": "Referral"
      },
      "destination": [ {
        "endpoint": "urn:nhs-uk:addressing:ods:RSHSO14A:DOSServiceID:2000006423"
      } ],
      "timestamp": "2021-04-06T11:33:35.000+00:00",
      "source": {
        "name": "NHS 111 Adaptor",
        "endpoint": "http://localhost:8080/report"
      },
      "reason": {
        "coding": [ {
          "system": "urn:nhs-itk:ns:201005:interaction",
          "code": "urn:nhs-itk:interaction:primaryEmergencyDepartmentRecipientNHS111CDADocument-v2-0"
        } ]
      }
    }
  }, {
    "fullUrl": "urn:uuid:9a080412-3b06-495b-98b1-a28049364f9d",
    "resource": {
      "resourceType": "Encounter",
      "id": "9a080412-3b06-495b-98b1-a28049364f9d",
      "identifier": [ {
        "system": "2.16.840.1.113883.2.1.3.2.4.18.34",
        "value": "029EE79C-BBD3-478A-93EE-979CB300212E"
      }, {
        "system": "2.16.840.1.113883.2.1.3.2.4.18.35",
        "value": "59132"
      }, {
        "system": "2.16.840.1.113883.2.1.3.2.4.18.49",
        "value": "029EE79C-BBD3-478A-93EE-979CB300212E"
      } ],
      "status": "finished",
      "type": [ {
        "text": "111 Encounter Referral"
      } ],
      "subject": {
        "reference": "urn:uuid:729c5618-817e-4b25-a5d0-0959360167eb"
      },
      "participant": [ {
        "type": [ {
          "coding": [ {
            "system": "http://hl7.org/fhir/ValueSet/encounter-participant-type",
            "code": "PPRF",
            "display": "Author"
          } ]
        } ],
        "individual": {
          "reference": "urn:uuid:38df0ac6-2bbd-46d2-aeef-78f4c4ac4712"
        }
      }, {
        "type": [ {
          "coding": [ {
            "system": "http://hl7.org/fhir/ValueSet/encounter-participant-type",
            "code": "ATND",
            "display": "Responsible Party"
          } ]
        } ],
        "individual": {
          "reference": "urn:uuid:563af1c9-3d19-4052-9d99-6f87df8c17ca"
        }
      } ],
      "period": {
        "start": "2021-04-06T11:33:35+00:00"
      },
      "location": [ {
        "location": {
          "reference": "urn:uuid:a826ee8f-1017-4c4d-87b5-25d02164c820"
        },
        "status": "active"
      }, {
        "location": {
          "reference": "urn:uuid:b315d9a7-05ee-4e85-beb1-560b840ce13d"
        },
        "status": "completed"
      } ],
      "serviceProvider": {
        "reference": "urn:uuid:3ab157dd-66d8-4bec-aaa5-5d6d4af52aa9"
      }
    }
  }, {
    "fullUrl": "urn:uuid:3ab157dd-66d8-4bec-aaa5-5d6d4af52aa9",
    "resource": {
      "resourceType": "Organization",
      "id": "3ab157dd-66d8-4bec-aaa5-5d6d4af52aa9",
      "active": true,
      "type": [ {
        "text": "CST"
      } ],
      "name": "SCAS111"
    }
  }, {
    "fullUrl": "urn:uuid:38df0ac6-2bbd-46d2-aeef-78f4c4ac4712",
    "resource": {
      "resourceType": "Practitioner",
      "id": "38df0ac6-2bbd-46d2-aeef-78f4c4ac4712",
      "active": true,
      "name": [ {
        "use": "official",
        "family": "McDonald",
        "given": [ "Denzle" ]
      } ]
    }
  }, {
    "fullUrl": "urn:uuid:563af1c9-3d19-4052-9d99-6f87df8c17ca",
    "resource": {
      "resourceType": "Practitioner",
      "id": "563af1c9-3d19-4052-9d99-6f87df8c17ca",
      "active": true,
      "name": [ {
        "use": "official",
        "family": "Black",
        "given": [ "John" ]
      } ]
    }
  }, {
    "fullUrl": "urn:uuid:a826ee8f-1017-4c4d-87b5-25d02164c820",
    "resource": {
      "resourceType": "Location",
      "id": "a826ee8f-1017-4c4d-87b5-25d02164c820",
      "managingOrganization": {
        "reference": "urn:uuid:58496a3d-8373-43bd-b227-10b419baffc3"
      }
    }
  }, {
    "fullUrl": "urn:uuid:58496a3d-8373-43bd-b227-10b419baffc3",
    "resource": {
      "resourceType": "Organization",
      "id": "58496a3d-8373-43bd-b227-10b419baffc3",
      "identifier": [ {
        "value": "J82633"
      } ],
      "type": [ {
        "text": "GP Practice"
      } ],
      "name": "The Riverside Partnership ( Riverside Kelsey)",
      "telecom": [ {
        "system": "phone",
        "value": "tel:01730892412",
        "use": "work"
      } ],
      "address": [ {
        "use": "work",
        "line": [ "Riverside Kelsey Surgery", "75 Station Road", "Liss", "Hampshire" ],
        "postalCode": "GU33 7AD"
      } ]
    }
  }, {
    "fullUrl": "urn:uuid:b315d9a7-05ee-4e85-beb1-560b840ce13d",
    "resource": {
      "resourceType": "Location",
      "id": "b315d9a7-05ee-4e85-beb1-560b840ce13d",
      "name": "Incident Location",
      "address": {
        "type": "physical",
        "line": [ "Hampshire Partnership NHS Trust", "Tatchbury Mount Hospital Horseshoe Drive", "Calmore", "Southampton", "Hampshire" ],
        "postalCode": "SO40 2RZ"
      }
    }
  }, {
    "fullUrl": "urn:uuid:729c5618-817e-4b25-a5d0-0959360167eb",
    "resource": {
      "resourceType": "Patient",
      "id": "729c5618-817e-4b25-a5d0-0959360167eb",
      "identifier": [ {
        "extension": [ {
          "url": "https://fhir.hl7.org.uk/STU3/StructureDefinition/Extension-CareConnect-NHSNumberVerificationStatus-1",
          "valueCodeableConcept": {
            "coding": [ {
              "system": "https://fhir.hl7.org.uk/STU3/StructureDefinition/Extension-CareConnect-NHSNumberVerificationStatus-1",
              "code": "01"
            } ]
          }
        } ],
        "system": "https://fhir.nhs.uk/Id/nhs-number",
        "value": "9990004951"
      } ],
      "active": true,
      "name": [ {
        "use": "official",
        "family": "Xxtestpatientdfae",
        "given": [ "Btl-Donotuse" ]
      } ],
      "telecom": [ {
        "system": "phone",
        "value": "tel:07948625625",
        "use": "home"
      }, {
        "system": "phone",
        "value": "tel:07948625625"
      } ],
      "gender": "female",
      "birthDate": "2015-04-01",
      "address": [ {
        "use": "home",
        "line": [ "Hampshire Partnership NHS Trust", "Tatchbury Mount Hospital Horseshoe Drive", "Calmore", "Southampton", "Hampshire" ],
        "postalCode": "SO40 2RZ"
      } ],
      "generalPractitioner": [ {
        "reference": "urn:uuid:e258f2f0-0fc5-4531-8733-04c8d4b2f2a7"
      } ]
    }
  }, {
    "fullUrl": "urn:uuid:e258f2f0-0fc5-4531-8733-04c8d4b2f2a7",
    "resource": {
      "resourceType": "Organization",
      "id": "e258f2f0-0fc5-4531-8733-04c8d4b2f2a7",
      "identifier": [ {
        "value": "J82633"
      } ],
      "type": [ {
        "text": "GP Practice"
      } ],
      "name": "The Riverside Partnership ( Riverside Kelsey)",
      "telecom": [ {
        "system": "phone",
        "value": "tel:01730892412",
        "use": "work"
      } ],
      "address": [ {
        "use": "work",
        "line": [ "Riverside Kelsey Surgery", "75 Station Road", "Liss", "Hampshire" ],
        "postalCode": "GU33 7AD"
      } ]
    }
  }, {
    "fullUrl": "urn:uuid:e1d02f15-7761-4db7-9c4b-70da2509bfd3",
    "resource": {
      "resourceType": "HealthcareService",
      "id": "e1d02f15-7761-4db7-9c4b-70da2509bfd3",
      "active": true,
      "providedBy": {
        "reference": "urn:uuid:1d359fcd-b2d5-4492-a3d4-6ce525f3ceda"
      },
      "location": [ {
        "reference": "urn:uuid:6868acdd-328c-4fec-bcbf-9567332a8e50"
      } ],
      "name": "Urgent Treatment Centre (GP led), Royal South Hants Hospital"
    }
  }, {
    "fullUrl": "urn:uuid:6868acdd-328c-4fec-bcbf-9567332a8e50",
    "resource": {
      "resourceType": "Location",
      "id": "6868acdd-328c-4fec-bcbf-9567332a8e50",
      "managingOrganization": {
        "reference": "urn:uuid:1d359fcd-b2d5-4492-a3d4-6ce525f3ceda"
      }
    }
  }, {
    "fullUrl": "urn:uuid:1d359fcd-b2d5-4492-a3d4-6ce525f3ceda",
    "resource": {
      "resourceType": "Organization",
      "id": "1d359fcd-b2d5-4492-a3d4-6ce525f3ceda",
      "identifier": [ {
        "value": "RSHSO14A"
      } ],
      "type": [ {
        "coding": [ {
          "code": "PRCP",
          "display": "Urgent Treatment Centre (GP led), Royal South Hants Hospital"
        } ]
      } ],
      "name": "Urgent Treatment Centre (GP led), Royal South Hants Hospital"
    }
  }, {
    "fullUrl": "urn:uuid:3295a927-5089-4601-9ee1-78567da1e986",
    "resource": {
      "resourceType": "ReferralRequest",
      "id": "3295a927-5089-4601-9ee1-78567da1e986",
      "status": "active",
      "intent": "plan",
      "priority": "routine",
      "subject": {
        "reference": "urn:uuid:729c5618-817e-4b25-a5d0-0959360167eb"
      },
      "context": {
        "reference": "urn:uuid:9a080412-3b06-495b-98b1-a28049364f9d"
      },
      "occurrencePeriod": {
        "start": "2022-04-07T07:52:13+00:00",
        "end": "2022-04-07T08:52:13+00:00"
      },
      "authoredOn": "2021-04-06T11:33:27+00:00",
      "requester": {
        "agent": {
          "reference": "urn:uuid:3d6d75b9-2780-4cf7-b384-c139693293f5"
        },
        "onBehalfOf": {
          "reference": "urn:uuid:3ab157dd-66d8-4bec-aaa5-5d6d4af52aa9"
        }
      },
      "recipient": [ {
        "reference": "urn:uuid:e1d02f15-7761-4db7-9c4b-70da2509bfd3"
      } ],
      "reasonReference": [ {
        "reference": "urn:uuid:9350b693-686b-463e-8e0c-c56693756182"
      } ],
      "supportingInfo": [ {
        "reference": "urn:uuid:647965b8-a352-43bc-93f9-2612249f6bff"
      } ]
    }
  }, {
    "fullUrl": "urn:uuid:647965b8-a352-43bc-93f9-2612249f6bff",
    "resource": {
      "resourceType": "ProcedureRequest",
      "id": "647965b8-a352-43bc-93f9-2612249f6bff",
      "status": "active",
      "intent": "plan",
      "priority": "routine",
      "doNotPerform": false,
      "code": {
        "coding": [ {
          "system": "2.16.840.1.113883.2.1.3.2.4.17.325",
          "code": "Dx06",
          "display": "To contact a local service within 6 hours"
        } ]
      },
      "subject": {
        "reference": "urn:uuid:729c5618-817e-4b25-a5d0-0959360167eb"
      },
      "occurrencePeriod": {
        "start": "2022-04-07T07:52:13+00:00",
        "end": "2022-04-07T08:52:13+00:00"
      },
      "reasonReference": [ {
        "reference": "urn:uuid:9350b693-686b-463e-8e0c-c56693756182"
      } ]
    }
  }, {
    "fullUrl": "urn:uuid:ad08c48f-8a60-4506-8b35-084b83d41854",
    "resource": {
      "resourceType": "Composition",
      "id": "ad08c48f-8a60-4506-8b35-084b83d41854",
      "identifier": {
        "use": "usual",
        "value": "A8E3FB32-6805-4191-B071-EA540A9318CD"
      },
      "status": "final",
      "type": {
        "coding": [ {
          "system": "http://snomed.info/sct",
          "code": "371531000",
          "display": "Report of clinical encounter (record artifact)"
        } ]
      },
      "subject": {
        "reference": "urn:uuid:729c5618-817e-4b25-a5d0-0959360167eb"
      },
      "encounter": {
        "reference": "urn:uuid:9a080412-3b06-495b-98b1-a28049364f9d"
      },
      "date": "2022-04-07T07:52:13+00:00",
      "author": [ {
        "reference": "urn:uuid:38df0ac6-2bbd-46d2-aeef-78f4c4ac4712"
      } ],
      "title": "111 Report",
      "confidentiality": "N",
      "section": [ {
        "section": [ {
          "title": "Patient's Reported Condition",
          "text": {
            "status": "generated",
            "div": "<div xmlns=\"http://www.w3.org/1999/xhtml\">&lt;content&gt;Pharmacy ITK Testing&lt;/content&gt;\n                                                    &lt;br/&gt;</div>"
          }
        }, {
          "title": "Pathways Disposition",
          "text": {
            "status": "generated",
            "div": "<div xmlns=\"http://www.w3.org/1999/xhtml\">To contact a local service within 6 hours (Dx06)                                         &lt;br/&gt;\n                                                    &lt;br/&gt;                                         Selected service: Urgent Treatment Centre (GP led), Royal South Hant&lt;br/&gt;</div>"
          }
        }, {
          "title": "Consultation Summary",
          "text": {
            "status": "generated",
            "div": "<div xmlns=\"http://www.w3.org/1999/xhtml\">Illness&lt;br/&gt;Warm to touch&lt;br/&gt;Nausea without vomiting&lt;br/&gt;Abdominal pain also present&lt;br/&gt;Moderately severe pain&lt;br/&gt;Flank pain&lt;br/&gt;Fever at time of assessment or in last 12 hours&lt;br/&gt;</div>"
          }
        }, {
          "title": "Pathways Assessment",
          "text": {
            "status": "generated",
            "div": "<div xmlns=\"http://www.w3.org/1999/xhtml\">An injury or health problem was the reason for the contact.&lt;br/&gt;Heavy bleeding had not occurred in the previous 30 minutes.&lt;br/&gt;An illness or health problem was the main problem.&lt;br/&gt;User Comments: Pharmacy ITK Testing&lt;br/&gt;The individual was not fighting for breath.&lt;br/&gt;The main reason for the contact was not an allergic reaction, chest/upper back pain, recent fit/seizure, suicide attempt, new confusion or suspected stroke.&lt;br/&gt;The main reason for contact was not declared diabetic hypo/hyperglycaemia or ICD shock.&lt;br/&gt;The skin on the torso felt normal, warm or hot.&lt;br/&gt;Pathway selected - Vomiting and/or Nausea&lt;br/&gt;The individual had not vomited.&lt;br/&gt;The individual did not also have diarrhoea.&lt;br/&gt;The symptoms did not follow drinking alcohol.&lt;br/&gt;Abdominal pain was also present.&lt;br/&gt;The pain interfered with normal activity.&lt;br/&gt;The individual was able to carry out most or all normal activities.&lt;br/&gt;The individual had not ingested a harmful or toxic substance.&lt;br/&gt;There had been no black and tarry or red/maroon bowel motions.&lt;br/&gt;There was no new or worsening confusion.&lt;br/&gt;Breathing harder or faster when doing nothing was not described.&lt;br/&gt;There was no new shoulder tip pain or pain in the lower right abdomen.&lt;br/&gt;The individual had not been in constant pain for 4 hours or more.&lt;br/&gt;There was no previous history of diabetes.&lt;br/&gt;There was flank pain.&lt;br/&gt;There was a fever at the time of assessment or within the previous 12 hours.&lt;br/&gt;There was no new, widespread, red rash.&lt;br/&gt;Instructions given were: The individual needs to contact a local service within 6 hours.&lt;br/&gt;Directory of Services referral: Urgent Treatment Centre (GP led), Royal South Hants Hospital&lt;br/&gt;</div>"
          }
        }, {
          "title": "Advice Given",
          "text": {
            "status": "generated",
            "div": "<div xmlns=\"http://www.w3.org/1999/xhtml\">I will arrange for a clinician to contact the individual. I need to ask some further questions in order to determine the best way to do this.&lt;br/&gt;If there are any new symptoms, or if the condition gets worse, changes or you have any other concerns, call us back.&lt;br/&gt;\n                                                    &lt;br/&gt;</div>"
          }
        }, {
          "title": "Information And Advice Given"
        }, {
          "title": "Disposition",
          "text": {
            "status": "generated",
            "div": "<div xmlns=\"http://www.w3.org/1999/xhtml\">&lt;content&gt;To contact a local service within 6 hours&lt;br/&gt;\n                                                    &lt;/content&gt;\n                                                    &lt;br/&gt;\n                                                    &lt;br/&gt;</div>"
          }
        } ]
      }, {
        "title": "CarePlan",
        "entry": [ {
          "reference": "urn:uuid:37d63e7d-e58e-474a-ae49-304b8a3a66a2"
        } ]
      }, {
        "title": "ReferralRequest",
        "entry": [ {
          "reference": "urn:uuid:3295a927-5089-4601-9ee1-78567da1e986"
        } ]
      }, {
        "title": "QuestionnaireResponse",
        "entry": [ {
          "reference": "urn:uuid:a5661ceb-d47c-4831-a201-c6e2fea73689"
        } ]
      }, {
        "title": "QuestionnaireResponse",
        "entry": [ {
          "reference": "urn:uuid:eca6a7db-39ba-4f61-ba52-67c47e71c720"
        } ]
      }, {
        "title": "QuestionnaireResponse",
        "entry": [ {
          "reference": "urn:uuid:31f24296-94e3-4fb9-b40d-cdd2a0ecc330"
        } ]
      }, {
        "title": "QuestionnaireResponse",
        "entry": [ {
          "reference": "urn:uuid:5984bc50-dee3-4258-8cac-fb2986df62fa"
        } ]
      }, {
        "title": "QuestionnaireResponse",
        "entry": [ {
          "reference": "urn:uuid:e8c94078-3427-4baf-9525-37ffc70fc30d"
        } ]
      }, {
        "title": "QuestionnaireResponse",
        "entry": [ {
          "reference": "urn:uuid:7de91900-2d56-47f1-8d94-84753c568831"
        } ]
      }, {
        "title": "QuestionnaireResponse",
        "entry": [ {
          "reference": "urn:uuid:f6258e98-c41a-4957-b1c0-bc5232009e4e"
        } ]
      }, {
        "title": "QuestionnaireResponse",
        "entry": [ {
          "reference": "urn:uuid:6fe471a9-9da9-4658-9984-466cffc17ca7"
        } ]
      }, {
        "title": "QuestionnaireResponse",
        "entry": [ {
          "reference": "urn:uuid:963671d6-af35-43dc-baec-d2a3d75cde9f"
        } ]
      }, {
        "title": "QuestionnaireResponse",
        "entry": [ {
          "reference": "urn:uuid:15b0fcf1-fee9-44c0-9802-08f192d6206f"
        } ]
      }, {
        "title": "QuestionnaireResponse",
        "entry": [ {
          "reference": "urn:uuid:4e53e8f4-8591-463a-bb13-c8f7040d73eb"
        } ]
      }, {
        "title": "QuestionnaireResponse",
        "entry": [ {
          "reference": "urn:uuid:8c513dbe-4cc0-4212-a572-d302a336c0d7"
        } ]
      }, {
        "title": "QuestionnaireResponse",
        "entry": [ {
          "reference": "urn:uuid:5d98c2a9-b132-4f38-8bb5-ef8f8c204f09"
        } ]
      }, {
        "title": "QuestionnaireResponse",
        "entry": [ {
          "reference": "urn:uuid:eb2c5deb-848d-4d8b-bf04-b89858f6dd20"
        } ]
      }, {
        "title": "QuestionnaireResponse",
        "entry": [ {
          "reference": "urn:uuid:0a9e96cc-e6aa-4714-a1c9-3af4d624126e"
        } ]
      }, {
        "title": "QuestionnaireResponse",
        "entry": [ {
          "reference": "urn:uuid:ee1e00e6-6802-45ed-9cb8-d8833c7616e2"
        } ]
      }, {
        "title": "QuestionnaireResponse",
        "entry": [ {
          "reference": "urn:uuid:ac70abc1-9d19-49f5-9a7a-93817584ce39"
        } ]
      }, {
        "title": "QuestionnaireResponse",
        "entry": [ {
          "reference": "urn:uuid:aec58cb3-adbd-4f35-a929-9b1732beffd9"
        } ]
      }, {
        "title": "QuestionnaireResponse",
        "entry": [ {
          "reference": "urn:uuid:a040d44b-e8b1-406d-8dd1-794f3f69b85d"
        } ]
      }, {
        "title": "QuestionnaireResponse",
        "entry": [ {
          "reference": "urn:uuid:4c12d97f-57a8-4b73-8963-54ed73a002d5"
        } ]
      }, {
        "title": "QuestionnaireResponse",
        "entry": [ {
          "reference": "urn:uuid:7ce8b38a-32b1-41f5-82ea-5e83fc8485c1"
        } ]
      }, {
        "title": "QuestionnaireResponse",
        "entry": [ {
          "reference": "urn:uuid:80d81f57-ab6a-40b4-9f5c-05e5b1b5dedb"
        } ]
      }, {
        "title": "QuestionnaireResponse",
        "entry": [ {
          "reference": "urn:uuid:5c2a49ed-fac6-4406-af28-902c4ac2a5f4"
        } ]
      }, {
        "title": "QuestionnaireResponse",
        "entry": [ {
          "reference": "urn:uuid:208cbbf2-12b8-4d89-a954-18962f9b768b"
        } ]
      }, {
        "title": "QuestionnaireResponse",
        "entry": [ {
          "reference": "urn:uuid:842a9cbc-a123-42d5-8844-3dd0b77acad6"
        } ]
      }, {
        "title": "QuestionnaireResponse",
        "entry": [ {
          "reference": "urn:uuid:68e2714a-e6d5-4edc-a4f4-9dca927fad2b"
        } ]
      }, {
        "title": "QuestionnaireResponse",
        "entry": [ {
          "reference": "urn:uuid:bfa21614-45a6-4577-96c7-99f63b0dc35a"
        } ]
      }, {
        "title": "QuestionnaireResponse",
        "entry": [ {
          "reference": "urn:uuid:3fddad49-e360-4e75-8d04-c7e3d9a56955"
        } ]
      }, {
        "title": "QuestionnaireResponse",
        "entry": [ {
          "reference": "urn:uuid:ec37ebc1-d284-41b7-8586-0ee24da30a33"
        } ]
      }, {
        "title": "QuestionnaireResponse",
        "entry": [ {
          "reference": "urn:uuid:0e2471cb-fa87-437a-9e27-1e591c952c04"
        } ]
      }, {
        "title": "QuestionnaireResponse",
        "entry": [ {
          "reference": "urn:uuid:e0ab3aa1-5601-43ad-9513-af66053b3434"
        } ]
      }, {
        "title": "QuestionnaireResponse",
        "entry": [ {
          "reference": "urn:uuid:573a2d63-81c9-423b-b472-f779b126780a"
        } ]
      }, {
        "title": "QuestionnaireResponse",
        "entry": [ {
          "reference": "urn:uuid:c905c542-86fd-4621-8f06-87819adbffc2"
        } ]
      }, {
        "title": "QuestionnaireResponse",
        "entry": [ {
          "reference": "urn:uuid:099d871f-da49-4e2c-98af-0f6721621bef"
        } ]
      }, {
        "title": "QuestionnaireResponse",
        "entry": [ {
          "reference": "urn:uuid:965eb9e2-f312-41b6-99e4-2ec4afa310ab"
        } ]
      }, {
        "title": "QuestionnaireResponse",
        "entry": [ {
          "reference": "urn:uuid:a64ecc85-c9f5-4322-b1f9-7a2aa11e7ad0"
        } ]
      }, {
        "title": "QuestionnaireResponse",
        "entry": [ {
          "reference": "urn:uuid:b7ef350e-9eb4-49d2-94bd-a248150edbaa"
        } ]
      }, {
        "title": "QuestionnaireResponse",
        "entry": [ {
          "reference": "urn:uuid:c41280a5-9153-4736-8286-c8a153f0e0b3"
        } ]
      }, {
        "title": "QuestionnaireResponse",
        "entry": [ {
          "reference": "urn:uuid:30795e5d-686a-4f16-986f-47e02934a07a"
        } ]
      }, {
        "title": "QuestionnaireResponse",
        "entry": [ {
          "reference": "urn:uuid:1fb4e088-8647-4c5f-8686-6b2919a988dd"
        } ]
      }, {
        "title": "QuestionnaireResponse",
        "entry": [ {
          "reference": "urn:uuid:73cdeecc-5703-4ab9-80de-2155a7d92669"
        } ]
      }, {
        "title": "QuestionnaireResponse",
        "entry": [ {
          "reference": "urn:uuid:24b1879b-6e23-475a-a413-43124ee04d6c"
        } ]
      }, {
        "title": "QuestionnaireResponse",
        "entry": [ {
          "reference": "urn:uuid:9a8bb28e-d059-411b-bf11-643123fcf411"
        } ]
      }, {
        "title": "QuestionnaireResponse",
        "entry": [ {
          "reference": "urn:uuid:702b4287-4f6b-43df-b7a5-6d7fbdf336e3"
        } ]
      }, {
        "title": "QuestionnaireResponse",
        "entry": [ {
          "reference": "urn:uuid:aabf9a84-269b-45a1-bf4f-06f0c6b0e20e"
        } ]
      }, {
        "title": "QuestionnaireResponse",
        "entry": [ {
          "reference": "urn:uuid:641b18b3-d9d1-4387-b999-40a9fa135b51"
        } ]
      }, {
        "title": "QuestionnaireResponse",
        "entry": [ {
          "reference": "urn:uuid:ee5aff5b-d487-4488-ba39-f0f8f2ebf1b2"
        } ]
      }, {
        "title": "QuestionnaireResponse",
        "entry": [ {
          "reference": "urn:uuid:8b3788ab-9d30-4931-a0c7-f454446d9115"
        } ]
      }, {
        "title": "QuestionnaireResponse",
        "entry": [ {
          "reference": "urn:uuid:ceb8a842-cb52-4fb8-a4ce-1a2f42da252f"
        } ]
      }, {
        "title": "QuestionnaireResponse",
        "entry": [ {
          "reference": "urn:uuid:b64352cc-110b-48ed-8f0a-67a260d54409"
        } ]
      }, {
        "title": "QuestionnaireResponse",
        "entry": [ {
          "reference": "urn:uuid:c2298543-6088-4f68-9edb-ebadc9c27a21"
        } ]
      }, {
        "title": "QuestionnaireResponse",
        "entry": [ {
          "reference": "urn:uuid:c35eb52c-5c9a-4aa0-8857-13ee0b4782d6"
        } ]
      }, {
        "title": "QuestionnaireResponse",
        "entry": [ {
          "reference": "urn:uuid:c0022d95-1d26-4322-94c7-2f8f90a871e9"
        } ]
      }, {
        "title": "QuestionnaireResponse",
        "entry": [ {
          "reference": "urn:uuid:3115f4e7-ee32-4654-941c-3572cd32d75b"
        } ]
      }, {
        "title": "QuestionnaireResponse",
        "entry": [ {
          "reference": "urn:uuid:8dd8bb6d-3e62-4f7c-9a16-ea3781c0f2e5"
        } ]
      }, {
        "title": "QuestionnaireResponse",
        "entry": [ {
          "reference": "urn:uuid:6d1fa5e2-13b8-4cae-ac68-b9f0a1753a92"
        } ]
      }, {
        "title": "QuestionnaireResponse",
        "entry": [ {
          "reference": "urn:uuid:fdace6ae-e60b-4715-aede-d6ec36f33979"
        } ]
      }, {
        "title": "QuestionnaireResponse",
        "entry": [ {
          "reference": "urn:uuid:0ea64d77-df3c-4a87-bfaf-9228343a2580"
        } ]
      }, {
        "title": "QuestionnaireResponse",
        "entry": [ {
          "reference": "urn:uuid:3e7d9e6f-6eca-4d4b-ab0a-85e23ff81ef1"
        } ]
      }, {
        "title": "QuestionnaireResponse",
        "entry": [ {
          "reference": "urn:uuid:8292ce14-f63e-4ab0-a644-ce8f349a2c33"
        } ]
      }, {
        "title": "QuestionnaireResponse",
        "entry": [ {
          "reference": "urn:uuid:178d7ced-49d5-4e21-b712-eebd74e0a895"
        } ]
      }, {
        "title": "QuestionnaireResponse",
        "entry": [ {
          "reference": "urn:uuid:abc9e251-5b74-458b-b650-77954327e7a5"
        } ]
      }, {
        "title": "QuestionnaireResponse",
        "entry": [ {
          "reference": "urn:uuid:d49f38d3-7195-4743-b0a6-f79471392c4b"
        } ]
      }, {
        "title": "QuestionnaireResponse",
        "entry": [ {
          "reference": "urn:uuid:9144b034-c918-4692-a653-8a4d1afe5dd9"
        } ]
      }, {
        "title": "QuestionnaireResponse",
        "entry": [ {
          "reference": "urn:uuid:fd88d881-5b07-493b-a4ed-fbd281d1d0dd"
        } ]
      }, {
        "title": "QuestionnaireResponse",
        "entry": [ {
          "reference": "urn:uuid:8c78f371-5f12-4079-8242-cc55b205c9c8"
        } ]
      }, {
        "title": "QuestionnaireResponse",
        "entry": [ {
          "reference": "urn:uuid:9c39774c-249d-426c-b623-55ac9b987439"
        } ]
      }, {
        "title": "QuestionnaireResponse",
        "entry": [ {
          "reference": "urn:uuid:6867a61f-1d7d-4316-9021-d0bc6cf83cc3"
        } ]
      }, {
        "title": "QuestionnaireResponse",
        "entry": [ {
          "reference": "urn:uuid:d2a7df26-b928-4932-b534-20543807eef4"
        } ]
      }, {
        "title": "QuestionnaireResponse",
        "entry": [ {
          "reference": "urn:uuid:2e1a8f2a-1265-4ecc-96b1-dc714bea3fc4"
        } ]
      }, {
        "title": "QuestionnaireResponse",
        "entry": [ {
          "reference": "urn:uuid:3c0dd160-08e6-4ceb-bd93-eb4976b2a3e4"
        } ]
      }, {
        "title": "QuestionnaireResponse",
        "entry": [ {
          "reference": "urn:uuid:cb1c49db-5778-4673-87c4-6111b1200614"
        } ]
      }, {
        "title": "QuestionnaireResponse",
        "entry": [ {
          "reference": "urn:uuid:0c2eb5b9-fcc2-463b-966c-6bee77469756"
        } ]
      } ]
    }
  }, {
    "fullUrl": "urn:uuid:37d63e7d-e58e-474a-ae49-304b8a3a66a2",
    "resource": {
      "resourceType": "CarePlan",
      "id": "37d63e7d-e58e-474a-ae49-304b8a3a66a2",
      "status": "completed",
      "intent": "plan",
      "title": "Information And Advice Given",
      "subject": {
        "reference": "urn:uuid:729c5618-817e-4b25-a5d0-0959360167eb"
      },
      "context": {
        "reference": "urn:uuid:9a080412-3b06-495b-98b1-a28049364f9d"
      },
      "period": {
        "start": "2021-04-06T11:33:35+00:00"
      },
      "author": [ {
        "reference": "urn:uuid:58496a3d-8373-43bd-b227-10b419baffc3"
      } ],
      "addresses": [ {
        "reference": "urn:uuid:9350b693-686b-463e-8e0c-c56693756182"
      } ]
    }
  }, {
    "fullUrl": "urn:uuid:880cb0ec-b83e-4dec-bdfc-fd3530e4e64f",
    "resource": {
      "resourceType": "Consent",
      "id": "880cb0ec-b83e-4dec-bdfc-fd3530e4e64f",
      "identifier": {
        "use": "usual",
        "value": "A8E3FB32-6805-4191-B071-EA540A9318CD"
      },
      "status": "active",
      "patient": {
        "reference": "urn:uuid:729c5618-817e-4b25-a5d0-0959360167eb"
      },
      "period": {
        "start": "2021-04-06T11:33:35+00:00"
      },
      "consentingParty": [ {
        "reference": "urn:uuid:729c5618-817e-4b25-a5d0-0959360167eb"
      } ],
      "action": [ {
        "coding": [ {
          "system": "http://snomed.info/sct",
          "code": "425691002",
          "display": "Consent given for electronic record sharing"
        } ],
        "text": "Consent given for electronic record sharing"
      } ],
      "organization": [ {
        "reference": "urn:uuid:3ab157dd-66d8-4bec-aaa5-5d6d4af52aa9"
      } ],
      "policyRule": "http://hl7.org/fhir/ConsentPolicy/opt-out",
      "data": [ {
        "meaning": "related",
        "reference": {
          "reference": "urn:uuid:9a080412-3b06-495b-98b1-a28049364f9d"
        }
      } ]
    }
  }, {
    "fullUrl": "urn:uuid:9350b693-686b-463e-8e0c-c56693756182",
    "resource": {
      "resourceType": "Condition",
      "id": "9350b693-686b-463e-8e0c-c56693756182",
      "clinicalStatus": "active",
      "verificationStatus": "unknown",
      "subject": {
        "reference": "urn:uuid:729c5618-817e-4b25-a5d0-0959360167eb"
      },
      "context": {
        "reference": "urn:uuid:9a080412-3b06-495b-98b1-a28049364f9d"
      },
      "evidence": [ {
        "detail": [ {
          "reference": "urn:uuid:a5661ceb-d47c-4831-a201-c6e2fea73689"
        } ]
      }, {
        "detail": [ {
          "reference": "urn:uuid:eca6a7db-39ba-4f61-ba52-67c47e71c720"
        } ]
      }, {
        "detail": [ {
          "reference": "urn:uuid:31f24296-94e3-4fb9-b40d-cdd2a0ecc330"
        } ]
      }, {
        "detail": [ {
          "reference": "urn:uuid:5984bc50-dee3-4258-8cac-fb2986df62fa"
        } ]
      }, {
        "detail": [ {
          "reference": "urn:uuid:e8c94078-3427-4baf-9525-37ffc70fc30d"
        } ]
      }, {
        "detail": [ {
          "reference": "urn:uuid:7de91900-2d56-47f1-8d94-84753c568831"
        } ]
      }, {
        "detail": [ {
          "reference": "urn:uuid:f6258e98-c41a-4957-b1c0-bc5232009e4e"
        } ]
      }, {
        "detail": [ {
          "reference": "urn:uuid:6fe471a9-9da9-4658-9984-466cffc17ca7"
        } ]
      }, {
        "detail": [ {
          "reference": "urn:uuid:963671d6-af35-43dc-baec-d2a3d75cde9f"
        } ]
      }, {
        "detail": [ {
          "reference": "urn:uuid:15b0fcf1-fee9-44c0-9802-08f192d6206f"
        } ]
      }, {
        "detail": [ {
          "reference": "urn:uuid:4e53e8f4-8591-463a-bb13-c8f7040d73eb"
        } ]
      }, {
        "detail": [ {
          "reference": "urn:uuid:8c513dbe-4cc0-4212-a572-d302a336c0d7"
        } ]
      }, {
        "detail": [ {
          "reference": "urn:uuid:5d98c2a9-b132-4f38-8bb5-ef8f8c204f09"
        } ]
      }, {
        "detail": [ {
          "reference": "urn:uuid:eb2c5deb-848d-4d8b-bf04-b89858f6dd20"
        } ]
      }, {
        "detail": [ {
          "reference": "urn:uuid:0a9e96cc-e6aa-4714-a1c9-3af4d624126e"
        } ]
      }, {
        "detail": [ {
          "reference": "urn:uuid:ee1e00e6-6802-45ed-9cb8-d8833c7616e2"
        } ]
      }, {
        "detail": [ {
          "reference": "urn:uuid:ac70abc1-9d19-49f5-9a7a-93817584ce39"
        } ]
      }, {
        "detail": [ {
          "reference": "urn:uuid:aec58cb3-adbd-4f35-a929-9b1732beffd9"
        } ]
      }, {
        "detail": [ {
          "reference": "urn:uuid:a040d44b-e8b1-406d-8dd1-794f3f69b85d"
        } ]
      }, {
        "detail": [ {
          "reference": "urn:uuid:4c12d97f-57a8-4b73-8963-54ed73a002d5"
        } ]
      }, {
        "detail": [ {
          "reference": "urn:uuid:7ce8b38a-32b1-41f5-82ea-5e83fc8485c1"
        } ]
      }, {
        "detail": [ {
          "reference": "urn:uuid:80d81f57-ab6a-40b4-9f5c-05e5b1b5dedb"
        } ]
      }, {
        "detail": [ {
          "reference": "urn:uuid:5c2a49ed-fac6-4406-af28-902c4ac2a5f4"
        } ]
      }, {
        "detail": [ {
          "reference": "urn:uuid:208cbbf2-12b8-4d89-a954-18962f9b768b"
        } ]
      }, {
        "detail": [ {
          "reference": "urn:uuid:842a9cbc-a123-42d5-8844-3dd0b77acad6"
        } ]
      }, {
        "detail": [ {
          "reference": "urn:uuid:68e2714a-e6d5-4edc-a4f4-9dca927fad2b"
        } ]
      }, {
        "detail": [ {
          "reference": "urn:uuid:bfa21614-45a6-4577-96c7-99f63b0dc35a"
        } ]
      }, {
        "detail": [ {
          "reference": "urn:uuid:3fddad49-e360-4e75-8d04-c7e3d9a56955"
        } ]
      }, {
        "detail": [ {
          "reference": "urn:uuid:ec37ebc1-d284-41b7-8586-0ee24da30a33"
        } ]
      }, {
        "detail": [ {
          "reference": "urn:uuid:0e2471cb-fa87-437a-9e27-1e591c952c04"
        } ]
      }, {
        "detail": [ {
          "reference": "urn:uuid:e0ab3aa1-5601-43ad-9513-af66053b3434"
        } ]
      }, {
        "detail": [ {
          "reference": "urn:uuid:573a2d63-81c9-423b-b472-f779b126780a"
        } ]
      }, {
        "detail": [ {
          "reference": "urn:uuid:c905c542-86fd-4621-8f06-87819adbffc2"
        } ]
      }, {
        "detail": [ {
          "reference": "urn:uuid:099d871f-da49-4e2c-98af-0f6721621bef"
        } ]
      }, {
        "detail": [ {
          "reference": "urn:uuid:965eb9e2-f312-41b6-99e4-2ec4afa310ab"
        } ]
      }, {
        "detail": [ {
          "reference": "urn:uuid:a64ecc85-c9f5-4322-b1f9-7a2aa11e7ad0"
        } ]
      }, {
        "detail": [ {
          "reference": "urn:uuid:b7ef350e-9eb4-49d2-94bd-a248150edbaa"
        } ]
      }, {
        "detail": [ {
          "reference": "urn:uuid:c41280a5-9153-4736-8286-c8a153f0e0b3"
        } ]
      }, {
        "detail": [ {
          "reference": "urn:uuid:30795e5d-686a-4f16-986f-47e02934a07a"
        } ]
      }, {
        "detail": [ {
          "reference": "urn:uuid:1fb4e088-8647-4c5f-8686-6b2919a988dd"
        } ]
      }, {
        "detail": [ {
          "reference": "urn:uuid:73cdeecc-5703-4ab9-80de-2155a7d92669"
        } ]
      }, {
        "detail": [ {
          "reference": "urn:uuid:24b1879b-6e23-475a-a413-43124ee04d6c"
        } ]
      }, {
        "detail": [ {
          "reference": "urn:uuid:9a8bb28e-d059-411b-bf11-643123fcf411"
        } ]
      }, {
        "detail": [ {
          "reference": "urn:uuid:702b4287-4f6b-43df-b7a5-6d7fbdf336e3"
        } ]
      }, {
        "detail": [ {
          "reference": "urn:uuid:aabf9a84-269b-45a1-bf4f-06f0c6b0e20e"
        } ]
      }, {
        "detail": [ {
          "reference": "urn:uuid:641b18b3-d9d1-4387-b999-40a9fa135b51"
        } ]
      }, {
        "detail": [ {
          "reference": "urn:uuid:ee5aff5b-d487-4488-ba39-f0f8f2ebf1b2"
        } ]
      }, {
        "detail": [ {
          "reference": "urn:uuid:8b3788ab-9d30-4931-a0c7-f454446d9115"
        } ]
      }, {
        "detail": [ {
          "reference": "urn:uuid:ceb8a842-cb52-4fb8-a4ce-1a2f42da252f"
        } ]
      }, {
        "detail": [ {
          "reference": "urn:uuid:b64352cc-110b-48ed-8f0a-67a260d54409"
        } ]
      }, {
        "detail": [ {
          "reference": "urn:uuid:c2298543-6088-4f68-9edb-ebadc9c27a21"
        } ]
      }, {
        "detail": [ {
          "reference": "urn:uuid:c35eb52c-5c9a-4aa0-8857-13ee0b4782d6"
        } ]
      }, {
        "detail": [ {
          "reference": "urn:uuid:c0022d95-1d26-4322-94c7-2f8f90a871e9"
        } ]
      }, {
        "detail": [ {
          "reference": "urn:uuid:3115f4e7-ee32-4654-941c-3572cd32d75b"
        } ]
      }, {
        "detail": [ {
          "reference": "urn:uuid:8dd8bb6d-3e62-4f7c-9a16-ea3781c0f2e5"
        } ]
      }, {
        "detail": [ {
          "reference": "urn:uuid:6d1fa5e2-13b8-4cae-ac68-b9f0a1753a92"
        } ]
      }, {
        "detail": [ {
          "reference": "urn:uuid:fdace6ae-e60b-4715-aede-d6ec36f33979"
        } ]
      }, {
        "detail": [ {
          "reference": "urn:uuid:0ea64d77-df3c-4a87-bfaf-9228343a2580"
        } ]
      }, {
        "detail": [ {
          "reference": "urn:uuid:3e7d9e6f-6eca-4d4b-ab0a-85e23ff81ef1"
        } ]
      }, {
        "detail": [ {
          "reference": "urn:uuid:8292ce14-f63e-4ab0-a644-ce8f349a2c33"
        } ]
      }, {
        "detail": [ {
          "reference": "urn:uuid:178d7ced-49d5-4e21-b712-eebd74e0a895"
        } ]
      }, {
        "detail": [ {
          "reference": "urn:uuid:abc9e251-5b74-458b-b650-77954327e7a5"
        } ]
      }, {
        "detail": [ {
          "reference": "urn:uuid:d49f38d3-7195-4743-b0a6-f79471392c4b"
        } ]
      }, {
        "detail": [ {
          "reference": "urn:uuid:9144b034-c918-4692-a653-8a4d1afe5dd9"
        } ]
      }, {
        "detail": [ {
          "reference": "urn:uuid:fd88d881-5b07-493b-a4ed-fbd281d1d0dd"
        } ]
      }, {
        "detail": [ {
          "reference": "urn:uuid:8c78f371-5f12-4079-8242-cc55b205c9c8"
        } ]
      }, {
        "detail": [ {
          "reference": "urn:uuid:9c39774c-249d-426c-b623-55ac9b987439"
        } ]
      }, {
        "detail": [ {
          "reference": "urn:uuid:6867a61f-1d7d-4316-9021-d0bc6cf83cc3"
        } ]
      }, {
        "detail": [ {
          "reference": "urn:uuid:d2a7df26-b928-4932-b534-20543807eef4"
        } ]
      }, {
        "detail": [ {
          "reference": "urn:uuid:2e1a8f2a-1265-4ecc-96b1-dc714bea3fc4"
        } ]
      }, {
        "detail": [ {
          "reference": "urn:uuid:3c0dd160-08e6-4ceb-bd93-eb4976b2a3e4"
        } ]
      }, {
        "detail": [ {
          "reference": "urn:uuid:cb1c49db-5778-4673-87c4-6111b1200614"
        } ]
      }, {
        "detail": [ {
          "reference": "urn:uuid:0c2eb5b9-fcc2-463b-966c-6bee77469756"
        } ]
      } ]
    }
  }, {
    "fullUrl": "urn:uuid:a5661ceb-d47c-4831-a201-c6e2fea73689",
    "resource": {
      "resourceType": "QuestionnaireResponse",
      "id": "a5661ceb-d47c-4831-a201-c6e2fea73689",
      "identifier": {
        "value": "59132"
      },
      "questionnaire": {
        "reference": "urn:uuid:c2462905-e769-41ea-8bef-ecf00cc9e613"
      },
      "status": "completed",
      "subject": {
        "reference": "urn:uuid:729c5618-817e-4b25-a5d0-0959360167eb"
      },
      "context": {
        "reference": "urn:uuid:9a080412-3b06-495b-98b1-a28049364f9d"
      },
      "authored": "2021-04-06T11:33:34+00:00",
      "item": [ {
        "linkId": "Tx220074",
        "text": "What is the reason for the contact?",
        "answer": [ {
          "valueString": "an injury or other health problem"
        } ]
      } ]
    }
  }, {
    "fullUrl": "urn:uuid:c2462905-e769-41ea-8bef-ecf00cc9e613",
    "resource": {
      "resourceType": "Questionnaire",
      "id": "c2462905-e769-41ea-8bef-ecf00cc9e613",
      "identifier": [ {
        "value": "59132"
      } ],
      "version": "2021-04-06T11:33:34.963Z",
      "status": "active",
      "experimental": false,
      "date": "2021-04-06T11:33:34+00:00",
      "publisher": "User ID: 'MCDONALDD' User name: 'Denzle McDonald' User skill set: 'T3'",
      "lastReviewDate": "2021-04-06",
      "subjectType": [ "Patient" ],
      "item": [ {
        "linkId": "59132",
        "prefix": "5",
        "text": "What is the reason for the contact?",
        "type": "choice",
        "required": true,
        "repeats": false,
        "option": [ {
          "valueString": "an injury or other health problem, Selected: true"
        }, {
          "valueString": "labour or childbirth, Selected: false"
        }, {
          "valueString": "a need to access another healthcare service, Selected: false"
        }, {
          "valueString": "a healthcare professional requesting contact with another clinician, Selected: false"
        }, {
          "valueString": "a report of results or tests, Selected: false"
        }, {
          "valueString": "a possible failure of contraception, Selected: false"
        }, {
          "valueString": "more, Selected: false"
        } ]
      } ]
    }
  }, {
    "fullUrl": "urn:uuid:eca6a7db-39ba-4f61-ba52-67c47e71c720",
    "resource": {
      "resourceType": "QuestionnaireResponse",
      "id": "eca6a7db-39ba-4f61-ba52-67c47e71c720",
      "identifier": {
        "value": "59132"
      },
      "questionnaire": {
        "reference": "urn:uuid:17e69fe5-5947-46c3-843b-47dccec4873e"
      },
      "status": "completed",
      "subject": {
        "reference": "urn:uuid:729c5618-817e-4b25-a5d0-0959360167eb"
      },
      "context": {
        "reference": "urn:uuid:9a080412-3b06-495b-98b1-a28049364f9d"
      },
      "authored": "2021-04-06T11:33:34+00:00",
      "item": [ {
        "linkId": "Tx221807",
        "text": "STRING:to'Immediatethreatstolife(SPA/OOHversion)'-'Majorbloodloss'stem",
        "answer": [ {
          "valueString": "\"present\""
        } ]
      } ]
    }
  }, {
    "fullUrl": "urn:uuid:17e69fe5-5947-46c3-843b-47dccec4873e",
    "resource": {
      "resourceType": "Questionnaire",
      "id": "17e69fe5-5947-46c3-843b-47dccec4873e",
      "identifier": [ {
        "value": "59132"
      } ],
      "version": "2021-04-06T11:33:34.963Z",
      "status": "active",
      "experimental": false,
      "date": "2021-04-06T11:33:34+00:00",
      "publisher": "User ID: 'MCDONALDD' User name: 'Denzle McDonald' User skill set: 'T3'",
      "lastReviewDate": "2021-04-06",
      "subjectType": [ "Patient" ],
      "item": [ {
        "linkId": "59132",
        "prefix": "400",
        "text": "STRING:to'Immediatethreatstolife(SPA/OOHversion)'-'Majorbloodloss'stem",
        "type": "choice",
        "required": true,
        "repeats": false,
        "option": [ {
          "valueString": "\"present\", Selected: true"
        } ]
      } ]
    }
  }, {
    "fullUrl": "urn:uuid:31f24296-94e3-4fb9-b40d-cdd2a0ecc330",
    "resource": {
      "resourceType": "QuestionnaireResponse",
      "id": "31f24296-94e3-4fb9-b40d-cdd2a0ecc330",
      "identifier": {
        "value": "59132"
      },
      "questionnaire": {
        "reference": "urn:uuid:36c2aba5-6926-4c3e-af8e-dc0a7b40d6df"
      },
      "status": "completed",
      "subject": {
        "reference": "urn:uuid:729c5618-817e-4b25-a5d0-0959360167eb"
      },
      "context": {
        "reference": "urn:uuid:9a080412-3b06-495b-98b1-a28049364f9d"
      },
      "authored": "2021-04-06T11:33:34+00:00"
    }
  }, {
    "fullUrl": "urn:uuid:36c2aba5-6926-4c3e-af8e-dc0a7b40d6df",
    "resource": {
      "resourceType": "Questionnaire",
      "id": "36c2aba5-6926-4c3e-af8e-dc0a7b40d6df",
      "identifier": [ {
        "value": "59132"
      } ],
      "version": "2021-04-06T11:33:34.963Z",
      "status": "active",
      "experimental": false,
      "date": "2021-04-06T11:33:34+00:00",
      "publisher": "User ID: 'MCDONALDD' User name: 'Denzle McDonald' User skill set: 'T3'",
      "lastReviewDate": "2021-04-06",
      "subjectType": [ "Patient" ]
    }
  }, {
    "fullUrl": "urn:uuid:5984bc50-dee3-4258-8cac-fb2986df62fa",
    "resource": {
      "resourceType": "QuestionnaireResponse",
      "id": "5984bc50-dee3-4258-8cac-fb2986df62fa",
      "identifier": {
        "value": "59132"
      },
      "questionnaire": {
        "reference": "urn:uuid:3ee48518-9eb3-427e-ae69-c53cbe628574"
      },
      "status": "completed",
      "subject": {
        "reference": "urn:uuid:729c5618-817e-4b25-a5d0-0959360167eb"
      },
      "context": {
        "reference": "urn:uuid:9a080412-3b06-495b-98b1-a28049364f9d"
      },
      "authored": "2021-04-06T11:33:34+00:00",
      "item": [ {
        "linkId": "Tx221799",
        "text": "STRING:injury,illnessorlabourestablishedinEntryFlow",
        "answer": [ {
          "valueString": "\"present\""
        } ]
      } ]
    }
  }, {
    "fullUrl": "urn:uuid:3ee48518-9eb3-427e-ae69-c53cbe628574",
    "resource": {
      "resourceType": "Questionnaire",
      "id": "3ee48518-9eb3-427e-ae69-c53cbe628574",
      "identifier": [ {
        "value": "59132"
      } ],
      "version": "2021-04-06T11:33:34.963Z",
      "status": "active",
      "experimental": false,
      "date": "2021-04-06T11:33:34+00:00",
      "publisher": "User ID: 'MCDONALDD' User name: 'Denzle McDonald' User skill set: 'T3'",
      "lastReviewDate": "2021-04-06",
      "subjectType": [ "Patient" ],
      "item": [ {
        "linkId": "59132",
        "prefix": "0",
        "text": "STRING:injury,illnessorlabourestablishedinEntryFlow",
        "type": "choice",
        "required": true,
        "repeats": false,
        "option": [ {
          "valueString": "\"present\", Selected: true"
        } ]
      } ]
    }
  }, {
    "fullUrl": "urn:uuid:e8c94078-3427-4baf-9525-37ffc70fc30d",
    "resource": {
      "resourceType": "QuestionnaireResponse",
      "id": "e8c94078-3427-4baf-9525-37ffc70fc30d",
      "identifier": {
        "value": "59132"
      },
      "questionnaire": {
        "reference": "urn:uuid:0b559313-fe33-40d2-a8b6-384a8139960e"
      },
      "status": "completed",
      "subject": {
        "reference": "urn:uuid:729c5618-817e-4b25-a5d0-0959360167eb"
      },
      "context": {
        "reference": "urn:uuid:9a080412-3b06-495b-98b1-a28049364f9d"
      },
      "authored": "2021-04-06T11:33:34+00:00",
      "item": [ {
        "linkId": "Tx221421",
        "text": "Have you been bleeding RED BLOOD very heavily IN THE LAST 30 MINUTES?",
        "answer": [ {
          "valueString": "no"
        } ]
      } ]
    }
  }, {
    "fullUrl": "urn:uuid:0b559313-fe33-40d2-a8b6-384a8139960e",
    "resource": {
      "resourceType": "Questionnaire",
      "id": "0b559313-fe33-40d2-a8b6-384a8139960e",
      "identifier": [ {
        "value": "59132"
      } ],
      "version": "2021-04-06T11:33:34.963Z",
      "status": "active",
      "experimental": false,
      "date": "2021-04-06T11:33:34+00:00",
      "publisher": "User ID: 'MCDONALDD' User name: 'Denzle McDonald' User skill set: 'T3'",
      "lastReviewDate": "2021-04-06",
      "subjectType": [ "Patient" ],
      "item": [ {
        "linkId": "59132",
        "prefix": "200",
        "text": "Have you been bleeding RED BLOOD very heavily IN THE LAST 30 MINUTES?",
        "type": "choice",
        "required": true,
        "repeats": false,
        "option": [ {
          "valueString": "yes, Selected: false"
        }, {
          "valueString": "not sure, Selected: false"
        }, {
          "valueString": "no, Selected: true"
        } ]
      } ]
    }
  }, {
    "fullUrl": "urn:uuid:7de91900-2d56-47f1-8d94-84753c568831",
    "resource": {
      "resourceType": "QuestionnaireResponse",
      "id": "7de91900-2d56-47f1-8d94-84753c568831",
      "identifier": {
        "value": "59132"
      },
      "questionnaire": {
        "reference": "urn:uuid:19b23da7-f65c-4c05-8f78-33585386f3d0"
      },
      "status": "completed",
      "subject": {
        "reference": "urn:uuid:729c5618-817e-4b25-a5d0-0959360167eb"
      },
      "context": {
        "reference": "urn:uuid:9a080412-3b06-495b-98b1-a28049364f9d"
      },
      "authored": "2021-04-06T11:33:34+00:00",
      "item": [ {
        "linkId": "Tx221343",
        "text": "SocialConcernsExcluded",
        "answer": [ {
          "valueString": "*"
        } ]
      } ]
    }
  }, {
    "fullUrl": "urn:uuid:19b23da7-f65c-4c05-8f78-33585386f3d0",
    "resource": {
      "resourceType": "Questionnaire",
      "id": "19b23da7-f65c-4c05-8f78-33585386f3d0",
      "identifier": [ {
        "value": "59132"
      } ],
      "version": "2021-04-06T11:33:34.963Z",
      "status": "active",
      "experimental": false,
      "date": "2021-04-06T11:33:34+00:00",
      "publisher": "User ID: 'MCDONALDD' User name: 'Denzle McDonald' User skill set: 'T3'",
      "lastReviewDate": "2021-04-06",
      "subjectType": [ "Patient" ],
      "item": [ {
        "linkId": "59132",
        "prefix": "2600",
        "text": "SocialConcernsExcluded",
        "type": "choice",
        "required": true,
        "repeats": false,
        "option": [ {
          "valueString": "==\"present\", Selected: false"
        }, {
          "valueString": "*, Selected: true"
        } ]
      } ]
    }
  }, {
    "fullUrl": "urn:uuid:f6258e98-c41a-4957-b1c0-bc5232009e4e",
    "resource": {
      "resourceType": "QuestionnaireResponse",
      "id": "f6258e98-c41a-4957-b1c0-bc5232009e4e",
      "identifier": {
        "value": "59132"
      },
      "questionnaire": {
        "reference": "urn:uuid:40a928e5-7d25-4f7b-bf67-c9ecc891381c"
      },
      "status": "completed",
      "subject": {
        "reference": "urn:uuid:729c5618-817e-4b25-a5d0-0959360167eb"
      },
      "context": {
        "reference": "urn:uuid:9a080412-3b06-495b-98b1-a28049364f9d"
      },
      "authored": "2021-04-06T11:33:34+00:00",
      "item": [ {
        "linkId": "Tx130011",
        "text": "What is the main problem?",
        "answer": [ {
          "valueString": "illness or other health problem (specify)"
        } ]
      } ]
    }
  }, {
    "fullUrl": "urn:uuid:40a928e5-7d25-4f7b-bf67-c9ecc891381c",
    "resource": {
      "resourceType": "Questionnaire",
      "id": "40a928e5-7d25-4f7b-bf67-c9ecc891381c",
      "identifier": [ {
        "value": "59132"
      } ],
      "version": "2021-04-06T11:33:34.963Z",
      "status": "active",
      "experimental": false,
      "date": "2021-04-06T11:33:34+00:00",
      "publisher": "User ID: 'MCDONALDD' User name: 'Denzle McDonald' User skill set: 'T3'",
      "lastReviewDate": "2021-04-06",
      "subjectType": [ "Patient" ],
      "item": [ {
        "linkId": "59132",
        "prefix": "2500",
        "text": "What is the main problem?",
        "type": "choice",
        "required": true,
        "repeats": false,
        "option": [ {
          "valueString": "the individual has been told to follow a particular course of action (specify), Selected: false"
        }, {
          "valueString": "the individual is an identified frequent caller, Selected: false"
        }, {
          "valueString": "injury (specify), Selected: false"
        }, {
          "valueString": "illness or other health problem (specify), Selected: true"
        }, {
          "valueString": "child protection/vulnerable adult concern, Selected: false"
        }, {
          "valueString": "social or domestic emergency, Selected: false"
        }, {
          "valueString": "the environment potentially poses an immediate threat to life (specify), Selected: false"
        } ]
      } ]
    }
  }, {
    "fullUrl": "urn:uuid:6fe471a9-9da9-4658-9984-466cffc17ca7",
    "resource": {
      "resourceType": "QuestionnaireResponse",
      "id": "6fe471a9-9da9-4658-9984-466cffc17ca7",
      "identifier": {
        "value": "59132"
      },
      "questionnaire": {
        "reference": "urn:uuid:4f6d2894-70fc-449c-b25e-fd6a0010bb6a"
      },
      "status": "completed",
      "subject": {
        "reference": "urn:uuid:729c5618-817e-4b25-a5d0-0959360167eb"
      },
      "context": {
        "reference": "urn:uuid:9a080412-3b06-495b-98b1-a28049364f9d"
      },
      "authored": "2021-04-06T11:33:34+00:00"
    }
  }, {
    "fullUrl": "urn:uuid:4f6d2894-70fc-449c-b25e-fd6a0010bb6a",
    "resource": {
      "resourceType": "Questionnaire",
      "id": "4f6d2894-70fc-449c-b25e-fd6a0010bb6a",
      "identifier": [ {
        "value": "59132"
      } ],
      "version": "2021-04-06T11:33:34.963Z",
      "status": "active",
      "experimental": false,
      "date": "2021-04-06T11:33:34+00:00",
      "publisher": "User ID: 'MCDONALDD' User name: 'Denzle McDonald' User skill set: 'T3'",
      "lastReviewDate": "2021-04-06",
      "subjectType": [ "Patient" ]
    }
  }, {
    "fullUrl": "urn:uuid:963671d6-af35-43dc-baec-d2a3d75cde9f",
    "resource": {
      "resourceType": "QuestionnaireResponse",
      "id": "963671d6-af35-43dc-baec-d2a3d75cde9f",
      "identifier": {
        "value": "59132"
      },
      "questionnaire": {
        "reference": "urn:uuid:87fb376a-06cc-4b1f-97a1-a56bf39d6cc2"
      },
      "status": "completed",
      "subject": {
        "reference": "urn:uuid:729c5618-817e-4b25-a5d0-0959360167eb"
      },
      "context": {
        "reference": "urn:uuid:9a080412-3b06-495b-98b1-a28049364f9d"
      },
      "authored": "2021-04-06T11:33:34+00:00",
      "item": [ {
        "linkId": "Tx61025",
        "text": "Are you so breathless that speaking more than a few words is impossible?",
        "answer": [ {
          "valueString": "no"
        } ]
      } ]
    }
  }, {
    "fullUrl": "urn:uuid:87fb376a-06cc-4b1f-97a1-a56bf39d6cc2",
    "resource": {
      "resourceType": "Questionnaire",
      "id": "87fb376a-06cc-4b1f-97a1-a56bf39d6cc2",
      "identifier": [ {
        "value": "59132"
      } ],
      "version": "2021-04-06T11:33:34.963Z",
      "status": "active",
      "experimental": false,
      "date": "2021-04-06T11:33:34+00:00",
      "publisher": "User ID: 'MCDONALDD' User name: 'Denzle McDonald' User skill set: 'T3'",
      "lastReviewDate": "2021-04-06",
      "subjectType": [ "Patient" ],
      "item": [ {
        "linkId": "59132",
        "prefix": "0",
        "text": "Are you so breathless that speaking more than a few words is impossible?",
        "type": "choice",
        "required": true,
        "repeats": false,
        "option": [ {
          "valueString": "yes, Selected: false"
        }, {
          "valueString": "not sure, Selected: false"
        }, {
          "valueString": "no, Selected: true"
        } ]
      } ]
    }
  }, {
    "fullUrl": "urn:uuid:15b0fcf1-fee9-44c0-9802-08f192d6206f",
    "resource": {
      "resourceType": "QuestionnaireResponse",
      "id": "15b0fcf1-fee9-44c0-9802-08f192d6206f",
      "identifier": {
        "value": "59132"
      },
      "questionnaire": {
        "reference": "urn:uuid:bac5ad6d-a30f-4b79-95aa-9eb48968e169"
      },
      "status": "completed",
      "subject": {
        "reference": "urn:uuid:729c5618-817e-4b25-a5d0-0959360167eb"
      },
      "context": {
        "reference": "urn:uuid:9a080412-3b06-495b-98b1-a28049364f9d"
      },
      "authored": "2021-04-06T11:33:34+00:00",
      "item": [ {
        "linkId": "Tx220845",
        "text": "SYSTEM_FLUPANDEMIC",
        "answer": [ {
          "valueString": "*"
        } ]
      } ]
    }
  }, {
    "fullUrl": "urn:uuid:bac5ad6d-a30f-4b79-95aa-9eb48968e169",
    "resource": {
      "resourceType": "Questionnaire",
      "id": "bac5ad6d-a30f-4b79-95aa-9eb48968e169",
      "identifier": [ {
        "value": "59132"
      } ],
      "version": "2021-04-06T11:33:34.963Z",
      "status": "active",
      "experimental": false,
      "date": "2021-04-06T11:33:34+00:00",
      "publisher": "User ID: 'MCDONALDD' User name: 'Denzle McDonald' User skill set: 'T3'",
      "lastReviewDate": "2021-04-06",
      "subjectType": [ "Patient" ],
      "item": [ {
        "linkId": "59132",
        "prefix": "100",
        "text": "SYSTEM_FLUPANDEMIC",
        "type": "choice",
        "required": true,
        "repeats": false,
        "option": [ {
          "valueString": "==\"pandemic\", Selected: false"
        }, {
          "valueString": "*, Selected: true"
        } ]
      } ]
    }
  }, {
    "fullUrl": "urn:uuid:4e53e8f4-8591-463a-bb13-c8f7040d73eb",
    "resource": {
      "resourceType": "QuestionnaireResponse",
      "id": "4e53e8f4-8591-463a-bb13-c8f7040d73eb",
      "identifier": {
        "value": "59132"
      },
      "questionnaire": {
        "reference": "urn:uuid:bbfc2b14-e379-4263-b899-39bbe0206e43"
      },
      "status": "completed",
      "subject": {
        "reference": "urn:uuid:729c5618-817e-4b25-a5d0-0959360167eb"
      },
      "context": {
        "reference": "urn:uuid:9a080412-3b06-495b-98b1-a28049364f9d"
      },
      "authored": "2021-04-06T11:33:34+00:00",
      "item": [ {
        "linkId": "Tx220044",
        "text": "WHAT IS SAID TO BE THE MAIN REASON FOR THIS CONTACT?",
        "answer": [ {
          "valueString": "more"
        } ]
      } ]
    }
  }, {
    "fullUrl": "urn:uuid:bbfc2b14-e379-4263-b899-39bbe0206e43",
    "resource": {
      "resourceType": "Questionnaire",
      "id": "bbfc2b14-e379-4263-b899-39bbe0206e43",
      "identifier": [ {
        "value": "59132"
      } ],
      "version": "2021-04-06T11:33:34.963Z",
      "status": "active",
      "experimental": false,
      "date": "2021-04-06T11:33:34+00:00",
      "publisher": "User ID: 'MCDONALDD' User name: 'Denzle McDonald' User skill set: 'T3'",
      "lastReviewDate": "2021-04-06",
      "subjectType": [ "Patient" ],
      "item": [ {
        "linkId": "59132",
        "prefix": "5000",
        "text": "WHAT IS SAID TO BE THE MAIN REASON FOR THIS CONTACT?",
        "type": "choice",
        "required": true,
        "repeats": false,
        "option": [ {
          "valueString": "a probable allergic reaction now, Selected: false"
        }, {
          "valueString": "chest or upper back pain, Selected: false"
        }, {
          "valueString": "a probable fit or seizure within the last 12 hours, Selected: false"
        }, {
          "valueString": "a suicide attempt, Selected: false"
        }, {
          "valueString": "new confusion now, Selected: false"
        }, {
          "valueString": "a probable stroke or mini stroke, Selected: false"
        }, {
          "valueString": "more, Selected: true"
        } ]
      } ]
    }
  }, {
    "fullUrl": "urn:uuid:8c513dbe-4cc0-4212-a572-d302a336c0d7",
    "resource": {
      "resourceType": "QuestionnaireResponse",
      "id": "8c513dbe-4cc0-4212-a572-d302a336c0d7",
      "identifier": {
        "value": "59132"
      },
      "questionnaire": {
        "reference": "urn:uuid:9f127a16-9536-44d7-a5c0-c500da8b310a"
      },
      "status": "completed",
      "subject": {
        "reference": "urn:uuid:729c5618-817e-4b25-a5d0-0959360167eb"
      },
      "context": {
        "reference": "urn:uuid:9a080412-3b06-495b-98b1-a28049364f9d"
      },
      "authored": "2021-04-06T11:33:34+00:00",
      "item": [ {
        "linkId": "Tx223029",
        "text": "WHAT IS SAID TO BE THE MAIN REASON FOR THIS CONTACT?",
        "answer": [ {
          "valueString": "none of the above"
        } ]
      } ]
    }
  }, {
    "fullUrl": "urn:uuid:9f127a16-9536-44d7-a5c0-c500da8b310a",
    "resource": {
      "resourceType": "Questionnaire",
      "id": "9f127a16-9536-44d7-a5c0-c500da8b310a",
      "identifier": [ {
        "value": "59132"
      } ],
      "version": "2021-04-06T11:33:34.963Z",
      "status": "active",
      "experimental": false,
      "date": "2021-04-06T11:33:34+00:00",
      "publisher": "User ID: 'MCDONALDD' User name: 'Denzle McDonald' User skill set: 'T3'",
      "lastReviewDate": "2021-04-06",
      "subjectType": [ "Patient" ],
      "item": [ {
        "linkId": "59132",
        "prefix": "4100",
        "text": "WHAT IS SAID TO BE THE MAIN REASON FOR THIS CONTACT?",
        "type": "choice",
        "required": true,
        "repeats": false,
        "option": [ {
          "valueString": "a diabetic hypo (low blood sugar) or a diabetic hyper (high blood sugar), Selected: false"
        }, {
          "valueString": "recovery from an ICD (implanted cardioverter defibrillator) shock, Selected: false"
        }, {
          "valueString": "none of the above, Selected: true"
        } ]
      } ]
    }
  }, {
    "fullUrl": "urn:uuid:5d98c2a9-b132-4f38-8bb5-ef8f8c204f09",
    "resource": {
      "resourceType": "QuestionnaireResponse",
      "id": "5d98c2a9-b132-4f38-8bb5-ef8f8c204f09",
      "identifier": {
        "value": "59132"
      },
      "questionnaire": {
        "reference": "urn:uuid:fb116781-3429-47ee-b640-a791d1f74bf0"
      },
      "status": "completed",
      "subject": {
        "reference": "urn:uuid:729c5618-817e-4b25-a5d0-0959360167eb"
      },
      "context": {
        "reference": "urn:uuid:9a080412-3b06-495b-98b1-a28049364f9d"
      },
      "authored": "2021-04-06T11:33:34+00:00",
      "item": [ {
        "linkId": "Tx223142",
        "text": "Does the skin on the chest, back or abdomen feel a normal temperature?",
        "answer": [ {
          "valueString": "yes - normal, warm or hot"
        } ]
      } ]
    }
  }, {
    "fullUrl": "urn:uuid:fb116781-3429-47ee-b640-a791d1f74bf0",
    "resource": {
      "resourceType": "Questionnaire",
      "id": "fb116781-3429-47ee-b640-a791d1f74bf0",
      "identifier": [ {
        "value": "59132"
      } ],
      "version": "2021-04-06T11:33:34.963Z",
      "status": "active",
      "experimental": false,
      "date": "2021-04-06T11:33:34+00:00",
      "publisher": "User ID: 'MCDONALDD' User name: 'Denzle McDonald' User skill set: 'T3'",
      "lastReviewDate": "2021-04-06",
      "subjectType": [ "Patient" ],
      "item": [ {
        "linkId": "59132",
        "prefix": "4400",
        "text": "Does the skin on the chest, back or abdomen feel a normal temperature?",
        "type": "choice",
        "required": true,
        "repeats": false,
        "option": [ {
          "valueString": "yes - normal, warm or hot, Selected: true"
        }, {
          "valueString": "not sure, Selected: false"
        }, {
          "valueString": "no - cool OR cold, Selected: false"
        }, {
          "valueString": "not safe to touch, Selected: false"
        } ]
      } ]
    }
  }, {
    "fullUrl": "urn:uuid:eb2c5deb-848d-4d8b-bf04-b89858f6dd20",
    "resource": {
      "resourceType": "QuestionnaireResponse",
      "id": "eb2c5deb-848d-4d8b-bf04-b89858f6dd20",
      "identifier": {
        "value": "59132"
      },
      "questionnaire": {
        "reference": "urn:uuid:20cd9a2c-5ac8-4b19-ba2b-77f40146f5d7"
      },
      "status": "completed",
      "subject": {
        "reference": "urn:uuid:729c5618-817e-4b25-a5d0-0959360167eb"
      },
      "context": {
        "reference": "urn:uuid:9a080412-3b06-495b-98b1-a28049364f9d"
      },
      "authored": "2021-04-06T11:33:34+00:00",
      "item": [ {
        "linkId": "Tx221724",
        "text": "STRING:ShockAsked",
        "answer": [ {
          "valueString": "\"present\""
        } ]
      } ]
    }
  }, {
    "fullUrl": "urn:uuid:20cd9a2c-5ac8-4b19-ba2b-77f40146f5d7",
    "resource": {
      "resourceType": "Questionnaire",
      "id": "20cd9a2c-5ac8-4b19-ba2b-77f40146f5d7",
      "identifier": [ {
        "value": "59132"
      } ],
      "version": "2021-04-06T11:33:34.963Z",
      "status": "active",
      "experimental": false,
      "date": "2021-04-06T11:33:34+00:00",
      "publisher": "User ID: 'MCDONALDD' User name: 'Denzle McDonald' User skill set: 'T3'",
      "lastReviewDate": "2021-04-06",
      "subjectType": [ "Patient" ],
      "item": [ {
        "linkId": "59132",
        "prefix": "3300",
        "text": "STRING:ShockAsked",
        "type": "choice",
        "required": true,
        "repeats": false,
        "option": [ {
          "valueString": "\"present\", Selected: true"
        } ]
      } ]
    }
  }, {
    "fullUrl": "urn:uuid:0a9e96cc-e6aa-4714-a1c9-3af4d624126e",
    "resource": {
      "resourceType": "QuestionnaireResponse",
      "id": "0a9e96cc-e6aa-4714-a1c9-3af4d624126e",
      "identifier": {
        "value": "59132"
      },
      "questionnaire": {
        "reference": "urn:uuid:d364d0e0-d996-4e5a-98cc-8a84465c2aee"
      },
      "status": "completed",
      "subject": {
        "reference": "urn:uuid:729c5618-817e-4b25-a5d0-0959360167eb"
      },
      "context": {
        "reference": "urn:uuid:9a080412-3b06-495b-98b1-a28049364f9d"
      },
      "authored": "2021-04-06T11:33:34+00:00"
    }
  }, {
    "fullUrl": "urn:uuid:d364d0e0-d996-4e5a-98cc-8a84465c2aee",
    "resource": {
      "resourceType": "Questionnaire",
      "id": "d364d0e0-d996-4e5a-98cc-8a84465c2aee",
      "identifier": [ {
        "value": "59132"
      } ],
      "version": "2021-04-06T11:33:34.963Z",
      "status": "active",
      "experimental": false,
      "date": "2021-04-06T11:33:34+00:00",
      "publisher": "User ID: 'MCDONALDD' User name: 'Denzle McDonald' User skill set: 'T3'",
      "lastReviewDate": "2021-04-06",
      "subjectType": [ "Patient" ]
    }
  }, {
    "fullUrl": "urn:uuid:ee1e00e6-6802-45ed-9cb8-d8833c7616e2",
    "resource": {
      "resourceType": "QuestionnaireResponse",
      "id": "ee1e00e6-6802-45ed-9cb8-d8833c7616e2",
      "identifier": {
        "value": "59132"
      },
      "questionnaire": {
        "reference": "urn:uuid:f7bea527-4e61-41ba-b46f-e180d949b239"
      },
      "status": "completed",
      "subject": {
        "reference": "urn:uuid:729c5618-817e-4b25-a5d0-0959360167eb"
      },
      "context": {
        "reference": "urn:uuid:9a080412-3b06-495b-98b1-a28049364f9d"
      },
      "authored": "2021-04-06T11:33:34+00:00",
      "item": [ {
        "linkId": "Tx223272",
        "text": "SYSTEM_VHF",
        "answer": [ {
          "valueString": "*"
        } ]
      } ]
    }
  }, {
    "fullUrl": "urn:uuid:f7bea527-4e61-41ba-b46f-e180d949b239",
    "resource": {
      "resourceType": "Questionnaire",
      "id": "f7bea527-4e61-41ba-b46f-e180d949b239",
      "identifier": [ {
        "value": "59132"
      } ],
      "version": "2021-04-06T11:33:34.963Z",
      "status": "active",
      "experimental": false,
      "date": "2021-04-06T11:33:34+00:00",
      "publisher": "User ID: 'MCDONALDD' User name: 'Denzle McDonald' User skill set: 'T3'",
      "lastReviewDate": "2021-04-06",
      "subjectType": [ "Patient" ],
      "item": [ {
        "linkId": "59132",
        "prefix": "0",
        "text": "SYSTEM_VHF",
        "type": "choice",
        "required": true,
        "repeats": false,
        "option": [ {
          "valueString": "==\"vhf\", Selected: false"
        }, {
          "valueString": "*, Selected: true"
        } ]
      } ]
    }
  }, {
    "fullUrl": "urn:uuid:ac70abc1-9d19-49f5-9a7a-93817584ce39",
    "resource": {
      "resourceType": "QuestionnaireResponse",
      "id": "ac70abc1-9d19-49f5-9a7a-93817584ce39",
      "identifier": {
        "value": "59132"
      },
      "questionnaire": {
        "reference": "urn:uuid:313e1907-2e32-4f14-8321-e24fa9ed5daa"
      },
      "status": "completed",
      "subject": {
        "reference": "urn:uuid:729c5618-817e-4b25-a5d0-0959360167eb"
      },
      "context": {
        "reference": "urn:uuid:9a080412-3b06-495b-98b1-a28049364f9d"
      },
      "authored": "2021-04-06T11:33:34+00:00",
      "item": [ {
        "linkId": "Tx222416",
        "text": "Have you actually vomited?",
        "answer": [ {
          "valueString": "no"
        } ]
      } ]
    }
  }, {
    "fullUrl": "urn:uuid:313e1907-2e32-4f14-8321-e24fa9ed5daa",
    "resource": {
      "resourceType": "Questionnaire",
      "id": "313e1907-2e32-4f14-8321-e24fa9ed5daa",
      "identifier": [ {
        "value": "59132"
      } ],
      "version": "2021-04-06T11:33:34.963Z",
      "status": "active",
      "experimental": false,
      "date": "2021-04-06T11:33:34+00:00",
      "publisher": "User ID: 'MCDONALDD' User name: 'Denzle McDonald' User skill set: 'T3'",
      "lastReviewDate": "2021-04-06",
      "subjectType": [ "Patient" ],
      "item": [ {
        "linkId": "59132",
        "prefix": "30400",
        "text": "Have you actually vomited?",
        "type": "choice",
        "required": true,
        "repeats": false,
        "option": [ {
          "valueString": "yes, Selected: false"
        }, {
          "valueString": "not sure, Selected: false"
        }, {
          "valueString": "no, Selected: true"
        } ]
      } ]
    }
  }, {
    "fullUrl": "urn:uuid:aec58cb3-adbd-4f35-a929-9b1732beffd9",
    "resource": {
      "resourceType": "QuestionnaireResponse",
      "id": "aec58cb3-adbd-4f35-a929-9b1732beffd9",
      "identifier": {
        "value": "59132"
      },
      "questionnaire": {
        "reference": "urn:uuid:d374c4fa-20e9-4be1-9c29-3483c37b3a3c"
      },
      "status": "completed",
      "subject": {
        "reference": "urn:uuid:729c5618-817e-4b25-a5d0-0959360167eb"
      },
      "context": {
        "reference": "urn:uuid:9a080412-3b06-495b-98b1-a28049364f9d"
      },
      "authored": "2021-04-06T11:33:34+00:00",
      "item": [ {
        "linkId": "Tx220964",
        "text": "Have you got diarrhoea as well?",
        "answer": [ {
          "valueString": "no"
        } ]
      } ]
    }
  }, {
    "fullUrl": "urn:uuid:d374c4fa-20e9-4be1-9c29-3483c37b3a3c",
    "resource": {
      "resourceType": "Questionnaire",
      "id": "d374c4fa-20e9-4be1-9c29-3483c37b3a3c",
      "identifier": [ {
        "value": "59132"
      } ],
      "version": "2021-04-06T11:33:34.963Z",
      "status": "active",
      "experimental": false,
      "date": "2021-04-06T11:33:34+00:00",
      "publisher": "User ID: 'MCDONALDD' User name: 'Denzle McDonald' User skill set: 'T3'",
      "lastReviewDate": "2021-04-06",
      "subjectType": [ "Patient" ],
      "item": [ {
        "linkId": "59132",
        "prefix": "100",
        "text": "Have you got diarrhoea as well?",
        "type": "choice",
        "required": true,
        "repeats": false,
        "option": [ {
          "valueString": "yes, Selected: false"
        }, {
          "valueString": "not sure, Selected: false"
        }, {
          "valueString": "no, Selected: true"
        } ]
      } ]
    }
  }, {
    "fullUrl": "urn:uuid:a040d44b-e8b1-406d-8dd1-794f3f69b85d",
    "resource": {
      "resourceType": "QuestionnaireResponse",
      "id": "a040d44b-e8b1-406d-8dd1-794f3f69b85d",
      "identifier": {
        "value": "59132"
      },
      "questionnaire": {
        "reference": "urn:uuid:99e15ae6-7804-4d58-83f7-5fd4626989b6"
      },
      "status": "completed",
      "subject": {
        "reference": "urn:uuid:729c5618-817e-4b25-a5d0-0959360167eb"
      },
      "context": {
        "reference": "urn:uuid:9a080412-3b06-495b-98b1-a28049364f9d"
      },
      "authored": "2021-04-06T11:33:34+00:00",
      "item": [ {
        "linkId": "Tx221277",
        "text": "Vomiting",
        "answer": [ {
          "valueString": "*"
        } ]
      } ]
    }
  }, {
    "fullUrl": "urn:uuid:99e15ae6-7804-4d58-83f7-5fd4626989b6",
    "resource": {
      "resourceType": "Questionnaire",
      "id": "99e15ae6-7804-4d58-83f7-5fd4626989b6",
      "identifier": [ {
        "value": "59132"
      } ],
      "version": "2021-04-06T11:33:34.963Z",
      "status": "active",
      "experimental": false,
      "date": "2021-04-06T11:33:34+00:00",
      "publisher": "User ID: 'MCDONALDD' User name: 'Denzle McDonald' User skill set: 'T3'",
      "lastReviewDate": "2021-04-06",
      "subjectType": [ "Patient" ],
      "item": [ {
        "linkId": "59132",
        "prefix": "400",
        "text": "Vomiting",
        "type": "choice",
        "required": true,
        "repeats": false,
        "option": [ {
          "valueString": "==\"present\", Selected: false"
        }, {
          "valueString": "*, Selected: true"
        } ]
      } ]
    }
  }, {
    "fullUrl": "urn:uuid:4c12d97f-57a8-4b73-8963-54ed73a002d5",
    "resource": {
      "resourceType": "QuestionnaireResponse",
      "id": "4c12d97f-57a8-4b73-8963-54ed73a002d5",
      "identifier": {
        "value": "59132"
      },
      "questionnaire": {
        "reference": "urn:uuid:2c3fe700-fd66-4e26-9b8c-4a252b83a273"
      },
      "status": "completed",
      "subject": {
        "reference": "urn:uuid:729c5618-817e-4b25-a5d0-0959360167eb"
      },
      "context": {
        "reference": "urn:uuid:9a080412-3b06-495b-98b1-a28049364f9d"
      },
      "authored": "2021-04-06T11:33:34+00:00",
      "item": [ {
        "linkId": "Tx221183",
        "text": "Did the symptoms come on after drinking alcohol?",
        "answer": [ {
          "valueString": "no"
        } ]
      } ]
    }
  }, {
    "fullUrl": "urn:uuid:2c3fe700-fd66-4e26-9b8c-4a252b83a273",
    "resource": {
      "resourceType": "Questionnaire",
      "id": "2c3fe700-fd66-4e26-9b8c-4a252b83a273",
      "identifier": [ {
        "value": "59132"
      } ],
      "version": "2021-04-06T11:33:34.963Z",
      "status": "active",
      "experimental": false,
      "date": "2021-04-06T11:33:34+00:00",
      "publisher": "User ID: 'MCDONALDD' User name: 'Denzle McDonald' User skill set: 'T3'",
      "lastReviewDate": "2021-04-06",
      "subjectType": [ "Patient" ],
      "item": [ {
        "linkId": "59132",
        "prefix": "300",
        "text": "Did the symptoms come on after drinking alcohol?",
        "type": "choice",
        "required": true,
        "repeats": false,
        "option": [ {
          "valueString": "yes, Selected: false"
        }, {
          "valueString": "not sure, Selected: false"
        }, {
          "valueString": "no, Selected: true"
        } ]
      } ]
    }
  }, {
    "fullUrl": "urn:uuid:7ce8b38a-32b1-41f5-82ea-5e83fc8485c1",
    "resource": {
      "resourceType": "QuestionnaireResponse",
      "id": "7ce8b38a-32b1-41f5-82ea-5e83fc8485c1",
      "identifier": {
        "value": "59132"
      },
      "questionnaire": {
        "reference": "urn:uuid:5b3b0780-6ad2-44d4-893e-8ca88724c1ff"
      },
      "status": "completed",
      "subject": {
        "reference": "urn:uuid:729c5618-817e-4b25-a5d0-0959360167eb"
      },
      "context": {
        "reference": "urn:uuid:9a080412-3b06-495b-98b1-a28049364f9d"
      },
      "authored": "2021-04-06T11:33:34+00:00",
      "item": [ {
        "linkId": "Tx221277",
        "text": "Vomiting",
        "answer": [ {
          "valueString": "*"
        } ]
      } ]
    }
  }, {
    "fullUrl": "urn:uuid:5b3b0780-6ad2-44d4-893e-8ca88724c1ff",
    "resource": {
      "resourceType": "Questionnaire",
      "id": "5b3b0780-6ad2-44d4-893e-8ca88724c1ff",
      "identifier": [ {
        "value": "59132"
      } ],
      "version": "2021-04-06T11:33:34.963Z",
      "status": "active",
      "experimental": false,
      "date": "2021-04-06T11:33:34+00:00",
      "publisher": "User ID: 'MCDONALDD' User name: 'Denzle McDonald' User skill set: 'T3'",
      "lastReviewDate": "2021-04-06",
      "subjectType": [ "Patient" ],
      "item": [ {
        "linkId": "59132",
        "prefix": "1000",
        "text": "Vomiting",
        "type": "choice",
        "required": true,
        "repeats": false,
        "option": [ {
          "valueString": "==\"present\", Selected: false"
        }, {
          "valueString": "*, Selected: true"
        } ]
      } ]
    }
  }, {
    "fullUrl": "urn:uuid:80d81f57-ab6a-40b4-9f5c-05e5b1b5dedb",
    "resource": {
      "resourceType": "QuestionnaireResponse",
      "id": "80d81f57-ab6a-40b4-9f5c-05e5b1b5dedb",
      "identifier": {
        "value": "59132"
      },
      "questionnaire": {
        "reference": "urn:uuid:fa5804f5-ab9e-4896-a4df-2a60d3d44749"
      },
      "status": "completed",
      "subject": {
        "reference": "urn:uuid:729c5618-817e-4b25-a5d0-0959360167eb"
      },
      "context": {
        "reference": "urn:uuid:9a080412-3b06-495b-98b1-a28049364f9d"
      },
      "authored": "2021-04-06T11:33:34+00:00",
      "item": [ {
        "linkId": "Tx220825",
        "text": "Have you also got any pain in the abdomen?",
        "answer": [ {
          "valueString": "yes"
        } ]
      } ]
    }
  }, {
    "fullUrl": "urn:uuid:fa5804f5-ab9e-4896-a4df-2a60d3d44749",
    "resource": {
      "resourceType": "Questionnaire",
      "id": "fa5804f5-ab9e-4896-a4df-2a60d3d44749",
      "identifier": [ {
        "value": "59132"
      } ],
      "version": "2021-04-06T11:33:34.963Z",
      "status": "active",
      "experimental": false,
      "date": "2021-04-06T11:33:34+00:00",
      "publisher": "User ID: 'MCDONALDD' User name: 'Denzle McDonald' User skill set: 'T3'",
      "lastReviewDate": "2021-04-06",
      "subjectType": [ "Patient" ],
      "item": [ {
        "linkId": "59132",
        "prefix": "1500",
        "text": "Have you also got any pain in the abdomen?",
        "type": "choice",
        "required": true,
        "repeats": false,
        "option": [ {
          "valueString": "yes, Selected: true"
        }, {
          "valueString": "not sure, Selected: false"
        }, {
          "valueString": "no, Selected: false"
        } ]
      } ]
    }
  }, {
    "fullUrl": "urn:uuid:5c2a49ed-fac6-4406-af28-902c4ac2a5f4",
    "resource": {
      "resourceType": "QuestionnaireResponse",
      "id": "5c2a49ed-fac6-4406-af28-902c4ac2a5f4",
      "identifier": {
        "value": "59132"
      },
      "questionnaire": {
        "reference": "urn:uuid:8d03100e-8de0-4023-970a-8046a88e3a37"
      },
      "status": "completed",
      "subject": {
        "reference": "urn:uuid:729c5618-817e-4b25-a5d0-0959360167eb"
      },
      "context": {
        "reference": "urn:uuid:9a080412-3b06-495b-98b1-a28049364f9d"
      },
      "authored": "2021-04-06T11:33:34+00:00",
      "item": [ {
        "linkId": "Tx224927",
        "text": "STRING:VomitingAnd/OrNauseaWithAbdominalPainPW",
        "answer": [ {
          "valueString": "\"present\""
        } ]
      } ]
    }
  }, {
    "fullUrl": "urn:uuid:8d03100e-8de0-4023-970a-8046a88e3a37",
    "resource": {
      "resourceType": "Questionnaire",
      "id": "8d03100e-8de0-4023-970a-8046a88e3a37",
      "identifier": [ {
        "value": "59132"
      } ],
      "version": "2021-04-06T11:33:34.963Z",
      "status": "active",
      "experimental": false,
      "date": "2021-04-06T11:33:34+00:00",
      "publisher": "User ID: 'MCDONALDD' User name: 'Denzle McDonald' User skill set: 'T3'",
      "lastReviewDate": "2021-04-06",
      "subjectType": [ "Patient" ],
      "item": [ {
        "linkId": "59132",
        "prefix": "64600",
        "text": "STRING:VomitingAnd/OrNauseaWithAbdominalPainPW",
        "type": "choice",
        "required": true,
        "repeats": false,
        "option": [ {
          "valueString": "\"present\", Selected: true"
        } ]
      } ]
    }
  }, {
    "fullUrl": "urn:uuid:208cbbf2-12b8-4d89-a954-18962f9b768b",
    "resource": {
      "resourceType": "QuestionnaireResponse",
      "id": "208cbbf2-12b8-4d89-a954-18962f9b768b",
      "identifier": {
        "value": "59132"
      },
      "questionnaire": {
        "reference": "urn:uuid:f6d5c0f0-fe99-4620-b063-9af1c472e940"
      },
      "status": "completed",
      "subject": {
        "reference": "urn:uuid:729c5618-817e-4b25-a5d0-0959360167eb"
      },
      "context": {
        "reference": "urn:uuid:9a080412-3b06-495b-98b1-a28049364f9d"
      },
      "authored": "2021-04-06T11:33:34+00:00",
      "item": [ {
        "linkId": "Tx224907",
        "text": "STRING:GITSymptomWithAbdominalPain",
        "answer": [ {
          "valueString": "\"present\""
        } ]
      } ]
    }
  }, {
    "fullUrl": "urn:uuid:f6d5c0f0-fe99-4620-b063-9af1c472e940",
    "resource": {
      "resourceType": "Questionnaire",
      "id": "f6d5c0f0-fe99-4620-b063-9af1c472e940",
      "identifier": [ {
        "value": "59132"
      } ],
      "version": "2021-04-06T11:33:34.963Z",
      "status": "active",
      "experimental": false,
      "date": "2021-04-06T11:33:34+00:00",
      "publisher": "User ID: 'MCDONALDD' User name: 'Denzle McDonald' User skill set: 'T3'",
      "lastReviewDate": "2021-04-06",
      "subjectType": [ "Patient" ],
      "item": [ {
        "linkId": "59132",
        "prefix": "64700",
        "text": "STRING:GITSymptomWithAbdominalPain",
        "type": "choice",
        "required": true,
        "repeats": false,
        "option": [ {
          "valueString": "\"present\", Selected: true"
        } ]
      } ]
    }
  }, {
    "fullUrl": "urn:uuid:842a9cbc-a123-42d5-8844-3dd0b77acad6",
    "resource": {
      "resourceType": "QuestionnaireResponse",
      "id": "842a9cbc-a123-42d5-8844-3dd0b77acad6",
      "identifier": {
        "value": "59132"
      },
      "questionnaire": {
        "reference": "urn:uuid:98b1bc06-3559-4ac9-970b-0a114a720ee4"
      },
      "status": "completed",
      "subject": {
        "reference": "urn:uuid:729c5618-817e-4b25-a5d0-0959360167eb"
      },
      "context": {
        "reference": "urn:uuid:9a080412-3b06-495b-98b1-a28049364f9d"
      },
      "authored": "2021-04-06T11:33:34+00:00"
    }
  }, {
    "fullUrl": "urn:uuid:98b1bc06-3559-4ac9-970b-0a114a720ee4",
    "resource": {
      "resourceType": "Questionnaire",
      "id": "98b1bc06-3559-4ac9-970b-0a114a720ee4",
      "identifier": [ {
        "value": "59132"
      } ],
      "version": "2021-04-06T11:33:34.963Z",
      "status": "active",
      "experimental": false,
      "date": "2021-04-06T11:33:34+00:00",
      "publisher": "User ID: 'MCDONALDD' User name: 'Denzle McDonald' User skill set: 'T3'",
      "lastReviewDate": "2021-04-06",
      "subjectType": [ "Patient" ]
    }
  }, {
    "fullUrl": "urn:uuid:68e2714a-e6d5-4edc-a4f4-9dca927fad2b",
    "resource": {
      "resourceType": "QuestionnaireResponse",
      "id": "68e2714a-e6d5-4edc-a4f4-9dca927fad2b",
      "identifier": {
        "value": "59132"
      },
      "questionnaire": {
        "reference": "urn:uuid:e988163a-84ce-4ed7-99cf-39ee512c76a0"
      },
      "status": "completed",
      "subject": {
        "reference": "urn:uuid:729c5618-817e-4b25-a5d0-0959360167eb"
      },
      "context": {
        "reference": "urn:uuid:9a080412-3b06-495b-98b1-a28049364f9d"
      },
      "authored": "2021-04-06T11:33:34+00:00",
      "item": [ {
        "linkId": "Tx221039",
        "text": "PATIENT_AGEGROUP",
        "answer": [ {
          "valueString": "==\"CHILD\""
        } ]
      } ]
    }
  }, {
    "fullUrl": "urn:uuid:e988163a-84ce-4ed7-99cf-39ee512c76a0",
    "resource": {
      "resourceType": "Questionnaire",
      "id": "e988163a-84ce-4ed7-99cf-39ee512c76a0",
      "identifier": [ {
        "value": "59132"
      } ],
      "version": "2021-04-06T11:33:34.963Z",
      "status": "active",
      "experimental": false,
      "date": "2021-04-06T11:33:34+00:00",
      "publisher": "User ID: 'MCDONALDD' User name: 'Denzle McDonald' User skill set: 'T3'",
      "lastReviewDate": "2021-04-06",
      "subjectType": [ "Patient" ],
      "item": [ {
        "linkId": "59132",
        "prefix": "0",
        "text": "PATIENT_AGEGROUP",
        "type": "choice",
        "required": true,
        "repeats": false,
        "option": [ {
          "valueString": "==\"ADULT\", Selected: false"
        }, {
          "valueString": "==\"CHILD\", Selected: true"
        }, {
          "valueString": "==\"TODDLER\", Selected: false"
        }, {
          "valueString": "==\"INFANT\", Selected: false"
        }, {
          "valueString": "==\"NEONATE\", Selected: false"
        }, {
          "valueString": "*, Selected: false"
        } ]
      } ]
    }
  }, {
    "fullUrl": "urn:uuid:bfa21614-45a6-4577-96c7-99f63b0dc35a",
    "resource": {
      "resourceType": "QuestionnaireResponse",
      "id": "bfa21614-45a6-4577-96c7-99f63b0dc35a",
      "identifier": {
        "value": "59132"
      },
      "questionnaire": {
        "reference": "urn:uuid:cef04e0b-b234-4145-8e90-104625217a39"
      },
      "status": "completed",
      "subject": {
        "reference": "urn:uuid:729c5618-817e-4b25-a5d0-0959360167eb"
      },
      "context": {
        "reference": "urn:uuid:9a080412-3b06-495b-98b1-a28049364f9d"
      },
      "authored": "2021-04-06T11:33:34+00:00",
      "item": [ {
        "linkId": "Tx224919",
        "text": "PATIENT_AGE",
        "answer": [ {
          "valueString": "<11"
        } ]
      } ]
    }
  }, {
    "fullUrl": "urn:uuid:cef04e0b-b234-4145-8e90-104625217a39",
    "resource": {
      "resourceType": "Questionnaire",
      "id": "cef04e0b-b234-4145-8e90-104625217a39",
      "identifier": [ {
        "value": "59132"
      } ],
      "version": "2021-04-06T11:33:34.963Z",
      "status": "active",
      "experimental": false,
      "date": "2021-04-06T11:33:34+00:00",
      "publisher": "User ID: 'MCDONALDD' User name: 'Denzle McDonald' User skill set: 'T3'",
      "lastReviewDate": "2021-04-06",
      "subjectType": [ "Patient" ],
      "item": [ {
        "linkId": "59132",
        "prefix": "15300",
        "text": "PATIENT_AGE",
        "type": "choice",
        "required": true,
        "repeats": false,
        "option": [ {
          "valueString": "<11, Selected: true"
        }, {
          "valueString": "<13, Selected: false"
        }, {
          "valueString": ">=13, Selected: false"
        }, {
          "valueString": "*, Selected: false"
        } ]
      } ]
    }
  }, {
    "fullUrl": "urn:uuid:3fddad49-e360-4e75-8d04-c7e3d9a56955",
    "resource": {
      "resourceType": "QuestionnaireResponse",
      "id": "3fddad49-e360-4e75-8d04-c7e3d9a56955",
      "identifier": {
        "value": "59132"
      },
      "questionnaire": {
        "reference": "urn:uuid:a65155dc-446a-4fbd-9a0e-67908ff67444"
      },
      "status": "completed",
      "subject": {
        "reference": "urn:uuid:729c5618-817e-4b25-a5d0-0959360167eb"
      },
      "context": {
        "reference": "urn:uuid:9a080412-3b06-495b-98b1-a28049364f9d"
      },
      "authored": "2021-04-06T11:33:34+00:00",
      "item": [ {
        "linkId": "Tx224498",
        "text": "STRING:Under11",
        "answer": [ {
          "valueString": "\"present\""
        } ]
      } ]
    }
  }, {
    "fullUrl": "urn:uuid:a65155dc-446a-4fbd-9a0e-67908ff67444",
    "resource": {
      "resourceType": "Questionnaire",
      "id": "a65155dc-446a-4fbd-9a0e-67908ff67444",
      "identifier": [ {
        "value": "59132"
      } ],
      "version": "2021-04-06T11:33:34.963Z",
      "status": "active",
      "experimental": false,
      "date": "2021-04-06T11:33:34+00:00",
      "publisher": "User ID: 'MCDONALDD' User name: 'Denzle McDonald' User skill set: 'T3'",
      "lastReviewDate": "2021-04-06",
      "subjectType": [ "Patient" ],
      "item": [ {
        "linkId": "59132",
        "prefix": "14800",
        "text": "STRING:Under11",
        "type": "choice",
        "required": true,
        "repeats": false,
        "option": [ {
          "valueString": "\"present\", Selected: true"
        } ]
      } ]
    }
  }, {
    "fullUrl": "urn:uuid:ec37ebc1-d284-41b7-8586-0ee24da30a33",
    "resource": {
      "resourceType": "QuestionnaireResponse",
      "id": "ec37ebc1-d284-41b7-8586-0ee24da30a33",
      "identifier": {
        "value": "59132"
      },
      "questionnaire": {
        "reference": "urn:uuid:8b140f70-5aa9-45e7-9c9b-9c8e0cd87337"
      },
      "status": "completed",
      "subject": {
        "reference": "urn:uuid:729c5618-817e-4b25-a5d0-0959360167eb"
      },
      "context": {
        "reference": "urn:uuid:9a080412-3b06-495b-98b1-a28049364f9d"
      },
      "authored": "2021-04-06T11:33:34+00:00",
      "item": [ {
        "linkId": "Tx224906",
        "text": "AbdominalPainPW",
        "answer": [ {
          "valueString": "*"
        } ]
      } ]
    }
  }, {
    "fullUrl": "urn:uuid:8b140f70-5aa9-45e7-9c9b-9c8e0cd87337",
    "resource": {
      "resourceType": "Questionnaire",
      "id": "8b140f70-5aa9-45e7-9c9b-9c8e0cd87337",
      "identifier": [ {
        "value": "59132"
      } ],
      "version": "2021-04-06T11:33:34.963Z",
      "status": "active",
      "experimental": false,
      "date": "2021-04-06T11:33:34+00:00",
      "publisher": "User ID: 'MCDONALDD' User name: 'Denzle McDonald' User skill set: 'T3'",
      "lastReviewDate": "2021-04-06",
      "subjectType": [ "Patient" ],
      "item": [ {
        "linkId": "59132",
        "prefix": "15600",
        "text": "AbdominalPainPW",
        "type": "choice",
        "required": true,
        "repeats": false,
        "option": [ {
          "valueString": "==\"present\", Selected: false"
        }, {
          "valueString": "*, Selected: true"
        } ]
      } ]
    }
  }, {
    "fullUrl": "urn:uuid:0e2471cb-fa87-437a-9e27-1e591c952c04",
    "resource": {
      "resourceType": "QuestionnaireResponse",
      "id": "0e2471cb-fa87-437a-9e27-1e591c952c04",
      "identifier": {
        "value": "59132"
      },
      "questionnaire": {
        "reference": "urn:uuid:56730f41-8929-4061-9af5-5e66f61acb37"
      },
      "status": "completed",
      "subject": {
        "reference": "urn:uuid:729c5618-817e-4b25-a5d0-0959360167eb"
      },
      "context": {
        "reference": "urn:uuid:9a080412-3b06-495b-98b1-a28049364f9d"
      },
      "authored": "2021-04-06T11:33:34+00:00",
      "item": [ {
        "linkId": "Tx225151",
        "text": "RectalBleedingwithAbdominalPainPW",
        "answer": [ {
          "valueString": "*"
        } ]
      } ]
    }
  }, {
    "fullUrl": "urn:uuid:56730f41-8929-4061-9af5-5e66f61acb37",
    "resource": {
      "resourceType": "Questionnaire",
      "id": "56730f41-8929-4061-9af5-5e66f61acb37",
      "identifier": [ {
        "value": "59132"
      } ],
      "version": "2021-04-06T11:33:34.963Z",
      "status": "active",
      "experimental": false,
      "date": "2021-04-06T11:33:34+00:00",
      "publisher": "User ID: 'MCDONALDD' User name: 'Denzle McDonald' User skill set: 'T3'",
      "lastReviewDate": "2021-04-06",
      "subjectType": [ "Patient" ],
      "item": [ {
        "linkId": "59132",
        "prefix": "21300",
        "text": "RectalBleedingwithAbdominalPainPW",
        "type": "choice",
        "required": true,
        "repeats": false,
        "option": [ {
          "valueString": "==\"present\", Selected: false"
        }, {
          "valueString": "*, Selected: true"
        } ]
      } ]
    }
  }, {
    "fullUrl": "urn:uuid:e0ab3aa1-5601-43ad-9513-af66053b3434",
    "resource": {
      "resourceType": "QuestionnaireResponse",
      "id": "e0ab3aa1-5601-43ad-9513-af66053b3434",
      "identifier": {
        "value": "59132"
      },
      "questionnaire": {
        "reference": "urn:uuid:bc7d30b0-1ee1-493e-9d79-162780cb156f"
      },
      "status": "completed",
      "subject": {
        "reference": "urn:uuid:729c5618-817e-4b25-a5d0-0959360167eb"
      },
      "context": {
        "reference": "urn:uuid:9a080412-3b06-495b-98b1-a28049364f9d"
      },
      "authored": "2021-04-06T11:33:34+00:00",
      "item": [ {
        "linkId": "Tx224908",
        "text": "GITSymptomWithAbdominalPain",
        "answer": [ {
          "valueString": "==\"present\""
        } ]
      } ]
    }
  }, {
    "fullUrl": "urn:uuid:bc7d30b0-1ee1-493e-9d79-162780cb156f",
    "resource": {
      "resourceType": "Questionnaire",
      "id": "bc7d30b0-1ee1-493e-9d79-162780cb156f",
      "identifier": [ {
        "value": "59132"
      } ],
      "version": "2021-04-06T11:33:34.963Z",
      "status": "active",
      "experimental": false,
      "date": "2021-04-06T11:33:34+00:00",
      "publisher": "User ID: 'MCDONALDD' User name: 'Denzle McDonald' User skill set: 'T3'",
      "lastReviewDate": "2021-04-06",
      "subjectType": [ "Patient" ],
      "item": [ {
        "linkId": "59132",
        "prefix": "15700",
        "text": "GITSymptomWithAbdominalPain",
        "type": "choice",
        "required": true,
        "repeats": false,
        "option": [ {
          "valueString": "==\"present\", Selected: true"
        }, {
          "valueString": "*, Selected: false"
        } ]
      } ]
    }
  }, {
    "fullUrl": "urn:uuid:573a2d63-81c9-423b-b472-f779b126780a",
    "resource": {
      "resourceType": "QuestionnaireResponse",
      "id": "573a2d63-81c9-423b-b472-f779b126780a",
      "identifier": {
        "value": "59132"
      },
      "questionnaire": {
        "reference": "urn:uuid:67ba78b0-ddd1-4f7d-8c6f-a1459fc0f575"
      },
      "status": "completed",
      "subject": {
        "reference": "urn:uuid:729c5618-817e-4b25-a5d0-0959360167eb"
      },
      "context": {
        "reference": "urn:uuid:9a080412-3b06-495b-98b1-a28049364f9d"
      },
      "authored": "2021-04-06T11:33:34+00:00"
    }
  }, {
    "fullUrl": "urn:uuid:67ba78b0-ddd1-4f7d-8c6f-a1459fc0f575",
    "resource": {
      "resourceType": "Questionnaire",
      "id": "67ba78b0-ddd1-4f7d-8c6f-a1459fc0f575",
      "identifier": [ {
        "value": "59132"
      } ],
      "version": "2021-04-06T11:33:34.963Z",
      "status": "active",
      "experimental": false,
      "date": "2021-04-06T11:33:34+00:00",
      "publisher": "User ID: 'MCDONALDD' User name: 'Denzle McDonald' User skill set: 'T3'",
      "lastReviewDate": "2021-04-06",
      "subjectType": [ "Patient" ]
    }
  }, {
    "fullUrl": "urn:uuid:c905c542-86fd-4621-8f06-87819adbffc2",
    "resource": {
      "resourceType": "QuestionnaireResponse",
      "id": "c905c542-86fd-4621-8f06-87819adbffc2",
      "identifier": {
        "value": "59132"
      },
      "questionnaire": {
        "reference": "urn:uuid:ec728f4f-89ac-42b7-b1c1-d115390e55a0"
      },
      "status": "completed",
      "subject": {
        "reference": "urn:uuid:729c5618-817e-4b25-a5d0-0959360167eb"
      },
      "context": {
        "reference": "urn:uuid:9a080412-3b06-495b-98b1-a28049364f9d"
      },
      "authored": "2021-04-06T11:33:34+00:00",
      "item": [ {
        "linkId": "Tx221039",
        "text": "PATIENT_AGEGROUP",
        "answer": [ {
          "valueString": "==\"CHILD\""
        } ]
      } ]
    }
  }, {
    "fullUrl": "urn:uuid:ec728f4f-89ac-42b7-b1c1-d115390e55a0",
    "resource": {
      "resourceType": "Questionnaire",
      "id": "ec728f4f-89ac-42b7-b1c1-d115390e55a0",
      "identifier": [ {
        "value": "59132"
      } ],
      "version": "2021-04-06T11:33:34.963Z",
      "status": "active",
      "experimental": false,
      "date": "2021-04-06T11:33:34+00:00",
      "publisher": "User ID: 'MCDONALDD' User name: 'Denzle McDonald' User skill set: 'T3'",
      "lastReviewDate": "2021-04-06",
      "subjectType": [ "Patient" ],
      "item": [ {
        "linkId": "59132",
        "prefix": "0",
        "text": "PATIENT_AGEGROUP",
        "type": "choice",
        "required": true,
        "repeats": false,
        "option": [ {
          "valueString": "==\"ADULT\", Selected: false"
        }, {
          "valueString": "==\"CHILD\", Selected: true"
        }, {
          "valueString": "==\"TODDLER\", Selected: false"
        }, {
          "valueString": "==\"INFANT\", Selected: false"
        }, {
          "valueString": "==\"NEONATE\", Selected: false"
        }, {
          "valueString": "*, Selected: false"
        } ]
      } ]
    }
  }, {
    "fullUrl": "urn:uuid:099d871f-da49-4e2c-98af-0f6721621bef",
    "resource": {
      "resourceType": "QuestionnaireResponse",
      "id": "099d871f-da49-4e2c-98af-0f6721621bef",
      "identifier": {
        "value": "59132"
      },
      "questionnaire": {
        "reference": "urn:uuid:bc3c7ab5-2d59-4dd8-a558-fd8998440cf8"
      },
      "status": "completed",
      "subject": {
        "reference": "urn:uuid:729c5618-817e-4b25-a5d0-0959360167eb"
      },
      "context": {
        "reference": "urn:uuid:9a080412-3b06-495b-98b1-a28049364f9d"
      },
      "authored": "2021-04-06T11:33:34+00:00",
      "item": [ {
        "linkId": "Tx220156",
        "text": "How bad is the pain?",
        "answer": [ {
          "valueString": "bad enough to interfere with normal activity"
        } ]
      } ]
    }
  }, {
    "fullUrl": "urn:uuid:bc3c7ab5-2d59-4dd8-a558-fd8998440cf8",
    "resource": {
      "resourceType": "Questionnaire",
      "id": "bc3c7ab5-2d59-4dd8-a558-fd8998440cf8",
      "identifier": [ {
        "value": "59132"
      } ],
      "version": "2021-04-06T11:33:34.963Z",
      "status": "active",
      "experimental": false,
      "date": "2021-04-06T11:33:34+00:00",
      "publisher": "User ID: 'MCDONALDD' User name: 'Denzle McDonald' User skill set: 'T3'",
      "lastReviewDate": "2021-04-06",
      "subjectType": [ "Patient" ],
      "item": [ {
        "linkId": "59132",
        "prefix": "6500",
        "text": "How bad is the pain?",
        "type": "choice",
        "required": true,
        "repeats": false,
        "option": [ {
          "valueString": "so bad that doing anything is impossible, Selected: false"
        }, {
          "valueString": "bad enough to interfere with normal activity, Selected: true"
        }, {
          "valueString": "neither of the above, Selected: false"
        } ]
      } ]
    }
  }, {
    "fullUrl": "urn:uuid:965eb9e2-f312-41b6-99e4-2ec4afa310ab",
    "resource": {
      "resourceType": "QuestionnaireResponse",
      "id": "965eb9e2-f312-41b6-99e4-2ec4afa310ab",
      "identifier": {
        "value": "59132"
      },
      "questionnaire": {
        "reference": "urn:uuid:b1b20158-af2e-45f1-b381-a97abfb2e622"
      },
      "status": "completed",
      "subject": {
        "reference": "urn:uuid:729c5618-817e-4b25-a5d0-0959360167eb"
      },
      "context": {
        "reference": "urn:uuid:9a080412-3b06-495b-98b1-a28049364f9d"
      },
      "authored": "2021-04-06T11:33:34+00:00",
      "item": [ {
        "linkId": "Tx224664",
        "text": "STRING:ModeratePain",
        "answer": [ {
          "valueString": "\"present\""
        } ]
      } ]
    }
  }, {
    "fullUrl": "urn:uuid:b1b20158-af2e-45f1-b381-a97abfb2e622",
    "resource": {
      "resourceType": "Questionnaire",
      "id": "b1b20158-af2e-45f1-b381-a97abfb2e622",
      "identifier": [ {
        "value": "59132"
      } ],
      "version": "2021-04-06T11:33:34.963Z",
      "status": "active",
      "experimental": false,
      "date": "2021-04-06T11:33:34+00:00",
      "publisher": "User ID: 'MCDONALDD' User name: 'Denzle McDonald' User skill set: 'T3'",
      "lastReviewDate": "2021-04-06",
      "subjectType": [ "Patient" ],
      "item": [ {
        "linkId": "59132",
        "prefix": "6600",
        "text": "STRING:ModeratePain",
        "type": "choice",
        "required": true,
        "repeats": false,
        "option": [ {
          "valueString": "\"present\", Selected: true"
        } ]
      } ]
    }
  }, {
    "fullUrl": "urn:uuid:a64ecc85-c9f5-4322-b1f9-7a2aa11e7ad0",
    "resource": {
      "resourceType": "QuestionnaireResponse",
      "id": "a64ecc85-c9f5-4322-b1f9-7a2aa11e7ad0",
      "identifier": {
        "value": "59132"
      },
      "questionnaire": {
        "reference": "urn:uuid:443a317e-fa1b-4fed-a28d-c8de8a748793"
      },
      "status": "completed",
      "subject": {
        "reference": "urn:uuid:729c5618-817e-4b25-a5d0-0959360167eb"
      },
      "context": {
        "reference": "urn:uuid:9a080412-3b06-495b-98b1-a28049364f9d"
      },
      "authored": "2021-04-06T11:33:34+00:00",
      "item": [ {
        "linkId": "Tx170003",
        "text": "PATIENT_PARTY",
        "answer": [ {
          "valueString": "==1"
        } ]
      } ]
    }
  }, {
    "fullUrl": "urn:uuid:443a317e-fa1b-4fed-a28d-c8de8a748793",
    "resource": {
      "resourceType": "Questionnaire",
      "id": "443a317e-fa1b-4fed-a28d-c8de8a748793",
      "identifier": [ {
        "value": "59132"
      } ],
      "version": "2021-04-06T11:33:34.963Z",
      "status": "active",
      "experimental": false,
      "date": "2021-04-06T11:33:34+00:00",
      "publisher": "User ID: 'MCDONALDD' User name: 'Denzle McDonald' User skill set: 'T3'",
      "lastReviewDate": "2021-04-06",
      "subjectType": [ "Patient" ],
      "item": [ {
        "linkId": "59132",
        "prefix": "6800",
        "text": "PATIENT_PARTY",
        "type": "choice",
        "required": true,
        "repeats": false,
        "option": [ {
          "valueString": "==1, Selected: true"
        }, {
          "valueString": "==3, Selected: false"
        }, {
          "valueString": "*, Selected: false"
        } ]
      } ]
    }
  }, {
    "fullUrl": "urn:uuid:b7ef350e-9eb4-49d2-94bd-a248150edbaa",
    "resource": {
      "resourceType": "QuestionnaireResponse",
      "id": "b7ef350e-9eb4-49d2-94bd-a248150edbaa",
      "identifier": {
        "value": "59132"
      },
      "questionnaire": {
        "reference": "urn:uuid:b6093104-35e3-4f8e-82a6-d3a4a212477e"
      },
      "status": "completed",
      "subject": {
        "reference": "urn:uuid:729c5618-817e-4b25-a5d0-0959360167eb"
      },
      "context": {
        "reference": "urn:uuid:9a080412-3b06-495b-98b1-a28049364f9d"
      },
      "authored": "2021-04-06T11:33:34+00:00",
      "item": [ {
        "linkId": "Tx224190",
        "text": "Are you so ill that you have stopped doing ALL of your usual activities?",
        "answer": [ {
          "valueString": "no - well enough to do MOST or all activities"
        } ]
      } ]
    }
  }, {
    "fullUrl": "urn:uuid:b6093104-35e3-4f8e-82a6-d3a4a212477e",
    "resource": {
      "resourceType": "Questionnaire",
      "id": "b6093104-35e3-4f8e-82a6-d3a4a212477e",
      "identifier": [ {
        "value": "59132"
      } ],
      "version": "2021-04-06T11:33:34.963Z",
      "status": "active",
      "experimental": false,
      "date": "2021-04-06T11:33:34+00:00",
      "publisher": "User ID: 'MCDONALDD' User name: 'Denzle McDonald' User skill set: 'T3'",
      "lastReviewDate": "2021-04-06",
      "subjectType": [ "Patient" ],
      "item": [ {
        "linkId": "59132",
        "prefix": "6900",
        "text": "Are you so ill that you have stopped doing ALL of your usual activities?",
        "type": "choice",
        "required": true,
        "repeats": false,
        "option": [ {
          "valueString": "yes - so ill they have stopped doing ALL normal activities, Selected: false"
        }, {
          "valueString": "no - unwell but able to do SOME normal activities, Selected: false"
        }, {
          "valueString": "no - well enough to do MOST or all activities, Selected: true"
        } ]
      } ]
    }
  }, {
    "fullUrl": "urn:uuid:c41280a5-9153-4736-8286-c8a153f0e0b3",
    "resource": {
      "resourceType": "QuestionnaireResponse",
      "id": "c41280a5-9153-4736-8286-c8a153f0e0b3",
      "identifier": {
        "value": "59132"
      },
      "questionnaire": {
        "reference": "urn:uuid:135730b4-a9f7-4407-93a7-f42033e4883e"
      },
      "status": "completed",
      "subject": {
        "reference": "urn:uuid:729c5618-817e-4b25-a5d0-0959360167eb"
      },
      "context": {
        "reference": "urn:uuid:9a080412-3b06-495b-98b1-a28049364f9d"
      },
      "authored": "2021-04-06T11:33:34+00:00",
      "item": [ {
        "linkId": "Tx224916",
        "text": "FlankPainPW",
        "answer": [ {
          "valueString": "*"
        } ]
      } ]
    }
  }, {
    "fullUrl": "urn:uuid:135730b4-a9f7-4407-93a7-f42033e4883e",
    "resource": {
      "resourceType": "Questionnaire",
      "id": "135730b4-a9f7-4407-93a7-f42033e4883e",
      "identifier": [ {
        "value": "59132"
      } ],
      "version": "2021-04-06T11:33:34.963Z",
      "status": "active",
      "experimental": false,
      "date": "2021-04-06T11:33:34+00:00",
      "publisher": "User ID: 'MCDONALDD' User name: 'Denzle McDonald' User skill set: 'T3'",
      "lastReviewDate": "2021-04-06",
      "subjectType": [ "Patient" ],
      "item": [ {
        "linkId": "59132",
        "prefix": "26500",
        "text": "FlankPainPW",
        "type": "choice",
        "required": true,
        "repeats": false,
        "option": [ {
          "valueString": "==\"present\", Selected: false"
        }, {
          "valueString": "*, Selected: true"
        } ]
      } ]
    }
  }, {
    "fullUrl": "urn:uuid:30795e5d-686a-4f16-986f-47e02934a07a",
    "resource": {
      "resourceType": "QuestionnaireResponse",
      "id": "30795e5d-686a-4f16-986f-47e02934a07a",
      "identifier": {
        "value": "59132"
      },
      "questionnaire": {
        "reference": "urn:uuid:6c92f11d-6571-49ec-8264-3291b9112129"
      },
      "status": "completed",
      "subject": {
        "reference": "urn:uuid:729c5618-817e-4b25-a5d0-0959360167eb"
      },
      "context": {
        "reference": "urn:uuid:9a080412-3b06-495b-98b1-a28049364f9d"
      },
      "authored": "2021-04-06T11:33:34+00:00",
      "item": [ {
        "linkId": "Tx222766",
        "text": "PregnancyOver20Weeks",
        "answer": [ {
          "valueString": "*"
        } ]
      } ]
    }
  }, {
    "fullUrl": "urn:uuid:6c92f11d-6571-49ec-8264-3291b9112129",
    "resource": {
      "resourceType": "Questionnaire",
      "id": "6c92f11d-6571-49ec-8264-3291b9112129",
      "identifier": [ {
        "value": "59132"
      } ],
      "version": "2021-04-06T11:33:34.963Z",
      "status": "active",
      "experimental": false,
      "date": "2021-04-06T11:33:34+00:00",
      "publisher": "User ID: 'MCDONALDD' User name: 'Denzle McDonald' User skill set: 'T3'",
      "lastReviewDate": "2021-04-06",
      "subjectType": [ "Patient" ],
      "item": [ {
        "linkId": "59132",
        "prefix": "16100",
        "text": "PregnancyOver20Weeks",
        "type": "choice",
        "required": true,
        "repeats": false,
        "option": [ {
          "valueString": "==\"present\", Selected: false"
        }, {
          "valueString": "*, Selected: true"
        } ]
      } ]
    }
  }, {
    "fullUrl": "urn:uuid:1fb4e088-8647-4c5f-8686-6b2919a988dd",
    "resource": {
      "resourceType": "QuestionnaireResponse",
      "id": "1fb4e088-8647-4c5f-8686-6b2919a988dd",
      "identifier": {
        "value": "59132"
      },
      "questionnaire": {
        "reference": "urn:uuid:82443d20-b429-40c4-91f3-5dc90f401591"
      },
      "status": "completed",
      "subject": {
        "reference": "urn:uuid:729c5618-817e-4b25-a5d0-0959360167eb"
      },
      "context": {
        "reference": "urn:uuid:9a080412-3b06-495b-98b1-a28049364f9d"
      },
      "authored": "2021-04-06T11:33:34+00:00",
      "item": [ {
        "linkId": "Tx225151",
        "text": "RectalBleedingwithAbdominalPainPW",
        "answer": [ {
          "valueString": "*"
        } ]
      } ]
    }
  }, {
    "fullUrl": "urn:uuid:82443d20-b429-40c4-91f3-5dc90f401591",
    "resource": {
      "resourceType": "Questionnaire",
      "id": "82443d20-b429-40c4-91f3-5dc90f401591",
      "identifier": [ {
        "value": "59132"
      } ],
      "version": "2021-04-06T11:33:34.963Z",
      "status": "active",
      "experimental": false,
      "date": "2021-04-06T11:33:34+00:00",
      "publisher": "User ID: 'MCDONALDD' User name: 'Denzle McDonald' User skill set: 'T3'",
      "lastReviewDate": "2021-04-06",
      "subjectType": [ "Patient" ],
      "item": [ {
        "linkId": "59132",
        "prefix": "26200",
        "text": "RectalBleedingwithAbdominalPainPW",
        "type": "choice",
        "required": true,
        "repeats": false,
        "option": [ {
          "valueString": "==\"present\", Selected: false"
        }, {
          "valueString": "*, Selected: true"
        } ]
      } ]
    }
  }, {
    "fullUrl": "urn:uuid:73cdeecc-5703-4ab9-80de-2155a7d92669",
    "resource": {
      "resourceType": "QuestionnaireResponse",
      "id": "73cdeecc-5703-4ab9-80de-2155a7d92669",
      "identifier": {
        "value": "59132"
      },
      "questionnaire": {
        "reference": "urn:uuid:97d0af83-e4b3-4bc4-97ce-b27fe970a7a2"
      },
      "status": "completed",
      "subject": {
        "reference": "urn:uuid:729c5618-817e-4b25-a5d0-0959360167eb"
      },
      "context": {
        "reference": "urn:uuid:9a080412-3b06-495b-98b1-a28049364f9d"
      },
      "authored": "2021-04-06T11:33:34+00:00",
      "item": [ {
        "linkId": "Tx221119",
        "text": "SeverelyIll",
        "answer": [ {
          "valueString": "*"
        } ]
      } ]
    }
  }, {
    "fullUrl": "urn:uuid:97d0af83-e4b3-4bc4-97ce-b27fe970a7a2",
    "resource": {
      "resourceType": "Questionnaire",
      "id": "97d0af83-e4b3-4bc4-97ce-b27fe970a7a2",
      "identifier": [ {
        "value": "59132"
      } ],
      "version": "2021-04-06T11:33:34.963Z",
      "status": "active",
      "experimental": false,
      "date": "2021-04-06T11:33:34+00:00",
      "publisher": "User ID: 'MCDONALDD' User name: 'Denzle McDonald' User skill set: 'T3'",
      "lastReviewDate": "2021-04-06",
      "subjectType": [ "Patient" ],
      "item": [ {
        "linkId": "59132",
        "prefix": "7500",
        "text": "SeverelyIll",
        "type": "choice",
        "required": true,
        "repeats": false,
        "option": [ {
          "valueString": "==\"present\", Selected: false"
        }, {
          "valueString": "*, Selected: true"
        } ]
      } ]
    }
  }, {
    "fullUrl": "urn:uuid:24b1879b-6e23-475a-a413-43124ee04d6c",
    "resource": {
      "resourceType": "QuestionnaireResponse",
      "id": "24b1879b-6e23-475a-a413-43124ee04d6c",
      "identifier": {
        "value": "59132"
      },
      "questionnaire": {
        "reference": "urn:uuid:87fff409-6290-40c7-9587-7ad9fc1ae652"
      },
      "status": "completed",
      "subject": {
        "reference": "urn:uuid:729c5618-817e-4b25-a5d0-0959360167eb"
      },
      "context": {
        "reference": "urn:uuid:9a080412-3b06-495b-98b1-a28049364f9d"
      },
      "authored": "2021-04-06T11:33:34+00:00",
      "item": [ {
        "linkId": "Tx224934",
        "text": "GroinPainOrSwellingPWAbdominalPainPW",
        "answer": [ {
          "valueString": "*"
        } ]
      } ]
    }
  }, {
    "fullUrl": "urn:uuid:87fff409-6290-40c7-9587-7ad9fc1ae652",
    "resource": {
      "resourceType": "Questionnaire",
      "id": "87fff409-6290-40c7-9587-7ad9fc1ae652",
      "identifier": [ {
        "value": "59132"
      } ],
      "version": "2021-04-06T11:33:34.963Z",
      "status": "active",
      "experimental": false,
      "date": "2021-04-06T11:33:34+00:00",
      "publisher": "User ID: 'MCDONALDD' User name: 'Denzle McDonald' User skill set: 'T3'",
      "lastReviewDate": "2021-04-06",
      "subjectType": [ "Patient" ],
      "item": [ {
        "linkId": "59132",
        "prefix": "23300",
        "text": "GroinPainOrSwellingPWAbdominalPainPW",
        "type": "choice",
        "required": true,
        "repeats": false,
        "option": [ {
          "valueString": "==\"present\", Selected: false"
        }, {
          "valueString": "*, Selected: true"
        } ]
      } ]
    }
  }, {
    "fullUrl": "urn:uuid:9a8bb28e-d059-411b-bf11-643123fcf411",
    "resource": {
      "resourceType": "QuestionnaireResponse",
      "id": "9a8bb28e-d059-411b-bf11-643123fcf411",
      "identifier": {
        "value": "59132"
      },
      "questionnaire": {
        "reference": "urn:uuid:9bf6ea20-514e-43f7-ade6-ae0af73ddc37"
      },
      "status": "completed",
      "subject": {
        "reference": "urn:uuid:729c5618-817e-4b25-a5d0-0959360167eb"
      },
      "context": {
        "reference": "urn:uuid:9a080412-3b06-495b-98b1-a28049364f9d"
      },
      "authored": "2021-04-06T11:33:34+00:00",
      "item": [ {
        "linkId": "Tx224906",
        "text": "AbdominalPainPW",
        "answer": [ {
          "valueString": "*"
        } ]
      } ]
    }
  }, {
    "fullUrl": "urn:uuid:9bf6ea20-514e-43f7-ade6-ae0af73ddc37",
    "resource": {
      "resourceType": "Questionnaire",
      "id": "9bf6ea20-514e-43f7-ade6-ae0af73ddc37",
      "identifier": [ {
        "value": "59132"
      } ],
      "version": "2021-04-06T11:33:34.963Z",
      "status": "active",
      "experimental": false,
      "date": "2021-04-06T11:33:34+00:00",
      "publisher": "User ID: 'MCDONALDD' User name: 'Denzle McDonald' User skill set: 'T3'",
      "lastReviewDate": "2021-04-06",
      "subjectType": [ "Patient" ],
      "item": [ {
        "linkId": "59132",
        "prefix": "23400",
        "text": "AbdominalPainPW",
        "type": "choice",
        "required": true,
        "repeats": false,
        "option": [ {
          "valueString": "==\"present\", Selected: false"
        }, {
          "valueString": "*, Selected: true"
        } ]
      } ]
    }
  }, {
    "fullUrl": "urn:uuid:702b4287-4f6b-43df-b7a5-6d7fbdf336e3",
    "resource": {
      "resourceType": "QuestionnaireResponse",
      "id": "702b4287-4f6b-43df-b7a5-6d7fbdf336e3",
      "identifier": {
        "value": "59132"
      },
      "questionnaire": {
        "reference": "urn:uuid:6f251ffe-891b-4b3d-a6c3-f1512f7739a0"
      },
      "status": "completed",
      "subject": {
        "reference": "urn:uuid:729c5618-817e-4b25-a5d0-0959360167eb"
      },
      "context": {
        "reference": "urn:uuid:9a080412-3b06-495b-98b1-a28049364f9d"
      },
      "authored": "2021-04-06T11:33:34+00:00",
      "item": [ {
        "linkId": "Tx224928",
        "text": "VomitingAnd/OrNauseaWithAbdominalPainPW",
        "answer": [ {
          "valueString": "==\"present\""
        } ]
      } ]
    }
  }, {
    "fullUrl": "urn:uuid:6f251ffe-891b-4b3d-a6c3-f1512f7739a0",
    "resource": {
      "resourceType": "Questionnaire",
      "id": "6f251ffe-891b-4b3d-a6c3-f1512f7739a0",
      "identifier": [ {
        "value": "59132"
      } ],
      "version": "2021-04-06T11:33:34.963Z",
      "status": "active",
      "experimental": false,
      "date": "2021-04-06T11:33:34+00:00",
      "publisher": "User ID: 'MCDONALDD' User name: 'Denzle McDonald' User skill set: 'T3'",
      "lastReviewDate": "2021-04-06",
      "subjectType": [ "Patient" ],
      "item": [ {
        "linkId": "59132",
        "prefix": "23500",
        "text": "VomitingAnd/OrNauseaWithAbdominalPainPW",
        "type": "choice",
        "required": true,
        "repeats": false,
        "option": [ {
          "valueString": "==\"present\", Selected: true"
        }, {
          "valueString": "*, Selected: false"
        } ]
      } ]
    }
  }, {
    "fullUrl": "urn:uuid:aabf9a84-269b-45a1-bf4f-06f0c6b0e20e",
    "resource": {
      "resourceType": "QuestionnaireResponse",
      "id": "aabf9a84-269b-45a1-bf4f-06f0c6b0e20e",
      "identifier": {
        "value": "59132"
      },
      "questionnaire": {
        "reference": "urn:uuid:ab2eb823-92fe-4471-b3fc-a93d2b7767ee"
      },
      "status": "completed",
      "subject": {
        "reference": "urn:uuid:729c5618-817e-4b25-a5d0-0959360167eb"
      },
      "context": {
        "reference": "urn:uuid:9a080412-3b06-495b-98b1-a28049364f9d"
      },
      "authored": "2021-04-06T11:33:34+00:00",
      "item": [ {
        "linkId": "Tx221017",
        "text": "PATIENT_GENDER",
        "answer": [ {
          "valueString": "==\"F\""
        } ]
      } ]
    }
  }, {
    "fullUrl": "urn:uuid:ab2eb823-92fe-4471-b3fc-a93d2b7767ee",
    "resource": {
      "resourceType": "Questionnaire",
      "id": "ab2eb823-92fe-4471-b3fc-a93d2b7767ee",
      "identifier": [ {
        "value": "59132"
      } ],
      "version": "2021-04-06T11:33:34.963Z",
      "status": "active",
      "experimental": false,
      "date": "2021-04-06T11:33:34+00:00",
      "publisher": "User ID: 'MCDONALDD' User name: 'Denzle McDonald' User skill set: 'T3'",
      "lastReviewDate": "2021-04-06",
      "subjectType": [ "Patient" ],
      "item": [ {
        "linkId": "59132",
        "prefix": "9000",
        "text": "PATIENT_GENDER",
        "type": "choice",
        "required": true,
        "repeats": false,
        "option": [ {
          "valueString": "==\"M\", Selected: false"
        }, {
          "valueString": "==\"F\", Selected: true"
        }, {
          "valueString": "==\"U\", Selected: false"
        }, {
          "valueString": "*, Selected: false"
        } ]
      } ]
    }
  }, {
    "fullUrl": "urn:uuid:641b18b3-d9d1-4387-b999-40a9fa135b51",
    "resource": {
      "resourceType": "QuestionnaireResponse",
      "id": "641b18b3-d9d1-4387-b999-40a9fa135b51",
      "identifier": {
        "value": "59132"
      },
      "questionnaire": {
        "reference": "urn:uuid:fa171d0c-015c-4101-9a0e-6ac1f3591d86"
      },
      "status": "completed",
      "subject": {
        "reference": "urn:uuid:729c5618-817e-4b25-a5d0-0959360167eb"
      },
      "context": {
        "reference": "urn:uuid:9a080412-3b06-495b-98b1-a28049364f9d"
      },
      "authored": "2021-04-06T11:33:34+00:00"
    }
  }, {
    "fullUrl": "urn:uuid:fa171d0c-015c-4101-9a0e-6ac1f3591d86",
    "resource": {
      "resourceType": "Questionnaire",
      "id": "fa171d0c-015c-4101-9a0e-6ac1f3591d86",
      "identifier": [ {
        "value": "59132"
      } ],
      "version": "2021-04-06T11:33:34.963Z",
      "status": "active",
      "experimental": false,
      "date": "2021-04-06T11:33:34+00:00",
      "publisher": "User ID: 'MCDONALDD' User name: 'Denzle McDonald' User skill set: 'T3'",
      "lastReviewDate": "2021-04-06",
      "subjectType": [ "Patient" ]
    }
  }, {
    "fullUrl": "urn:uuid:ee5aff5b-d487-4488-ba39-f0f8f2ebf1b2",
    "resource": {
      "resourceType": "QuestionnaireResponse",
      "id": "ee5aff5b-d487-4488-ba39-f0f8f2ebf1b2",
      "identifier": {
        "value": "59132"
      },
      "questionnaire": {
        "reference": "urn:uuid:764f3334-0de9-47ce-9e85-9f69e5bba430"
      },
      "status": "completed",
      "subject": {
        "reference": "urn:uuid:729c5618-817e-4b25-a5d0-0959360167eb"
      },
      "context": {
        "reference": "urn:uuid:9a080412-3b06-495b-98b1-a28049364f9d"
      },
      "authored": "2021-04-06T11:33:34+00:00",
      "item": [ {
        "linkId": "Tx221114",
        "text": "Pregnancy",
        "answer": [ {
          "valueString": "*"
        } ]
      } ]
    }
  }, {
    "fullUrl": "urn:uuid:764f3334-0de9-47ce-9e85-9f69e5bba430",
    "resource": {
      "resourceType": "Questionnaire",
      "id": "764f3334-0de9-47ce-9e85-9f69e5bba430",
      "identifier": [ {
        "value": "59132"
      } ],
      "version": "2021-04-06T11:33:34.963Z",
      "status": "active",
      "experimental": false,
      "date": "2021-04-06T11:33:34+00:00",
      "publisher": "User ID: 'MCDONALDD' User name: 'Denzle McDonald' User skill set: 'T3'",
      "lastReviewDate": "2021-04-06",
      "subjectType": [ "Patient" ],
      "item": [ {
        "linkId": "59132",
        "prefix": "64500",
        "text": "Pregnancy",
        "type": "choice",
        "required": true,
        "repeats": false,
        "option": [ {
          "valueString": "==\"present\", Selected: false"
        }, {
          "valueString": "*, Selected: true"
        } ]
      } ]
    }
  }, {
    "fullUrl": "urn:uuid:8b3788ab-9d30-4931-a0c7-f454446d9115",
    "resource": {
      "resourceType": "QuestionnaireResponse",
      "id": "8b3788ab-9d30-4931-a0c7-f454446d9115",
      "identifier": {
        "value": "59132"
      },
      "questionnaire": {
        "reference": "urn:uuid:6417ea19-cd6e-455b-a586-beea55e2dae4"
      },
      "status": "completed",
      "subject": {
        "reference": "urn:uuid:729c5618-817e-4b25-a5d0-0959360167eb"
      },
      "context": {
        "reference": "urn:uuid:9a080412-3b06-495b-98b1-a28049364f9d"
      },
      "authored": "2021-04-06T11:33:34+00:00",
      "item": [ {
        "linkId": "Tx221338",
        "text": ">=11yearsConfirmed",
        "answer": [ {
          "valueString": "*"
        } ]
      } ]
    }
  }, {
    "fullUrl": "urn:uuid:6417ea19-cd6e-455b-a586-beea55e2dae4",
    "resource": {
      "resourceType": "Questionnaire",
      "id": "6417ea19-cd6e-455b-a586-beea55e2dae4",
      "identifier": [ {
        "value": "59132"
      } ],
      "version": "2021-04-06T11:33:34.963Z",
      "status": "active",
      "experimental": false,
      "date": "2021-04-06T11:33:34+00:00",
      "publisher": "User ID: 'MCDONALDD' User name: 'Denzle McDonald' User skill set: 'T3'",
      "lastReviewDate": "2021-04-06",
      "subjectType": [ "Patient" ],
      "item": [ {
        "linkId": "59132",
        "prefix": "65600",
        "text": ">=11yearsConfirmed",
        "type": "choice",
        "required": true,
        "repeats": false,
        "option": [ {
          "valueString": "==\"present\", Selected: false"
        }, {
          "valueString": "*, Selected: true"
        } ]
      } ]
    }
  }, {
    "fullUrl": "urn:uuid:ceb8a842-cb52-4fb8-a4ce-1a2f42da252f",
    "resource": {
      "resourceType": "QuestionnaireResponse",
      "id": "ceb8a842-cb52-4fb8-a4ce-1a2f42da252f",
      "identifier": {
        "value": "59132"
      },
      "questionnaire": {
        "reference": "urn:uuid:b96572d1-24f5-4b26-8875-96cc739acc0d"
      },
      "status": "completed",
      "subject": {
        "reference": "urn:uuid:729c5618-817e-4b25-a5d0-0959360167eb"
      },
      "context": {
        "reference": "urn:uuid:9a080412-3b06-495b-98b1-a28049364f9d"
      },
      "authored": "2021-04-06T11:33:34+00:00",
      "item": [ {
        "linkId": "Tx221119",
        "text": "SeverelyIll",
        "answer": [ {
          "valueString": "*"
        } ]
      } ]
    }
  }, {
    "fullUrl": "urn:uuid:b96572d1-24f5-4b26-8875-96cc739acc0d",
    "resource": {
      "resourceType": "Questionnaire",
      "id": "b96572d1-24f5-4b26-8875-96cc739acc0d",
      "identifier": [ {
        "value": "59132"
      } ],
      "version": "2021-04-06T11:33:34.963Z",
      "status": "active",
      "experimental": false,
      "date": "2021-04-06T11:33:34+00:00",
      "publisher": "User ID: 'MCDONALDD' User name: 'Denzle McDonald' User skill set: 'T3'",
      "lastReviewDate": "2021-04-06",
      "subjectType": [ "Patient" ],
      "item": [ {
        "linkId": "59132",
        "prefix": "46200",
        "text": "SeverelyIll",
        "type": "choice",
        "required": true,
        "repeats": false,
        "option": [ {
          "valueString": "==\"present\", Selected: false"
        }, {
          "valueString": "*, Selected: true"
        } ]
      } ]
    }
  }, {
    "fullUrl": "urn:uuid:b64352cc-110b-48ed-8f0a-67a260d54409",
    "resource": {
      "resourceType": "QuestionnaireResponse",
      "id": "b64352cc-110b-48ed-8f0a-67a260d54409",
      "identifier": {
        "value": "59132"
      },
      "questionnaire": {
        "reference": "urn:uuid:8f9b5d74-10e8-4065-a8e2-4a16ea9fb0b1"
      },
      "status": "completed",
      "subject": {
        "reference": "urn:uuid:729c5618-817e-4b25-a5d0-0959360167eb"
      },
      "context": {
        "reference": "urn:uuid:9a080412-3b06-495b-98b1-a28049364f9d"
      },
      "authored": "2021-04-06T11:33:34+00:00",
      "item": [ {
        "linkId": "Tx220947",
        "text": "SeverePain",
        "answer": [ {
          "valueString": "*"
        } ]
      } ]
    }
  }, {
    "fullUrl": "urn:uuid:8f9b5d74-10e8-4065-a8e2-4a16ea9fb0b1",
    "resource": {
      "resourceType": "Questionnaire",
      "id": "8f9b5d74-10e8-4065-a8e2-4a16ea9fb0b1",
      "identifier": [ {
        "value": "59132"
      } ],
      "version": "2021-04-06T11:33:34.963Z",
      "status": "active",
      "experimental": false,
      "date": "2021-04-06T11:33:34+00:00",
      "publisher": "User ID: 'MCDONALDD' User name: 'Denzle McDonald' User skill set: 'T3'",
      "lastReviewDate": "2021-04-06",
      "subjectType": [ "Patient" ],
      "item": [ {
        "linkId": "59132",
        "prefix": "64600",
        "text": "SeverePain",
        "type": "choice",
        "required": true,
        "repeats": false,
        "option": [ {
          "valueString": "==\"present\", Selected: false"
        }, {
          "valueString": "*, Selected: true"
        } ]
      } ]
    }
  }, {
    "fullUrl": "urn:uuid:c2298543-6088-4f68-9edb-ebadc9c27a21",
    "resource": {
      "resourceType": "QuestionnaireResponse",
      "id": "c2298543-6088-4f68-9edb-ebadc9c27a21",
      "identifier": {
        "value": "59132"
      },
      "questionnaire": {
        "reference": "urn:uuid:96706015-687c-41f4-8888-57498ce9c48c"
      },
      "status": "completed",
      "subject": {
        "reference": "urn:uuid:729c5618-817e-4b25-a5d0-0959360167eb"
      },
      "context": {
        "reference": "urn:uuid:9a080412-3b06-495b-98b1-a28049364f9d"
      },
      "authored": "2021-04-06T11:33:34+00:00",
      "item": [ {
        "linkId": "Tx220114",
        "text": "Have you taken anything that might be harmful or poisonous?",
        "answer": [ {
          "valueString": "no"
        } ]
      } ]
    }
  }, {
    "fullUrl": "urn:uuid:96706015-687c-41f4-8888-57498ce9c48c",
    "resource": {
      "resourceType": "Questionnaire",
      "id": "96706015-687c-41f4-8888-57498ce9c48c",
      "identifier": [ {
        "value": "59132"
      } ],
      "version": "2021-04-06T11:33:34.963Z",
      "status": "active",
      "experimental": false,
      "date": "2021-04-06T11:33:34+00:00",
      "publisher": "User ID: 'MCDONALDD' User name: 'Denzle McDonald' User skill set: 'T3'",
      "lastReviewDate": "2021-04-06",
      "subjectType": [ "Patient" ],
      "item": [ {
        "linkId": "59132",
        "prefix": "30300",
        "text": "Have you taken anything that might be harmful or poisonous?",
        "type": "choice",
        "required": true,
        "repeats": false,
        "option": [ {
          "valueString": "yes (specify substance if known), Selected: false"
        }, {
          "valueString": "not sure, Selected: false"
        }, {
          "valueString": "no, Selected: true"
        } ]
      } ]
    }
  }, {
    "fullUrl": "urn:uuid:c35eb52c-5c9a-4aa0-8857-13ee0b4782d6",
    "resource": {
      "resourceType": "QuestionnaireResponse",
      "id": "c35eb52c-5c9a-4aa0-8857-13ee0b4782d6",
      "identifier": {
        "value": "59132"
      },
      "questionnaire": {
        "reference": "urn:uuid:bde6463c-aab5-49db-b147-250232e98b55"
      },
      "status": "completed",
      "subject": {
        "reference": "urn:uuid:729c5618-817e-4b25-a5d0-0959360167eb"
      },
      "context": {
        "reference": "urn:uuid:9a080412-3b06-495b-98b1-a28049364f9d"
      },
      "authored": "2021-04-06T11:33:34+00:00",
      "item": [ {
        "linkId": "Tx221176",
        "text": "PregnancyUnder20Weeks",
        "answer": [ {
          "valueString": "*"
        } ]
      } ]
    }
  }, {
    "fullUrl": "urn:uuid:bde6463c-aab5-49db-b147-250232e98b55",
    "resource": {
      "resourceType": "Questionnaire",
      "id": "bde6463c-aab5-49db-b147-250232e98b55",
      "identifier": [ {
        "value": "59132"
      } ],
      "version": "2021-04-06T11:33:34.963Z",
      "status": "active",
      "experimental": false,
      "date": "2021-04-06T11:33:34+00:00",
      "publisher": "User ID: 'MCDONALDD' User name: 'Denzle McDonald' User skill set: 'T3'",
      "lastReviewDate": "2021-04-06",
      "subjectType": [ "Patient" ],
      "item": [ {
        "linkId": "59132",
        "prefix": "7700",
        "text": "PregnancyUnder20Weeks",
        "type": "choice",
        "required": true,
        "repeats": false,
        "option": [ {
          "valueString": "==\"present\", Selected: false"
        }, {
          "valueString": "*, Selected: true"
        } ]
      } ]
    }
  }, {
    "fullUrl": "urn:uuid:c0022d95-1d26-4322-94c7-2f8f90a871e9",
    "resource": {
      "resourceType": "QuestionnaireResponse",
      "id": "c0022d95-1d26-4322-94c7-2f8f90a871e9",
      "identifier": {
        "value": "59132"
      },
      "questionnaire": {
        "reference": "urn:uuid:60170e39-d873-422b-9537-a32258e4b0ba"
      },
      "status": "completed",
      "subject": {
        "reference": "urn:uuid:729c5618-817e-4b25-a5d0-0959360167eb"
      },
      "context": {
        "reference": "urn:uuid:9a080412-3b06-495b-98b1-a28049364f9d"
      },
      "authored": "2021-04-06T11:33:34+00:00",
      "item": [ {
        "linkId": "Tx221338",
        "text": ">=11yearsConfirmed",
        "answer": [ {
          "valueString": "*"
        } ]
      } ]
    }
  }, {
    "fullUrl": "urn:uuid:60170e39-d873-422b-9537-a32258e4b0ba",
    "resource": {
      "resourceType": "Questionnaire",
      "id": "60170e39-d873-422b-9537-a32258e4b0ba",
      "identifier": [ {
        "value": "59132"
      } ],
      "version": "2021-04-06T11:33:34.963Z",
      "status": "active",
      "experimental": false,
      "date": "2021-04-06T11:33:34+00:00",
      "publisher": "User ID: 'MCDONALDD' User name: 'Denzle McDonald' User skill set: 'T3'",
      "lastReviewDate": "2021-04-06",
      "subjectType": [ "Patient" ],
      "item": [ {
        "linkId": "59132",
        "prefix": "8200",
        "text": ">=11yearsConfirmed",
        "type": "choice",
        "required": true,
        "repeats": false,
        "option": [ {
          "valueString": "==\"present\", Selected: false"
        }, {
          "valueString": "*, Selected: true"
        } ]
      } ]
    }
  }, {
    "fullUrl": "urn:uuid:3115f4e7-ee32-4654-941c-3572cd32d75b",
    "resource": {
      "resourceType": "QuestionnaireResponse",
      "id": "3115f4e7-ee32-4654-941c-3572cd32d75b",
      "identifier": {
        "value": "59132"
      },
      "questionnaire": {
        "reference": "urn:uuid:6232aaa7-cbb7-4d31-812c-673ae59d79bc"
      },
      "status": "completed",
      "subject": {
        "reference": "urn:uuid:729c5618-817e-4b25-a5d0-0959360167eb"
      },
      "context": {
        "reference": "urn:uuid:9a080412-3b06-495b-98b1-a28049364f9d"
      },
      "authored": "2021-04-06T11:33:34+00:00",
      "item": [ {
        "linkId": "Tx1033",
        "text": "Have you passed a bowel motion that looks like either of the following?",
        "answer": [ {
          "valueString": "no"
        } ]
      } ]
    }
  }, {
    "fullUrl": "urn:uuid:6232aaa7-cbb7-4d31-812c-673ae59d79bc",
    "resource": {
      "resourceType": "Questionnaire",
      "id": "6232aaa7-cbb7-4d31-812c-673ae59d79bc",
      "identifier": [ {
        "value": "59132"
      } ],
      "version": "2021-04-06T11:33:34.963Z",
      "status": "active",
      "experimental": false,
      "date": "2021-04-06T11:33:34+00:00",
      "publisher": "User ID: 'MCDONALDD' User name: 'Denzle McDonald' User skill set: 'T3'",
      "lastReviewDate": "2021-04-06",
      "subjectType": [ "Patient" ],
      "item": [ {
        "linkId": "59132",
        "prefix": "65200",
        "text": "Have you passed a bowel motion that looks like either of the following?",
        "type": "choice",
        "required": true,
        "repeats": false,
        "option": [ {
          "valueString": "black and tarry, Selected: false"
        }, {
          "valueString": "red or maroon, Selected: false"
        }, {
          "valueString": "not sure, Selected: false"
        }, {
          "valueString": "no, Selected: true"
        } ]
      } ]
    }
  }, {
    "fullUrl": "urn:uuid:8dd8bb6d-3e62-4f7c-9a16-ea3781c0f2e5",
    "resource": {
      "resourceType": "QuestionnaireResponse",
      "id": "8dd8bb6d-3e62-4f7c-9a16-ea3781c0f2e5",
      "identifier": {
        "value": "59132"
      },
      "questionnaire": {
        "reference": "urn:uuid:c58a9c66-c416-41d4-ad42-6d25a686ca39"
      },
      "status": "completed",
      "subject": {
        "reference": "urn:uuid:729c5618-817e-4b25-a5d0-0959360167eb"
      },
      "context": {
        "reference": "urn:uuid:9a080412-3b06-495b-98b1-a28049364f9d"
      },
      "authored": "2021-04-06T11:33:34+00:00",
      "item": [ {
        "linkId": "Tx223274",
        "text": "VHFSymptom",
        "answer": [ {
          "valueString": "*"
        } ]
      } ]
    }
  }, {
    "fullUrl": "urn:uuid:c58a9c66-c416-41d4-ad42-6d25a686ca39",
    "resource": {
      "resourceType": "Questionnaire",
      "id": "c58a9c66-c416-41d4-ad42-6d25a686ca39",
      "identifier": [ {
        "value": "59132"
      } ],
      "version": "2021-04-06T11:33:34.963Z",
      "status": "active",
      "experimental": false,
      "date": "2021-04-06T11:33:34+00:00",
      "publisher": "User ID: 'MCDONALDD' User name: 'Denzle McDonald' User skill set: 'T3'",
      "lastReviewDate": "2021-04-06",
      "subjectType": [ "Patient" ],
      "item": [ {
        "linkId": "59132",
        "prefix": "34000",
        "text": "VHFSymptom",
        "type": "choice",
        "required": true,
        "repeats": false,
        "option": [ {
          "valueString": "==\"present\", Selected: false"
        }, {
          "valueString": "*, Selected: true"
        } ]
      } ]
    }
  }, {
    "fullUrl": "urn:uuid:6d1fa5e2-13b8-4cae-ac68-b9f0a1753a92",
    "resource": {
      "resourceType": "QuestionnaireResponse",
      "id": "6d1fa5e2-13b8-4cae-ac68-b9f0a1753a92",
      "identifier": {
        "value": "59132"
      },
      "questionnaire": {
        "reference": "urn:uuid:ba90d94f-7606-40d5-81ad-5d8b8ab5d90a"
      },
      "status": "completed",
      "subject": {
        "reference": "urn:uuid:729c5618-817e-4b25-a5d0-0959360167eb"
      },
      "context": {
        "reference": "urn:uuid:9a080412-3b06-495b-98b1-a28049364f9d"
      },
      "authored": "2021-04-06T11:33:34+00:00",
      "item": [ {
        "linkId": "Tx224075",
        "text": "SeverelyIllandConfused",
        "answer": [ {
          "valueString": "*"
        } ]
      } ]
    }
  }, {
    "fullUrl": "urn:uuid:ba90d94f-7606-40d5-81ad-5d8b8ab5d90a",
    "resource": {
      "resourceType": "Questionnaire",
      "id": "ba90d94f-7606-40d5-81ad-5d8b8ab5d90a",
      "identifier": [ {
        "value": "59132"
      } ],
      "version": "2021-04-06T11:33:34.963Z",
      "status": "active",
      "experimental": false,
      "date": "2021-04-06T11:33:34+00:00",
      "publisher": "User ID: 'MCDONALDD' User name: 'Denzle McDonald' User skill set: 'T3'",
      "lastReviewDate": "2021-04-06",
      "subjectType": [ "Patient" ],
      "item": [ {
        "linkId": "59132",
        "prefix": "47300",
        "text": "SeverelyIllandConfused",
        "type": "choice",
        "required": true,
        "repeats": false,
        "option": [ {
          "valueString": "==\"present\", Selected: false"
        }, {
          "valueString": "*, Selected: true"
        } ]
      } ]
    }
  }, {
    "fullUrl": "urn:uuid:fdace6ae-e60b-4715-aede-d6ec36f33979",
    "resource": {
      "resourceType": "QuestionnaireResponse",
      "id": "fdace6ae-e60b-4715-aede-d6ec36f33979",
      "identifier": {
        "value": "59132"
      },
      "questionnaire": {
        "reference": "urn:uuid:d1a71e3f-d264-4005-b9ae-dc8e9dd65865"
      },
      "status": "completed",
      "subject": {
        "reference": "urn:uuid:729c5618-817e-4b25-a5d0-0959360167eb"
      },
      "context": {
        "reference": "urn:uuid:9a080412-3b06-495b-98b1-a28049364f9d"
      },
      "authored": "2021-04-06T11:33:34+00:00",
      "item": [ {
        "linkId": "Tx221119",
        "text": "SeverelyIll",
        "answer": [ {
          "valueString": "*"
        } ]
      } ]
    }
  }, {
    "fullUrl": "urn:uuid:d1a71e3f-d264-4005-b9ae-dc8e9dd65865",
    "resource": {
      "resourceType": "Questionnaire",
      "id": "d1a71e3f-d264-4005-b9ae-dc8e9dd65865",
      "identifier": [ {
        "value": "59132"
      } ],
      "version": "2021-04-06T11:33:34.963Z",
      "status": "active",
      "experimental": false,
      "date": "2021-04-06T11:33:34+00:00",
      "publisher": "User ID: 'MCDONALDD' User name: 'Denzle McDonald' User skill set: 'T3'",
      "lastReviewDate": "2021-04-06",
      "subjectType": [ "Patient" ],
      "item": [ {
        "linkId": "59132",
        "prefix": "55200",
        "text": "SeverelyIll",
        "type": "choice",
        "required": true,
        "repeats": false,
        "option": [ {
          "valueString": "==\"present\", Selected: false"
        }, {
          "valueString": "*, Selected: true"
        } ]
      } ]
    }
  }, {
    "fullUrl": "urn:uuid:0ea64d77-df3c-4a87-bfaf-9228343a2580",
    "resource": {
      "resourceType": "QuestionnaireResponse",
      "id": "0ea64d77-df3c-4a87-bfaf-9228343a2580",
      "identifier": {
        "value": "59132"
      },
      "questionnaire": {
        "reference": "urn:uuid:0dc952c5-00f4-4f48-9fdb-4b548806fd99"
      },
      "status": "completed",
      "subject": {
        "reference": "urn:uuid:729c5618-817e-4b25-a5d0-0959360167eb"
      },
      "context": {
        "reference": "urn:uuid:9a080412-3b06-495b-98b1-a28049364f9d"
      },
      "authored": "2021-04-06T11:33:34+00:00",
      "item": [ {
        "linkId": "Tx223485",
        "text": "ConfusionDeclared",
        "answer": [ {
          "valueString": "*"
        } ]
      } ]
    }
  }, {
    "fullUrl": "urn:uuid:0dc952c5-00f4-4f48-9fdb-4b548806fd99",
    "resource": {
      "resourceType": "Questionnaire",
      "id": "0dc952c5-00f4-4f48-9fdb-4b548806fd99",
      "identifier": [ {
        "value": "59132"
      } ],
      "version": "2021-04-06T11:33:34.963Z",
      "status": "active",
      "experimental": false,
      "date": "2021-04-06T11:33:34+00:00",
      "publisher": "User ID: 'MCDONALDD' User name: 'Denzle McDonald' User skill set: 'T3'",
      "lastReviewDate": "2021-04-06",
      "subjectType": [ "Patient" ],
      "item": [ {
        "linkId": "59132",
        "prefix": "55600",
        "text": "ConfusionDeclared",
        "type": "choice",
        "required": true,
        "repeats": false,
        "option": [ {
          "valueString": "==\"present\", Selected: false"
        }, {
          "valueString": "*, Selected: true"
        } ]
      } ]
    }
  }, {
    "fullUrl": "urn:uuid:3e7d9e6f-6eca-4d4b-ab0a-85e23ff81ef1",
    "resource": {
      "resourceType": "QuestionnaireResponse",
      "id": "3e7d9e6f-6eca-4d4b-ab0a-85e23ff81ef1",
      "identifier": {
        "value": "59132"
      },
      "questionnaire": {
        "reference": "urn:uuid:cfcefbd9-46b1-452d-93b3-b5f277ffe680"
      },
      "status": "completed",
      "subject": {
        "reference": "urn:uuid:729c5618-817e-4b25-a5d0-0959360167eb"
      },
      "context": {
        "reference": "urn:uuid:9a080412-3b06-495b-98b1-a28049364f9d"
      },
      "authored": "2021-04-06T11:33:34+00:00",
      "item": [ {
        "linkId": "Tx1213",
        "text": "Have you suddenly become confused OR more confused than usual?",
        "answer": [ {
          "valueString": "no"
        } ]
      } ]
    }
  }, {
    "fullUrl": "urn:uuid:cfcefbd9-46b1-452d-93b3-b5f277ffe680",
    "resource": {
      "resourceType": "Questionnaire",
      "id": "cfcefbd9-46b1-452d-93b3-b5f277ffe680",
      "identifier": [ {
        "value": "59132"
      } ],
      "version": "2021-04-06T11:33:34.963Z",
      "status": "active",
      "experimental": false,
      "date": "2021-04-06T11:33:34+00:00",
      "publisher": "User ID: 'MCDONALDD' User name: 'Denzle McDonald' User skill set: 'T3'",
      "lastReviewDate": "2021-04-06",
      "subjectType": [ "Patient" ],
      "item": [ {
        "linkId": "59132",
        "prefix": "55500",
        "text": "Have you suddenly become confused OR more confused than usual?",
        "type": "choice",
        "required": true,
        "repeats": false,
        "option": [ {
          "valueString": "yes, Selected: false"
        }, {
          "valueString": "not sure, Selected: false"
        }, {
          "valueString": "no, Selected: true"
        } ]
      } ]
    }
  }, {
    "fullUrl": "urn:uuid:8292ce14-f63e-4ab0-a644-ce8f349a2c33",
    "resource": {
      "resourceType": "QuestionnaireResponse",
      "id": "8292ce14-f63e-4ab0-a644-ce8f349a2c33",
      "identifier": {
        "value": "59132"
      },
      "questionnaire": {
        "reference": "urn:uuid:97d5568a-e32c-42cf-8202-166e2935cf71"
      },
      "status": "completed",
      "subject": {
        "reference": "urn:uuid:729c5618-817e-4b25-a5d0-0959360167eb"
      },
      "context": {
        "reference": "urn:uuid:9a080412-3b06-495b-98b1-a28049364f9d"
      },
      "authored": "2021-04-06T11:33:34+00:00",
      "item": [ {
        "linkId": "Tx220164",
        "text": "Are you breathing faster or harder when doing nothing at all?",
        "answer": [ {
          "valueString": "no"
        } ]
      } ]
    }
  }, {
    "fullUrl": "urn:uuid:97d5568a-e32c-42cf-8202-166e2935cf71",
    "resource": {
      "resourceType": "Questionnaire",
      "id": "97d5568a-e32c-42cf-8202-166e2935cf71",
      "identifier": [ {
        "value": "59132"
      } ],
      "version": "2021-04-06T11:33:34.963Z",
      "status": "active",
      "experimental": false,
      "date": "2021-04-06T11:33:34+00:00",
      "publisher": "User ID: 'MCDONALDD' User name: 'Denzle McDonald' User skill set: 'T3'",
      "lastReviewDate": "2021-04-06",
      "subjectType": [ "Patient" ],
      "item": [ {
        "linkId": "59132",
        "prefix": "55400",
        "text": "Are you breathing faster or harder when doing nothing at all?",
        "type": "choice",
        "required": true,
        "repeats": false,
        "option": [ {
          "valueString": "yes, Selected: false"
        }, {
          "valueString": "not sure, Selected: false"
        }, {
          "valueString": "no, Selected: true"
        } ]
      } ]
    }
  }, {
    "fullUrl": "urn:uuid:178d7ced-49d5-4e21-b712-eebd74e0a895",
    "resource": {
      "resourceType": "QuestionnaireResponse",
      "id": "178d7ced-49d5-4e21-b712-eebd74e0a895",
      "identifier": {
        "value": "59132"
      },
      "questionnaire": {
        "reference": "urn:uuid:0c42619b-5db9-4042-a4e5-8d75236aa75d"
      },
      "status": "completed",
      "subject": {
        "reference": "urn:uuid:729c5618-817e-4b25-a5d0-0959360167eb"
      },
      "context": {
        "reference": "urn:uuid:9a080412-3b06-495b-98b1-a28049364f9d"
      },
      "authored": "2021-04-06T11:33:34+00:00",
      "item": [ {
        "linkId": "Tx224697",
        "text": "ShoulderTipPainAsked",
        "answer": [ {
          "valueString": "*"
        } ]
      } ]
    }
  }, {
    "fullUrl": "urn:uuid:0c42619b-5db9-4042-a4e5-8d75236aa75d",
    "resource": {
      "resourceType": "Questionnaire",
      "id": "0c42619b-5db9-4042-a4e5-8d75236aa75d",
      "identifier": [ {
        "value": "59132"
      } ],
      "version": "2021-04-06T11:33:34.963Z",
      "status": "active",
      "experimental": false,
      "date": "2021-04-06T11:33:34+00:00",
      "publisher": "User ID: 'MCDONALDD' User name: 'Denzle McDonald' User skill set: 'T3'",
      "lastReviewDate": "2021-04-06",
      "subjectType": [ "Patient" ],
      "item": [ {
        "linkId": "59132",
        "prefix": "59300",
        "text": "ShoulderTipPainAsked",
        "type": "choice",
        "required": true,
        "repeats": false,
        "option": [ {
          "valueString": "==\"present\", Selected: false"
        }, {
          "valueString": "*, Selected: true"
        } ]
      } ]
    }
  }, {
    "fullUrl": "urn:uuid:abc9e251-5b74-458b-b650-77954327e7a5",
    "resource": {
      "resourceType": "QuestionnaireResponse",
      "id": "abc9e251-5b74-458b-b650-77954327e7a5",
      "identifier": {
        "value": "59132"
      },
      "questionnaire": {
        "reference": "urn:uuid:d2f9d3ea-ba95-4bb6-bdb0-eb9fcf63b2d0"
      },
      "status": "completed",
      "subject": {
        "reference": "urn:uuid:729c5618-817e-4b25-a5d0-0959360167eb"
      },
      "context": {
        "reference": "urn:uuid:9a080412-3b06-495b-98b1-a28049364f9d"
      },
      "authored": "2021-04-06T11:33:34+00:00",
      "item": [ {
        "linkId": "Tx1513",
        "text": "Have you got either of the following problems?",
        "answer": [ {
          "valueString": "no"
        } ]
      } ]
    }
  }, {
    "fullUrl": "urn:uuid:d2f9d3ea-ba95-4bb6-bdb0-eb9fcf63b2d0",
    "resource": {
      "resourceType": "Questionnaire",
      "id": "d2f9d3ea-ba95-4bb6-bdb0-eb9fcf63b2d0",
      "identifier": [ {
        "value": "59132"
      } ],
      "version": "2021-04-06T11:33:34.963Z",
      "status": "active",
      "experimental": false,
      "date": "2021-04-06T11:33:34+00:00",
      "publisher": "User ID: 'MCDONALDD' User name: 'Denzle McDonald' User skill set: 'T3'",
      "lastReviewDate": "2021-04-06",
      "subjectType": [ "Patient" ],
      "item": [ {
        "linkId": "59132",
        "prefix": "11000",
        "text": "Have you got either of the following problems?",
        "type": "choice",
        "required": true,
        "repeats": false,
        "option": [ {
          "valueString": "new pain in the TIP of a shoulder as well, Selected: false"
        }, {
          "valueString": "pain in the lower right side of the abdomen, Selected: false"
        }, {
          "valueString": "not sure, Selected: false"
        }, {
          "valueString": "no, Selected: true"
        } ]
      } ]
    }
  }, {
    "fullUrl": "urn:uuid:d49f38d3-7195-4743-b0a6-f79471392c4b",
    "resource": {
      "resourceType": "QuestionnaireResponse",
      "id": "d49f38d3-7195-4743-b0a6-f79471392c4b",
      "identifier": {
        "value": "59132"
      },
      "questionnaire": {
        "reference": "urn:uuid:84047ae8-841e-4861-98b9-1fe488a4e6d7"
      },
      "status": "completed",
      "subject": {
        "reference": "urn:uuid:729c5618-817e-4b25-a5d0-0959360167eb"
      },
      "context": {
        "reference": "urn:uuid:9a080412-3b06-495b-98b1-a28049364f9d"
      },
      "authored": "2021-04-06T11:33:34+00:00",
      "item": [ {
        "linkId": "Tx3481",
        "text": "Has the pain been there ALL THE TIME for MORE THAN 4 HOURS?",
        "answer": [ {
          "valueString": "no (LESS THAN 4 hours)"
        } ]
      } ]
    }
  }, {
    "fullUrl": "urn:uuid:84047ae8-841e-4861-98b9-1fe488a4e6d7",
    "resource": {
      "resourceType": "Questionnaire",
      "id": "84047ae8-841e-4861-98b9-1fe488a4e6d7",
      "identifier": [ {
        "value": "59132"
      } ],
      "version": "2021-04-06T11:33:34.963Z",
      "status": "active",
      "experimental": false,
      "date": "2021-04-06T11:33:34+00:00",
      "publisher": "User ID: 'MCDONALDD' User name: 'Denzle McDonald' User skill set: 'T3'",
      "lastReviewDate": "2021-04-06",
      "subjectType": [ "Patient" ],
      "item": [ {
        "linkId": "59132",
        "prefix": "13000",
        "text": "Has the pain been there ALL THE TIME for MORE THAN 4 HOURS?",
        "type": "choice",
        "required": true,
        "repeats": false,
        "option": [ {
          "valueString": "yes (4 hours or MORE), Selected: false"
        }, {
          "valueString": "not sure, Selected: false"
        }, {
          "valueString": "no (LESS THAN 4 hours), Selected: true"
        } ]
      } ]
    }
  }, {
    "fullUrl": "urn:uuid:9144b034-c918-4692-a653-8a4d1afe5dd9",
    "resource": {
      "resourceType": "QuestionnaireResponse",
      "id": "9144b034-c918-4692-a653-8a4d1afe5dd9",
      "identifier": {
        "value": "59132"
      },
      "questionnaire": {
        "reference": "urn:uuid:f4005d2b-3d51-4270-a241-2773895d50c7"
      },
      "status": "completed",
      "subject": {
        "reference": "urn:uuid:729c5618-817e-4b25-a5d0-0959360167eb"
      },
      "context": {
        "reference": "urn:uuid:9a080412-3b06-495b-98b1-a28049364f9d"
      },
      "authored": "2021-04-06T11:33:34+00:00",
      "item": [ {
        "linkId": "Tx1178",
        "text": "Have you been diagnosed with diabetes?",
        "answer": [ {
          "valueString": "no"
        } ]
      } ]
    }
  }, {
    "fullUrl": "urn:uuid:f4005d2b-3d51-4270-a241-2773895d50c7",
    "resource": {
      "resourceType": "Questionnaire",
      "id": "f4005d2b-3d51-4270-a241-2773895d50c7",
      "identifier": [ {
        "value": "59132"
      } ],
      "version": "2021-04-06T11:33:34.963Z",
      "status": "active",
      "experimental": false,
      "date": "2021-04-06T11:33:34+00:00",
      "publisher": "User ID: 'MCDONALDD' User name: 'Denzle McDonald' User skill set: 'T3'",
      "lastReviewDate": "2021-04-06",
      "subjectType": [ "Patient" ],
      "item": [ {
        "linkId": "59132",
        "prefix": "13700",
        "text": "Have you been diagnosed with diabetes?",
        "type": "choice",
        "required": true,
        "repeats": false,
        "option": [ {
          "valueString": "yes, Selected: false"
        }, {
          "valueString": "not sure, Selected: false"
        }, {
          "valueString": "no, Selected: true"
        } ]
      } ]
    }
  }, {
    "fullUrl": "urn:uuid:fd88d881-5b07-493b-a4ed-fbd281d1d0dd",
    "resource": {
      "resourceType": "QuestionnaireResponse",
      "id": "fd88d881-5b07-493b-a4ed-fbd281d1d0dd",
      "identifier": {
        "value": "59132"
      },
      "questionnaire": {
        "reference": "urn:uuid:1b26b8d5-1243-4033-ac4f-5d80cf62aef8"
      },
      "status": "completed",
      "subject": {
        "reference": "urn:uuid:729c5618-817e-4b25-a5d0-0959360167eb"
      },
      "context": {
        "reference": "urn:uuid:9a080412-3b06-495b-98b1-a28049364f9d"
      },
      "authored": "2021-04-06T11:33:34+00:00",
      "item": [ {
        "linkId": "Tx220906",
        "text": "Have you got pain in the back or side between the ribs and hips?",
        "answer": [ {
          "valueString": "yes"
        } ]
      } ]
    }
  }, {
    "fullUrl": "urn:uuid:1b26b8d5-1243-4033-ac4f-5d80cf62aef8",
    "resource": {
      "resourceType": "Questionnaire",
      "id": "1b26b8d5-1243-4033-ac4f-5d80cf62aef8",
      "identifier": [ {
        "value": "59132"
      } ],
      "version": "2021-04-06T11:33:34.963Z",
      "status": "active",
      "experimental": false,
      "date": "2021-04-06T11:33:34+00:00",
      "publisher": "User ID: 'MCDONALDD' User name: 'Denzle McDonald' User skill set: 'T3'",
      "lastReviewDate": "2021-04-06",
      "subjectType": [ "Patient" ],
      "item": [ {
        "linkId": "59132",
        "prefix": "14400",
        "text": "Have you got pain in the back or side between the ribs and hips?",
        "type": "choice",
        "required": true,
        "repeats": false,
        "option": [ {
          "valueString": "yes, Selected: true"
        }, {
          "valueString": "not sure, Selected: false"
        }, {
          "valueString": "no, Selected: false"
        } ]
      } ]
    }
  }, {
    "fullUrl": "urn:uuid:8c78f371-5f12-4079-8242-cc55b205c9c8",
    "resource": {
      "resourceType": "QuestionnaireResponse",
      "id": "8c78f371-5f12-4079-8242-cc55b205c9c8",
      "identifier": {
        "value": "59132"
      },
      "questionnaire": {
        "reference": "urn:uuid:1171fb86-8853-4a2d-8078-3b921d76a411"
      },
      "status": "completed",
      "subject": {
        "reference": "urn:uuid:729c5618-817e-4b25-a5d0-0959360167eb"
      },
      "context": {
        "reference": "urn:uuid:9a080412-3b06-495b-98b1-a28049364f9d"
      },
      "authored": "2021-04-06T11:33:34+00:00",
      "item": [ {
        "linkId": "Tx1122",
        "text": "Have you felt hot or feverish at any time in the last 12 hours?",
        "answer": [ {
          "valueString": "yes - temperature not taken"
        } ]
      } ]
    }
  }, {
    "fullUrl": "urn:uuid:1171fb86-8853-4a2d-8078-3b921d76a411",
    "resource": {
      "resourceType": "Questionnaire",
      "id": "1171fb86-8853-4a2d-8078-3b921d76a411",
      "identifier": [ {
        "value": "59132"
      } ],
      "version": "2021-04-06T11:33:34.963Z",
      "status": "active",
      "experimental": false,
      "date": "2021-04-06T11:33:34+00:00",
      "publisher": "User ID: 'MCDONALDD' User name: 'Denzle McDonald' User skill set: 'T3'",
      "lastReviewDate": "2021-04-06",
      "subjectType": [ "Patient" ],
      "item": [ {
        "linkId": "59132",
        "prefix": "14700",
        "text": "Have you felt hot or feverish at any time in the last 12 hours?",
        "type": "choice",
        "required": true,
        "repeats": false,
        "option": [ {
          "valueString": "yes - temperature not taken, Selected: true"
        }, {
          "valueString": "yes - temperature taken (specify), Selected: false"
        }, {
          "valueString": "not sure, Selected: false"
        }, {
          "valueString": "no, Selected: false"
        } ]
      } ]
    }
  }, {
    "fullUrl": "urn:uuid:9c39774c-249d-426c-b623-55ac9b987439",
    "resource": {
      "resourceType": "QuestionnaireResponse",
      "id": "9c39774c-249d-426c-b623-55ac9b987439",
      "identifier": {
        "value": "59132"
      },
      "questionnaire": {
        "reference": "urn:uuid:79dc45e9-e6e7-4d6a-aaf8-acb4241b3358"
      },
      "status": "completed",
      "subject": {
        "reference": "urn:uuid:729c5618-817e-4b25-a5d0-0959360167eb"
      },
      "context": {
        "reference": "urn:uuid:9a080412-3b06-495b-98b1-a28049364f9d"
      },
      "authored": "2021-04-06T11:33:34+00:00",
      "item": [ {
        "linkId": "Tx1320",
        "text": "Have you got a new red rash all over, like sunburn?",
        "answer": [ {
          "valueString": "no"
        } ]
      } ]
    }
  }, {
    "fullUrl": "urn:uuid:79dc45e9-e6e7-4d6a-aaf8-acb4241b3358",
    "resource": {
      "resourceType": "Questionnaire",
      "id": "79dc45e9-e6e7-4d6a-aaf8-acb4241b3358",
      "identifier": [ {
        "value": "59132"
      } ],
      "version": "2021-04-06T11:33:34.963Z",
      "status": "active",
      "experimental": false,
      "date": "2021-04-06T11:33:34+00:00",
      "publisher": "User ID: 'MCDONALDD' User name: 'Denzle McDonald' User skill set: 'T3'",
      "lastReviewDate": "2021-04-06",
      "subjectType": [ "Patient" ],
      "item": [ {
        "linkId": "59132",
        "prefix": "14800",
        "text": "Have you got a new red rash all over, like sunburn?",
        "type": "choice",
        "required": true,
        "repeats": false,
        "option": [ {
          "valueString": "yes, Selected: false"
        }, {
          "valueString": "not sure, Selected: false"
        }, {
          "valueString": "no, Selected: true"
        } ]
      } ]
    }
  }, {
    "fullUrl": "urn:uuid:6867a61f-1d7d-4316-9021-d0bc6cf83cc3",
    "resource": {
      "resourceType": "QuestionnaireResponse",
      "id": "6867a61f-1d7d-4316-9021-d0bc6cf83cc3",
      "identifier": {
        "value": "59132"
      },
      "questionnaire": {
        "reference": "urn:uuid:ec28a64b-27c4-4605-8b8e-7c8d9d1848a3"
      },
      "status": "completed",
      "subject": {
        "reference": "urn:uuid:729c5618-817e-4b25-a5d0-0959360167eb"
      },
      "context": {
        "reference": "urn:uuid:9a080412-3b06-495b-98b1-a28049364f9d"
      },
      "authored": "2021-04-06T11:33:34+00:00",
      "item": [ {
        "linkId": "Tx221449",
        "text": "STRING:SDPCFullPrimaryCareassessmentandprescribingcapability",
        "answer": [ {
          "valueString": "\"PC full Primary Care assessment and prescribing capability\""
        } ]
      } ]
    }
  }, {
    "fullUrl": "urn:uuid:ec28a64b-27c4-4605-8b8e-7c8d9d1848a3",
    "resource": {
      "resourceType": "Questionnaire",
      "id": "ec28a64b-27c4-4605-8b8e-7c8d9d1848a3",
      "identifier": [ {
        "value": "59132"
      } ],
      "version": "2021-04-06T11:33:34.963Z",
      "status": "active",
      "experimental": false,
      "date": "2021-04-06T11:33:34+00:00",
      "publisher": "User ID: 'MCDONALDD' User name: 'Denzle McDonald' User skill set: 'T3'",
      "lastReviewDate": "2021-04-06",
      "subjectType": [ "Patient" ],
      "item": [ {
        "linkId": "59132",
        "prefix": "14900",
        "text": "STRING:SDPCFullPrimaryCareassessmentandprescribingcapability",
        "type": "choice",
        "required": true,
        "repeats": false,
        "option": [ {
          "valueString": "\"PC full Primary Care assessment and prescribing capability\", Selected: true"
        } ]
      } ]
    }
  }, {
    "fullUrl": "urn:uuid:d2a7df26-b928-4932-b534-20543807eef4",
    "resource": {
      "resourceType": "QuestionnaireResponse",
      "id": "d2a7df26-b928-4932-b534-20543807eef4",
      "identifier": {
        "value": "59132"
      },
      "questionnaire": {
        "reference": "urn:uuid:abbf6d52-ace3-4d63-96e6-0e9323dfb337"
      },
      "status": "completed",
      "subject": {
        "reference": "urn:uuid:729c5618-817e-4b25-a5d0-0959360167eb"
      },
      "context": {
        "reference": "urn:uuid:9a080412-3b06-495b-98b1-a28049364f9d"
      },
      "authored": "2021-04-06T11:33:34+00:00"
    }
  }, {
    "fullUrl": "urn:uuid:abbf6d52-ace3-4d63-96e6-0e9323dfb337",
    "resource": {
      "resourceType": "Questionnaire",
      "id": "abbf6d52-ace3-4d63-96e6-0e9323dfb337",
      "identifier": [ {
        "value": "59132"
      } ],
      "version": "2021-04-06T11:33:34.963Z",
      "status": "active",
      "experimental": false,
      "date": "2021-04-06T11:33:34+00:00",
      "publisher": "User ID: 'MCDONALDD' User name: 'Denzle McDonald' User skill set: 'T3'",
      "lastReviewDate": "2021-04-06",
      "subjectType": [ "Patient" ]
    }
  }, {
    "fullUrl": "urn:uuid:2e1a8f2a-1265-4ecc-96b1-dc714bea3fc4",
    "resource": {
      "resourceType": "QuestionnaireResponse",
      "id": "2e1a8f2a-1265-4ecc-96b1-dc714bea3fc4",
      "identifier": {
        "value": "59132"
      },
      "questionnaire": {
        "reference": "urn:uuid:59379c1a-59b2-4959-8fc8-6bf2500f8021"
      },
      "status": "completed",
      "subject": {
        "reference": "urn:uuid:729c5618-817e-4b25-a5d0-0959360167eb"
      },
      "context": {
        "reference": "urn:uuid:9a080412-3b06-495b-98b1-a28049364f9d"
      },
      "authored": "2021-04-06T11:33:34+00:00"
    }
  }, {
    "fullUrl": "urn:uuid:59379c1a-59b2-4959-8fc8-6bf2500f8021",
    "resource": {
      "resourceType": "Questionnaire",
      "id": "59379c1a-59b2-4959-8fc8-6bf2500f8021",
      "identifier": [ {
        "value": "59132"
      } ],
      "version": "2021-04-06T11:33:34.963Z",
      "status": "active",
      "experimental": false,
      "date": "2021-04-06T11:33:34+00:00",
      "publisher": "User ID: 'MCDONALDD' User name: 'Denzle McDonald' User skill set: 'T3'",
      "lastReviewDate": "2021-04-06",
      "subjectType": [ "Patient" ]
    }
  }, {
    "fullUrl": "urn:uuid:3c0dd160-08e6-4ceb-bd93-eb4976b2a3e4",
    "resource": {
      "resourceType": "QuestionnaireResponse",
      "id": "3c0dd160-08e6-4ceb-bd93-eb4976b2a3e4",
      "identifier": {
        "value": "59132"
      },
      "questionnaire": {
        "reference": "urn:uuid:ec24b63b-39c1-4e8b-bc3d-470a74124692"
      },
      "status": "completed",
      "subject": {
        "reference": "urn:uuid:729c5618-817e-4b25-a5d0-0959360167eb"
      },
      "context": {
        "reference": "urn:uuid:9a080412-3b06-495b-98b1-a28049364f9d"
      },
      "authored": "2021-04-06T11:33:34+00:00"
    }
  }, {
    "fullUrl": "urn:uuid:ec24b63b-39c1-4e8b-bc3d-470a74124692",
    "resource": {
      "resourceType": "Questionnaire",
      "id": "ec24b63b-39c1-4e8b-bc3d-470a74124692",
      "identifier": [ {
        "value": "59132"
      } ],
      "version": "2021-04-06T11:33:34.963Z",
      "status": "active",
      "experimental": false,
      "date": "2021-04-06T11:33:34+00:00",
      "publisher": "User ID: 'MCDONALDD' User name: 'Denzle McDonald' User skill set: 'T3'",
      "lastReviewDate": "2021-04-06",
      "subjectType": [ "Patient" ]
    }
  }, {
    "fullUrl": "urn:uuid:cb1c49db-5778-4673-87c4-6111b1200614",
    "resource": {
      "resourceType": "QuestionnaireResponse",
      "id": "cb1c49db-5778-4673-87c4-6111b1200614",
      "identifier": {
        "value": "59132"
      },
      "questionnaire": {
        "reference": "urn:uuid:d3e005e2-7caf-4e97-8acc-58bbd588fa78"
      },
      "status": "completed",
      "subject": {
        "reference": "urn:uuid:729c5618-817e-4b25-a5d0-0959360167eb"
      },
      "context": {
        "reference": "urn:uuid:9a080412-3b06-495b-98b1-a28049364f9d"
      },
      "authored": "2021-04-06T11:33:34+00:00"
    }
  }, {
    "fullUrl": "urn:uuid:d3e005e2-7caf-4e97-8acc-58bbd588fa78",
    "resource": {
      "resourceType": "Questionnaire",
      "id": "d3e005e2-7caf-4e97-8acc-58bbd588fa78",
      "identifier": [ {
        "value": "59132"
      } ],
      "version": "2021-04-06T11:33:34.963Z",
      "status": "active",
      "experimental": false,
      "date": "2021-04-06T11:33:34+00:00",
      "publisher": "User ID: 'MCDONALDD' User name: 'Denzle McDonald' User skill set: 'T3'",
      "lastReviewDate": "2021-04-06",
      "subjectType": [ "Patient" ]
    }
  }, {
    "fullUrl": "urn:uuid:0c2eb5b9-fcc2-463b-966c-6bee77469756",
    "resource": {
      "resourceType": "QuestionnaireResponse",
      "id": "0c2eb5b9-fcc2-463b-966c-6bee77469756",
      "identifier": {
        "value": "59132"
      },
      "questionnaire": {
        "reference": "urn:uuid:e43248a2-bec8-4c72-9391-038fcdf0caad"
      },
      "status": "completed",
      "subject": {
        "reference": "urn:uuid:729c5618-817e-4b25-a5d0-0959360167eb"
      },
      "context": {
        "reference": "urn:uuid:9a080412-3b06-495b-98b1-a28049364f9d"
      },
      "authored": "2021-04-06T11:33:34+00:00"
    }
  }, {
    "fullUrl": "urn:uuid:e43248a2-bec8-4c72-9391-038fcdf0caad",
    "resource": {
      "resourceType": "Questionnaire",
      "id": "e43248a2-bec8-4c72-9391-038fcdf0caad",
      "identifier": [ {
        "value": "59132"
      } ],
      "version": "2021-04-06T11:33:34.963Z",
      "status": "active",
      "experimental": false,
      "date": "2021-04-06T11:33:34+00:00",
      "publisher": "User ID: 'MCDONALDD' User name: 'Denzle McDonald' User skill set: 'T3'",
      "lastReviewDate": "2021-04-06",
      "subjectType": [ "Patient" ]
    }
  }, {
    "fullUrl": "urn:uuid:95f68419-802d-41ea-becc-791722d348f2",
    "resource": {
      "resourceType": "Observation",
      "id": "95f68419-802d-41ea-becc-791722d348f2",
      "status": "final",
      "code": {
        "coding": [ {
          "system": "http://snomed.info/sct",
          "code": "33962009",
          "display": "Presenting complaint"
        } ]
      },
      "subject": {
        "reference": "urn:uuid:729c5618-817e-4b25-a5d0-0959360167eb"
      },
      "context": {
        "reference": "urn:uuid:9a080412-3b06-495b-98b1-a28049364f9d"
      },
      "valueString": "Pharmacy ITK Testing"
    }
  }, {
    "fullUrl": "urn:uuid:62481ef8-6ae5-47b6-a883-b1b8eb61b076",
    "resource": {
      "resourceType": "PractitionerRole",
      "id": "62481ef8-6ae5-47b6-a883-b1b8eb61b076",
      "practitioner": {
        "reference": "urn:uuid:38df0ac6-2bbd-46d2-aeef-78f4c4ac4712"
      },
      "organization": {
        "reference": "urn:uuid:28d25ad7-6040-4bcd-b0a7-1c54ca6127c5"
      },
      "code": [ {
        "coding": [ {
          "system": "2.16.840.1.113883.2.1.3.2.4.17.339",
          "code": "DOCTOR",
          "display": "Doctor"
        } ]
      } ]
    }
  }, {
    "fullUrl": "urn:uuid:28d25ad7-6040-4bcd-b0a7-1c54ca6127c5",
    "resource": {
      "resourceType": "Organization",
      "id": "28d25ad7-6040-4bcd-b0a7-1c54ca6127c5",
      "identifier": [ {
        "value": "RYE"
      } ],
      "name": "1.SCAS Administrator (SCAS111)"
    }
  }, {
    "fullUrl": "urn:uuid:f2101c58-eaf7-4785-82ba-b10bd3884b3d",
    "resource": {
      "resourceType": "PractitionerRole",
      "id": "f2101c58-eaf7-4785-82ba-b10bd3884b3d",
      "practitioner": {
        "reference": "urn:uuid:563af1c9-3d19-4052-9d99-6f87df8c17ca"
      },
      "organization": {
        "reference": "urn:uuid:8bf03300-5bf5-4fc4-926b-74d1fec938f3"
      },
      "code": [ {
        "coding": [ {
          "system": "2.16.840.1.113883.2.1.3.2.4.17.196",
          "code": "R0010",
          "display": "Medical Director"
        } ]
      } ]
    }
  }, {
    "fullUrl": "urn:uuid:8bf03300-5bf5-4fc4-926b-74d1fec938f3",
    "resource": {
      "resourceType": "Organization",
      "id": "8bf03300-5bf5-4fc4-926b-74d1fec938f3",
      "identifier": [ {
        "value": "RYE"
      } ],
      "name": "SCAS111"
    }
  }, {
    "fullUrl": "urn:uuid:97f150a6-1478-4d8b-8d4a-812aad9e6f40",
    "resource": {
      "resourceType": "RelatedPerson",
      "id": "97f150a6-1478-4d8b-8d4a-812aad9e6f40",
      "patient": {
        "reference": "urn:uuid:729c5618-817e-4b25-a5d0-0959360167eb"
      },
      "relationship": {
        "coding": [ {
          "system": "http://hl7.org/fhir/v2/0131",
          "code": "C",
          "display": "Emergency Contact"
        } ]
      },
      "telecom": [ {
        "system": "phone",
        "value": "tel:07948625625"
      } ]
    }
  }, {
    "fullUrl": "urn:uuid:3d6d75b9-2780-4cf7-b384-c139693293f5",
    "resource": {
      "resourceType": "Device",
      "id": "3d6d75b9-2780-4cf7-b384-c139693293f5",
      "model": "111 Adaptor",
      "version": "1.0.1"
    }
  }, {
    "fullUrl": "urn:uuid:95fddbcf-f3a1-4b3e-9bb3-9c2298ca55f8",
    "resource": {
      "resourceType": "List",
      "id": "95fddbcf-f3a1-4b3e-9bb3-9c2298ca55f8",
      "status": "current",
      "mode": "working",
      "title": "111 Report List",
      "code": {
        "coding": [ {
          "system": "http://snomed.info/sct",
          "code": "225390008",
          "display": "Triage"
        } ]
      },
      "subject": {
        "reference": "urn:uuid:729c5618-817e-4b25-a5d0-0959360167eb"
      },
      "encounter": {
        "reference": "urn:uuid:9a080412-3b06-495b-98b1-a28049364f9d"
      },
      "date": "2022-04-07T07:52:13+00:00",
      "source": {
        "reference": "urn:uuid:3d6d75b9-2780-4cf7-b384-c139693293f5"
      },
      "orderedBy": {
        "coding": [ {
          "system": "http://hl7.org/fhir/list-order",
          "code": "event-date",
          "display": "Sorted by Event Date"
        } ]
      },
      "entry": [ {
        "item": {
          "reference": "urn:uuid:28d25ad7-6040-4bcd-b0a7-1c54ca6127c5"
        }
      }, {
        "item": {
          "reference": "urn:uuid:8bf03300-5bf5-4fc4-926b-74d1fec938f3"
        }
      }, {
        "item": {
          "reference": "urn:uuid:3ab157dd-66d8-4bec-aaa5-5d6d4af52aa9"
        }
      }, {
        "item": {
          "reference": "urn:uuid:563af1c9-3d19-4052-9d99-6f87df8c17ca"
        }
      }, {
        "item": {
          "reference": "urn:uuid:58496a3d-8373-43bd-b227-10b419baffc3"
        }
      }, {
        "item": {
          "reference": "urn:uuid:1d359fcd-b2d5-4492-a3d4-6ce525f3ceda"
        }
      }, {
        "item": {
          "reference": "urn:uuid:97f150a6-1478-4d8b-8d4a-812aad9e6f40"
        }
      }, {
        "item": {
          "reference": "urn:uuid:9350b693-686b-463e-8e0c-c56693756182"
        }
      }, {
        "item": {
          "reference": "urn:uuid:38df0ac6-2bbd-46d2-aeef-78f4c4ac4712"
        }
      }, {
        "item": {
          "reference": "urn:uuid:95f68419-802d-41ea-becc-791722d348f2"
        }
      }, {
        "item": {
          "reference": "urn:uuid:e258f2f0-0fc5-4531-8733-04c8d4b2f2a7"
        }
      }, {
        "item": {
          "reference": "urn:uuid:d2f9d3ea-ba95-4bb6-bdb0-eb9fcf63b2d0"
        }
      }, {
        "item": {
          "reference": "urn:uuid:f4005d2b-3d51-4270-a241-2773895d50c7"
        }
      }, {
        "item": {
          "reference": "urn:uuid:3ee48518-9eb3-427e-ae69-c53cbe628574"
        }
      }, {
        "item": {
          "reference": "urn:uuid:4e53e8f4-8591-463a-bb13-c8f7040d73eb"
        }
      }, {
        "item": {
          "reference": "urn:uuid:19b23da7-f65c-4c05-8f78-33585386f3d0"
        }
      }, {
        "item": {
          "reference": "urn:uuid:15b0fcf1-fee9-44c0-9802-08f192d6206f"
        }
      }, {
        "item": {
          "reference": "urn:uuid:5b3b0780-6ad2-44d4-893e-8ca88724c1ff"
        }
      }, {
        "item": {
          "reference": "urn:uuid:208cbbf2-12b8-4d89-a954-18962f9b768b"
        }
      }, {
        "item": {
          "reference": "urn:uuid:5984bc50-dee3-4258-8cac-fb2986df62fa"
        }
      }, {
        "item": {
          "reference": "urn:uuid:87fb376a-06cc-4b1f-97a1-a56bf39d6cc2"
        }
      }, {
        "item": {
          "reference": "urn:uuid:bc7d30b0-1ee1-493e-9d79-162780cb156f"
        }
      }, {
        "item": {
          "reference": "urn:uuid:b96572d1-24f5-4b26-8875-96cc739acc0d"
        }
      }, {
        "item": {
          "reference": "urn:uuid:c905c542-86fd-4621-8f06-87819adbffc2"
        }
      }, {
        "item": {
          "reference": "urn:uuid:f6258e98-c41a-4957-b1c0-bc5232009e4e"
        }
      }, {
        "item": {
          "reference": "urn:uuid:641b18b3-d9d1-4387-b999-40a9fa135b51"
        }
      }, {
        "item": {
          "reference": "urn:uuid:0a9e96cc-e6aa-4714-a1c9-3af4d624126e"
        }
      }, {
        "item": {
          "reference": "urn:uuid:98b1bc06-3559-4ac9-970b-0a114a720ee4"
        }
      }, {
        "item": {
          "reference": "urn:uuid:e8c94078-3427-4baf-9525-37ffc70fc30d"
        }
      }, {
        "item": {
          "reference": "urn:uuid:a5661ceb-d47c-4831-a201-c6e2fea73689"
        }
      }, {
        "item": {
          "reference": "urn:uuid:c0022d95-1d26-4322-94c7-2f8f90a871e9"
        }
      }, {
        "item": {
          "reference": "urn:uuid:5c2a49ed-fac6-4406-af28-902c4ac2a5f4"
        }
      }, {
        "item": {
          "reference": "urn:uuid:a64ecc85-c9f5-4322-b1f9-7a2aa11e7ad0"
        }
      }, {
        "item": {
          "reference": "urn:uuid:67ba78b0-ddd1-4f7d-8c6f-a1459fc0f575"
        }
      }, {
        "item": {
          "reference": "urn:uuid:c41280a5-9153-4736-8286-c8a153f0e0b3"
        }
      }, {
        "item": {
          "reference": "urn:uuid:702b4287-4f6b-43df-b7a5-6d7fbdf336e3"
        }
      }, {
        "item": {
          "reference": "urn:uuid:31f24296-94e3-4fb9-b40d-cdd2a0ecc330"
        }
      }, {
        "item": {
          "reference": "urn:uuid:d3e005e2-7caf-4e97-8acc-58bbd588fa78"
        }
      }, {
        "item": {
          "reference": "urn:uuid:bfa21614-45a6-4577-96c7-99f63b0dc35a"
        }
      }, {
        "item": {
          "reference": "urn:uuid:c58a9c66-c416-41d4-ad42-6d25a686ca39"
        }
      }, {
        "item": {
          "reference": "urn:uuid:aabf9a84-269b-45a1-bf4f-06f0c6b0e20e"
        }
      }, {
        "item": {
          "reference": "urn:uuid:1fb4e088-8647-4c5f-8686-6b2919a988dd"
        }
      }, {
        "item": {
          "reference": "urn:uuid:80d81f57-ab6a-40b4-9f5c-05e5b1b5dedb"
        }
      }, {
        "item": {
          "reference": "urn:uuid:c2462905-e769-41ea-8bef-ecf00cc9e613"
        }
      }, {
        "item": {
          "reference": "urn:uuid:8c513dbe-4cc0-4212-a572-d302a336c0d7"
        }
      }, {
        "item": {
          "reference": "urn:uuid:7ce8b38a-32b1-41f5-82ea-5e83fc8485c1"
        }
      }, {
        "item": {
          "reference": "urn:uuid:abbf6d52-ace3-4d63-96e6-0e9323dfb337"
        }
      }, {
        "item": {
          "reference": "urn:uuid:bc3c7ab5-2d59-4dd8-a558-fd8998440cf8"
        }
      }, {
        "item": {
          "reference": "urn:uuid:135730b4-a9f7-4407-93a7-f42033e4883e"
        }
      }, {
        "item": {
          "reference": "urn:uuid:6d1fa5e2-13b8-4cae-ac68-b9f0a1753a92"
        }
      }, {
        "item": {
          "reference": "urn:uuid:963671d6-af35-43dc-baec-d2a3d75cde9f"
        }
      }, {
        "item": {
          "reference": "urn:uuid:68e2714a-e6d5-4edc-a4f4-9dca927fad2b"
        }
      }, {
        "item": {
          "reference": "urn:uuid:313e1907-2e32-4f14-8321-e24fa9ed5daa"
        }
      }, {
        "item": {
          "reference": "urn:uuid:ac70abc1-9d19-49f5-9a7a-93817584ce39"
        }
      }, {
        "item": {
          "reference": "urn:uuid:bde6463c-aab5-49db-b147-250232e98b55"
        }
      }, {
        "item": {
          "reference": "urn:uuid:0e2471cb-fa87-437a-9e27-1e591c952c04"
        }
      }, {
        "item": {
          "reference": "urn:uuid:6fe471a9-9da9-4658-9984-466cffc17ca7"
        }
      }, {
        "item": {
          "reference": "urn:uuid:e43248a2-bec8-4c72-9391-038fcdf0caad"
        }
      }, {
        "item": {
          "reference": "urn:uuid:965eb9e2-f312-41b6-99e4-2ec4afa310ab"
        }
      }, {
        "item": {
          "reference": "urn:uuid:9a8bb28e-d059-411b-bf11-643123fcf411"
        }
      }, {
        "item": {
          "reference": "urn:uuid:cb1c49db-5778-4673-87c4-6111b1200614"
        }
      }, {
        "item": {
          "reference": "urn:uuid:2c3fe700-fd66-4e26-9b8c-4a252b83a273"
        }
      }, {
        "item": {
          "reference": "urn:uuid:d2a7df26-b928-4932-b534-20543807eef4"
        }
      }, {
        "item": {
          "reference": "urn:uuid:7de91900-2d56-47f1-8d94-84753c568831"
        }
      }, {
        "item": {
          "reference": "urn:uuid:fa171d0c-015c-4101-9a0e-6ac1f3591d86"
        }
      }, {
        "item": {
          "reference": "urn:uuid:d374c4fa-20e9-4be1-9c29-3483c37b3a3c"
        }
      }, {
        "item": {
          "reference": "urn:uuid:fa5804f5-ab9e-4896-a4df-2a60d3d44749"
        }
      }, {
        "item": {
          "reference": "urn:uuid:8f9b5d74-10e8-4065-a8e2-4a16ea9fb0b1"
        }
      }, {
        "item": {
          "reference": "urn:uuid:3fddad49-e360-4e75-8d04-c7e3d9a56955"
        }
      }, {
        "item": {
          "reference": "urn:uuid:84047ae8-841e-4861-98b9-1fe488a4e6d7"
        }
      }, {
        "item": {
          "reference": "urn:uuid:1171fb86-8853-4a2d-8078-3b921d76a411"
        }
      }, {
        "item": {
          "reference": "urn:uuid:573a2d63-81c9-423b-b472-f779b126780a"
        }
      }, {
        "item": {
          "reference": "urn:uuid:3c0dd160-08e6-4ceb-bd93-eb4976b2a3e4"
        }
      }, {
        "item": {
          "reference": "urn:uuid:fd88d881-5b07-493b-a4ed-fbd281d1d0dd"
        }
      }, {
        "item": {
          "reference": "urn:uuid:a65155dc-446a-4fbd-9a0e-67908ff67444"
        }
      }, {
        "item": {
          "reference": "urn:uuid:a040d44b-e8b1-406d-8dd1-794f3f69b85d"
        }
      }, {
        "item": {
          "reference": "urn:uuid:ab2eb823-92fe-4471-b3fc-a93d2b7767ee"
        }
      }, {
        "item": {
          "reference": "urn:uuid:ba90d94f-7606-40d5-81ad-5d8b8ab5d90a"
        }
      }, {
        "item": {
          "reference": "urn:uuid:17e69fe5-5947-46c3-843b-47dccec4873e"
        }
      }, {
        "item": {
          "reference": "urn:uuid:cef04e0b-b234-4145-8e90-104625217a39"
        }
      }, {
        "item": {
          "reference": "urn:uuid:764f3334-0de9-47ce-9e85-9f69e5bba430"
        }
      }, {
        "item": {
          "reference": "urn:uuid:0ea64d77-df3c-4a87-bfaf-9228343a2580"
        }
      }, {
        "item": {
          "reference": "urn:uuid:aec58cb3-adbd-4f35-a929-9b1732beffd9"
        }
      }, {
        "item": {
          "reference": "urn:uuid:d1a71e3f-d264-4005-b9ae-dc8e9dd65865"
        }
      }, {
        "item": {
          "reference": "urn:uuid:56730f41-8929-4061-9af5-5e66f61acb37"
        }
      }, {
        "item": {
          "reference": "urn:uuid:b6093104-35e3-4f8e-82a6-d3a4a212477e"
        }
      }, {
        "item": {
          "reference": "urn:uuid:99e15ae6-7804-4d58-83f7-5fd4626989b6"
        }
      }, {
        "item": {
          "reference": "urn:uuid:f7bea527-4e61-41ba-b46f-e180d949b239"
        }
      }, {
        "item": {
          "reference": "urn:uuid:fb116781-3429-47ee-b640-a791d1f74bf0"
        }
      }, {
        "item": {
          "reference": "urn:uuid:82443d20-b429-40c4-91f3-5dc90f401591"
        }
      }, {
        "item": {
          "reference": "urn:uuid:97d5568a-e32c-42cf-8202-166e2935cf71"
        }
      }, {
        "item": {
          "reference": "urn:uuid:60170e39-d873-422b-9537-a32258e4b0ba"
        }
      }, {
        "item": {
          "reference": "urn:uuid:099d871f-da49-4e2c-98af-0f6721621bef"
        }
      }, {
        "item": {
          "reference": "urn:uuid:8d03100e-8de0-4023-970a-8046a88e3a37"
        }
      }, {
        "item": {
          "reference": "urn:uuid:40a928e5-7d25-4f7b-bf67-c9ecc891381c"
        }
      }, {
        "item": {
          "reference": "urn:uuid:ceb8a842-cb52-4fb8-a4ce-1a2f42da252f"
        }
      }, {
        "item": {
          "reference": "urn:uuid:8292ce14-f63e-4ab0-a644-ce8f349a2c33"
        }
      }, {
        "item": {
          "reference": "urn:uuid:6232aaa7-cbb7-4d31-812c-673ae59d79bc"
        }
      }, {
        "item": {
          "reference": "urn:uuid:178d7ced-49d5-4e21-b712-eebd74e0a895"
        }
      }, {
        "item": {
          "reference": "urn:uuid:0c2eb5b9-fcc2-463b-966c-6bee77469756"
        }
      }, {
        "item": {
          "reference": "urn:uuid:30795e5d-686a-4f16-986f-47e02934a07a"
        }
      }, {
        "item": {
          "reference": "urn:uuid:36c2aba5-6926-4c3e-af8e-dc0a7b40d6df"
        }
      }, {
        "item": {
          "reference": "urn:uuid:87fff409-6290-40c7-9587-7ad9fc1ae652"
        }
      }, {
        "item": {
          "reference": "urn:uuid:b7ef350e-9eb4-49d2-94bd-a248150edbaa"
        }
      }, {
        "item": {
          "reference": "urn:uuid:d364d0e0-d996-4e5a-98cc-8a84465c2aee"
        }
      }, {
        "item": {
          "reference": "urn:uuid:8b3788ab-9d30-4931-a0c7-f454446d9115"
        }
      }, {
        "item": {
          "reference": "urn:uuid:0dc952c5-00f4-4f48-9fdb-4b548806fd99"
        }
      }, {
        "item": {
          "reference": "urn:uuid:6c92f11d-6571-49ec-8264-3291b9112129"
        }
      }, {
        "item": {
          "reference": "urn:uuid:97d0af83-e4b3-4bc4-97ce-b27fe970a7a2"
        }
      }, {
        "item": {
          "reference": "urn:uuid:ec24b63b-39c1-4e8b-bc3d-470a74124692"
        }
      }, {
        "item": {
          "reference": "urn:uuid:1b26b8d5-1243-4033-ac4f-5d80cf62aef8"
        }
      }, {
        "item": {
          "reference": "urn:uuid:8dd8bb6d-3e62-4f7c-9a16-ea3781c0f2e5"
        }
      }, {
        "item": {
          "reference": "urn:uuid:8c78f371-5f12-4079-8242-cc55b205c9c8"
        }
      }, {
        "item": {
          "reference": "urn:uuid:443a317e-fa1b-4fed-a28d-c8de8a748793"
        }
      }, {
        "item": {
          "reference": "urn:uuid:4c12d97f-57a8-4b73-8963-54ed73a002d5"
        }
      }, {
        "item": {
          "reference": "urn:uuid:8b140f70-5aa9-45e7-9c9b-9c8e0cd87337"
        }
      }, {
        "item": {
          "reference": "urn:uuid:ec28a64b-27c4-4605-8b8e-7c8d9d1848a3"
        }
      }, {
        "item": {
          "reference": "urn:uuid:b1b20158-af2e-45f1-b381-a97abfb2e622"
        }
      }, {
        "item": {
          "reference": "urn:uuid:f6d5c0f0-fe99-4620-b063-9af1c472e940"
        }
      }, {
        "item": {
          "reference": "urn:uuid:4f6d2894-70fc-449c-b25e-fd6a0010bb6a"
        }
      }, {
        "item": {
          "reference": "urn:uuid:79dc45e9-e6e7-4d6a-aaf8-acb4241b3358"
        }
      }, {
        "item": {
          "reference": "urn:uuid:3115f4e7-ee32-4654-941c-3572cd32d75b"
        }
      }, {
        "item": {
          "reference": "urn:uuid:5d98c2a9-b132-4f38-8bb5-ef8f8c204f09"
        }
      }, {
        "item": {
          "reference": "urn:uuid:9144b034-c918-4692-a653-8a4d1afe5dd9"
        }
      }, {
        "item": {
          "reference": "urn:uuid:fdace6ae-e60b-4715-aede-d6ec36f33979"
        }
      }, {
        "item": {
          "reference": "urn:uuid:c35eb52c-5c9a-4aa0-8857-13ee0b4782d6"
        }
      }, {
        "item": {
          "reference": "urn:uuid:9bf6ea20-514e-43f7-ade6-ae0af73ddc37"
        }
      }, {
        "item": {
          "reference": "urn:uuid:0c42619b-5db9-4042-a4e5-8d75236aa75d"
        }
      }, {
        "item": {
          "reference": "urn:uuid:0b559313-fe33-40d2-a8b6-384a8139960e"
        }
      }, {
        "item": {
          "reference": "urn:uuid:ee5aff5b-d487-4488-ba39-f0f8f2ebf1b2"
        }
      }, {
        "item": {
          "reference": "urn:uuid:96706015-687c-41f4-8888-57498ce9c48c"
        }
      }, {
        "item": {
          "reference": "urn:uuid:3e7d9e6f-6eca-4d4b-ab0a-85e23ff81ef1"
        }
      }, {
        "item": {
          "reference": "urn:uuid:c2298543-6088-4f68-9edb-ebadc9c27a21"
        }
      }, {
        "item": {
          "reference": "urn:uuid:20cd9a2c-5ac8-4b19-ba2b-77f40146f5d7"
        }
      }, {
        "item": {
          "reference": "urn:uuid:e0ab3aa1-5601-43ad-9513-af66053b3434"
        }
      }, {
        "item": {
          "reference": "urn:uuid:ee1e00e6-6802-45ed-9cb8-d8833c7616e2"
        }
      }, {
        "item": {
          "reference": "urn:uuid:cfcefbd9-46b1-452d-93b3-b5f277ffe680"
        }
      }, {
        "item": {
          "reference": "urn:uuid:9c39774c-249d-426c-b623-55ac9b987439"
        }
      }, {
        "item": {
          "reference": "urn:uuid:ec728f4f-89ac-42b7-b1c1-d115390e55a0"
        }
      }, {
        "item": {
          "reference": "urn:uuid:842a9cbc-a123-42d5-8844-3dd0b77acad6"
        }
      }, {
        "item": {
          "reference": "urn:uuid:e988163a-84ce-4ed7-99cf-39ee512c76a0"
        }
      }, {
        "item": {
          "reference": "urn:uuid:eca6a7db-39ba-4f61-ba52-67c47e71c720"
        }
      }, {
        "item": {
          "reference": "urn:uuid:ec37ebc1-d284-41b7-8586-0ee24da30a33"
        }
      }, {
        "item": {
          "reference": "urn:uuid:73cdeecc-5703-4ab9-80de-2155a7d92669"
        }
      }, {
        "item": {
          "reference": "urn:uuid:59379c1a-59b2-4959-8fc8-6bf2500f8021"
        }
      }, {
        "item": {
          "reference": "urn:uuid:d49f38d3-7195-4743-b0a6-f79471392c4b"
        }
      }, {
        "item": {
          "reference": "urn:uuid:bac5ad6d-a30f-4b79-95aa-9eb48968e169"
        }
      }, {
        "item": {
          "reference": "urn:uuid:2e1a8f2a-1265-4ecc-96b1-dc714bea3fc4"
        }
      }, {
        "item": {
          "reference": "urn:uuid:6867a61f-1d7d-4316-9021-d0bc6cf83cc3"
        }
      }, {
        "item": {
          "reference": "urn:uuid:6f251ffe-891b-4b3d-a6c3-f1512f7739a0"
        }
      }, {
        "item": {
          "reference": "urn:uuid:6417ea19-cd6e-455b-a586-beea55e2dae4"
        }
      }, {
        "item": {
          "reference": "urn:uuid:eb2c5deb-848d-4d8b-bf04-b89858f6dd20"
        }
      }, {
        "item": {
          "reference": "urn:uuid:9f127a16-9536-44d7-a5c0-c500da8b310a"
        }
      }, {
        "item": {
          "reference": "urn:uuid:abc9e251-5b74-458b-b650-77954327e7a5"
        }
      }, {
        "item": {
          "reference": "urn:uuid:b64352cc-110b-48ed-8f0a-67a260d54409"
        }
      }, {
        "item": {
          "reference": "urn:uuid:24b1879b-6e23-475a-a413-43124ee04d6c"
        }
      }, {
        "item": {
          "reference": "urn:uuid:bbfc2b14-e379-4263-b899-39bbe0206e43"
        }
      }, {
        "item": {
          "reference": "urn:uuid:3295a927-5089-4601-9ee1-78567da1e986"
        }
      } ]
    }
  } ]
}