{
  "resourceType": "Bundle",
  "identifier": {
    "type": {
      "text": "ClinicalDocument VersionNumber"
    },
    "value": "1"
  },
  "type": "message",
  "entry": [ {
    "fullUrl": "urn:uuid:2F182787-CA39-46F8-9B1C-8E77F3050067",
    "resource": {
      "resourceType": "MessageHeader",
      "id": "2F182787-CA39-46F8-9B1C-8E77F3050067",
      "event": {
        "system": "https://fhir.nhs.uk/STU3/CodeSystem/EventType-1",
        "code": "referral-1",
        "display": "Referral"
      },
      "destination": [ {
        "endpoint": "urn:nhs-uk:addressing:ods:FDH68RPX:DOSServiceID:2000038407"
      } ],
      "timestamp": "2021-04-06T11:29:27.000+00:00",
      "source": {
        "name": "NHS 111 Adaptor",
        "endpoint": "http://localhost:8080/report"
      },
      "reason": {
        "coding": [ {
          "system": "urn:nhs-itk:ns:201005:interaction",
          "code": "urn:nhs-itk:interaction:primaryOutofHourRecipientNHS111CDADocument-v2-0"
        } ]
      }
    },
    "response": {
      "status": "success",
      "lastModified": "2022-05-09T13:25:18.364+00:00"
    }
  }, {
    "fullUrl": "urn:uuid:c0893574-0df5-4eb9-9176-c9623b5bad73",
    "resource": {
      "resourceType": "Encounter",
      "id": "c0893574-0df5-4eb9-9176-c9623b5bad73",
      "identifier": [ {
        "system": "2.16.840.1.113883.2.1.3.2.4.18.34",
        "value": "CAC4BF79-AF64-47E2-8162-53438279E2F9"
      }, {
        "system": "2.16.840.1.113883.2.1.3.2.4.18.35",
        "value": "59263"
      }, {
        "system": "2.16.840.1.113883.2.1.3.2.4.18.49",
        "value": "CAC4BF79-AF64-47E2-8162-53438279E2F9"
      } ],
      "status": "finished",
      "type": [ {
        "text": "111 Encounter Referral"
      } ],
      "subject": {
        "reference": "urn:uuid:a4ee319e-8679-4a98-af5b-76db86ae543a"
      },
      "participant": [ {
        "type": [ {
          "coding": [ {
            "system": "http://hl7.org/fhir/ValueSet/encounter-participant-type",
            "code": "PPRF",
            "display": "Author"
          } ]
        } ],
        "individual": {
          "reference": "urn:uuid:84070346-9375-42e7-8f54-1d72989f782b"
        }
      }, {
        "type": [ {
          "text": "Informant"
        } ],
        "individual": {
          "reference": "urn:uuid:08992bb3-551f-41fe-aa37-a26c1d75417b"
        }
      }, {
        "type": [ {
          "coding": [ {
            "system": "http://hl7.org/fhir/ValueSet/encounter-participant-type",
            "code": "ATND",
            "display": "Responsible Party"
          } ]
        } ],
        "individual": {
          "reference": "urn:uuid:1da9fe47-d525-48be-9a26-cb0b4bac165b"
        }
      } ],
      "period": {
        "start": "2021-04-06T11:21:50+00:00",
        "end": "2021-04-06T11:29:25+00:00"
      },
      "location": [ {
        "location": {
          "reference": "urn:uuid:1927aa5a-8a5d-46f5-b107-e0e4785210c7"
        },
        "status": "completed"
      } ],
      "serviceProvider": {
        "reference": "urn:uuid:09922051-f894-4d8e-91e2-cd78354f384e"
      }
    }
  }, {
    "fullUrl": "urn:uuid:09922051-f894-4d8e-91e2-cd78354f384e",
    "resource": {
      "resourceType": "Organization",
      "id": "09922051-f894-4d8e-91e2-cd78354f384e",
      "active": true,
      "type": [ {
        "text": "CST"
      } ],
      "name": "SCAS111"
    }
  }, {
    "fullUrl": "urn:uuid:84070346-9375-42e7-8f54-1d72989f782b",
    "resource": {
      "resourceType": "Practitioner",
      "id": "84070346-9375-42e7-8f54-1d72989f782b",
      "active": true,
      "name": [ {
        "use": "official",
        "family": "Hadfield",
        "given": [ "Ryan" ]
      } ]
    }
  }, {
    "fullUrl": "urn:uuid:08992bb3-551f-41fe-aa37-a26c1d75417b",
    "resource": {
      "resourceType": "RelatedPerson",
      "id": "08992bb3-551f-41fe-aa37-a26c1d75417b",
      "active": true,
      "patient": {
        "reference": "urn:uuid:a4ee319e-8679-4a98-af5b-76db86ae543a"
      },
      "relationship": {
        "coding": [ {
          "system": "2.16.840.1.113883.2.1.3.2.4.16.45",
          "code": "99",
          "display": "Not specified"
        } ]
      },
      "name": [ {
        "text": "Test Caller (Carer - Home)"
      } ],
      "telecom": [ {
        "system": "phone",
        "value": "tel:07777888888",
        "use": "home"
      } ],
      "gender": "unknown"
    }
  }, {
    "fullUrl": "urn:uuid:1da9fe47-d525-48be-9a26-cb0b4bac165b",
    "resource": {
      "resourceType": "Practitioner",
      "id": "1da9fe47-d525-48be-9a26-cb0b4bac165b",
      "active": true,
      "name": [ {
        "use": "official",
        "family": "Black",
        "given": [ "John" ]
      } ]
    }
  }, {
    "fullUrl": "urn:uuid:1927aa5a-8a5d-46f5-b107-e0e4785210c7",
    "resource": {
      "resourceType": "Location",
      "id": "1927aa5a-8a5d-46f5-b107-e0e4785210c7",
      "name": "Incident Location",
      "address": {
        "type": "physical",
        "line": [ "12A", "Otter Close", "Bishopstoke", "Eastleigh", "Hampshire" ],
        "postalCode": "SO50 8NF"
      }
    }
  }, {
    "fullUrl": "urn:uuid:a4ee319e-8679-4a98-af5b-76db86ae543a",
    "resource": {
      "resourceType": "Patient",
      "id": "a4ee319e-8679-4a98-af5b-76db86ae543a",
      "identifier": [ {
        "extension": [ {
          "url": "https://fhir.hl7.org.uk/STU3/StructureDefinition/Extension-CareConnect-NHSNumberVerificationStatus-1",
          "valueCodeableConcept": {
            "coding": [ {
              "system": "https://fhir.hl7.org.uk/STU3/StructureDefinition/Extension-CareConnect-NHSNumberVerificationStatus-1",
              "code": "02"
            } ]
          }
        } ],
        "system": "https://fhir.nhs.uk/Id/nhs-number",
        "value": "0000000000"
      } ],
      "active": true,
      "name": [ {
        "use": "official",
        "family": "Testone",
        "given": [ "Test" ]
      } ],
      "telecom": [ {
        "system": "phone",
        "value": "tel:000000000000",
        "use": "home"
      }, {
        "system": "phone",
        "value": "tel:01111111111",
        "use": "mobile"
      }, {
        "system": "phone",
        "value": "tel:000000000000"
      } ],
      "gender": "female",
      "birthDate": "1980-01-01",
      "address": [ {
        "use": "home",
        "line": [ "Southern House", "Sparrowgrove", "Otterbourne", "Winchester", "Hampshire" ],
        "postalCode": "SO21 2RU"
      }, {
        "type": "physical",
        "line": [ "12A", "Otter Close", "Bishopstoke", "Eastleigh", "Hampshire" ],
        "postalCode": "SO50 8NF"
      } ]
    }
  }, {
    "fullUrl": "urn:uuid:d3f037fa-ef25-48b4-b8d2-a35127866789",
    "resource": {
      "resourceType": "HealthcareService",
      "id": "d3f037fa-ef25-48b4-b8d2-a35127866789",
      "active": true,
      "providedBy": {
        "reference": "urn:uuid:c4c277c4-1c74-429e-9ccf-6d0b474735de"
      },
      "location": [ {
        "reference": "urn:uuid:1bed65ca-a79b-4506-93ab-51128f97a930"
      } ],
      "name": "Lloyds Pharmacy, Stokewood Close, Fair Oak, Eastleigh"
    }
  }, {
    "fullUrl": "urn:uuid:1bed65ca-a79b-4506-93ab-51128f97a930",
    "resource": {
      "resourceType": "Location",
      "id": "1bed65ca-a79b-4506-93ab-51128f97a930",
      "managingOrganization": {
        "reference": "urn:uuid:c4c277c4-1c74-429e-9ccf-6d0b474735de"
      }
    }
  }, {
    "fullUrl": "urn:uuid:c4c277c4-1c74-429e-9ccf-6d0b474735de",
    "resource": {
      "resourceType": "Organization",
      "id": "c4c277c4-1c74-429e-9ccf-6d0b474735de",
      "identifier": [ {
        "value": "FDH68RPX"
      } ],
      "type": [ {
        "coding": [ {
          "code": "PRCP",
          "display": "Lloyds Pharmacy, Stokewood Close, Fair Oak, Eastleigh"
        } ]
      } ],
      "name": "Lloyds Pharmacy, Stokewood Close, Fair Oak, Eastleigh"
    }
  }, {
    "fullUrl": "urn:uuid:287c908a-d223-4716-aab7-aff83751b544",
    "resource": {
      "resourceType": "ReferralRequest",
      "id": "287c908a-d223-4716-aab7-aff83751b544",
      "status": "active",
      "intent": "plan",
      "priority": "routine",
      "subject": {
        "reference": "urn:uuid:a4ee319e-8679-4a98-af5b-76db86ae543a"
      },
      "context": {
        "reference": "urn:uuid:c0893574-0df5-4eb9-9176-c9623b5bad73"
      },
      "occurrencePeriod": {
        "start": "2021-04-06T11:29:27+00:00"
      },
      "authoredOn": "2021-04-06T11:29:25+00:00",
      "requester": {
        "agent": {
          "reference": "urn:uuid:e46b75b9-00ea-4f6b-875a-d435de34bdf0"
        },
        "onBehalfOf": {
          "reference": "urn:uuid:09922051-f894-4d8e-91e2-cd78354f384e"
        }
      },
      "recipient": [ {
        "reference": "urn:uuid:d3f037fa-ef25-48b4-b8d2-a35127866789"
      } ],
      "reasonReference": [ {
        "reference": "urn:uuid:9afab9d5-f835-4134-8162-54832429cad3"
      } ],
      "supportingInfo": [ {
        "reference": "urn:uuid:6ee0a98e-4e65-49a4-86d9-bb76e35dce54"
      } ]
    }
  }, {
    "fullUrl": "urn:uuid:6ee0a98e-4e65-49a4-86d9-bb76e35dce54",
    "resource": {
      "resourceType": "ProcedureRequest",
      "id": "6ee0a98e-4e65-49a4-86d9-bb76e35dce54",
      "status": "active",
      "intent": "plan",
      "priority": "routine",
      "doNotPerform": false,
      "code": {
        "coding": [ {
          "system": "2.16.840.1.113883.2.1.3.2.4.17.325",
          "code": "Dx86",
          "display": "Repeat Prescription required within 12 hours"
        } ]
      },
      "subject": {
        "reference": "urn:uuid:a4ee319e-8679-4a98-af5b-76db86ae543a"
      },
      "occurrencePeriod": {
        "start": "2021-04-06T11:29:27+00:00"
      },
      "reasonReference": [ {
        "reference": "urn:uuid:9afab9d5-f835-4134-8162-54832429cad3"
      } ]
    }
  }, {
    "fullUrl": "urn:uuid:f682a3c3-1bb9-4e7e-b79d-a76bc0d6fcff",
    "resource": {
      "resourceType": "Composition",
      "id": "f682a3c3-1bb9-4e7e-b79d-a76bc0d6fcff",
      "identifier": {
        "use": "usual",
        "value": "B66502CD-A9B4-4F3E-83EB-981F572C2C91"
      },
      "status": "final",
      "type": {
        "coding": [ {
          "system": "http://snomed.info/sct",
          "code": "371531000",
          "display": "Report of clinical encounter (record artifact)"
        } ]
      },
      "subject": {
        "reference": "urn:uuid:a4ee319e-8679-4a98-af5b-76db86ae543a"
      },
      "encounter": {
        "reference": "urn:uuid:c0893574-0df5-4eb9-9176-c9623b5bad73"
      },
      "date": "2021-04-06T11:29:27+00:00",
      "author": [ {
        "reference": "urn:uuid:84070346-9375-42e7-8f54-1d72989f782b"
      } ],
      "title": "111 Report",
      "confidentiality": "N",
      "section": [ {
        "section": [ {
          "title": "Patient's Reported Condition",
          "text": {
            "status": "generated",
            "div": "<div xmlns=\"http://www.w3.org/1999/xhtml\">&lt;content&gt;test&lt;/content&gt;\n                                                    &lt;br/&gt;</div>"
          }
        }, {
          "title": "Pathways Disposition",
          "text": {
            "status": "generated",
            "div": "<div xmlns=\"http://www.w3.org/1999/xhtml\">Repeat Prescription required within 12 hours (Dx86)                                         &lt;br/&gt;\n                                                    &lt;br/&gt;                                         Selected service: Lloyds Pharmacy, Stokewood Close, Fair Oak, Eastle&lt;br/&gt;</div>"
          }
        }, {
          "title": "Consultation Summary",
          "text": {
            "status": "generated",
            "div": "<div xmlns=\"http://www.w3.org/1999/xhtml\">Prescription request&lt;br/&gt;Not enough medication until surgery opens&lt;br/&gt;No medication available&lt;br/&gt;Next dose due within next 12 hours&lt;br/&gt;</div>"
          }
        }, {
          "title": "Pathways Assessment",
          "text": {
            "status": "generated",
            "div": "<div xmlns=\"http://www.w3.org/1999/xhtml\">Reason for call menu - continued to next list.&lt;br/&gt;A prescription request was the main reason for the contact.&lt;br/&gt;The main reason for the contact was not a new or worsening illness.&lt;br/&gt;The individual did not have enough medication to last until the surgery next opened.&lt;br/&gt;The medication was suitable for repeat prescribing without further consultation.&lt;br/&gt;The individual had no medication available.&lt;br/&gt;The next dose was due within 12 hours.&lt;br/&gt;Instructions given were: The individual needs a repeat prescription.&lt;br/&gt;Directory of Services referral: Lloyds Pharmacy, Stokewood Close, Fair Oak, Eastleigh&lt;br/&gt;</div>"
          }
        }, {
          "title": "Advice Given",
          "text": {
            "status": "generated",
            "div": "<div xmlns=\"http://www.w3.org/1999/xhtml\">IF THE RECOMMENDED TIMEFRAME FALLS OUTSIDE OPENING HOURS: I will arrange for a clinician to speak to the individual.&lt;br/&gt;\n                                                    &lt;br/&gt;</div>"
          }
        }, {
          "title": "Information And Advice Given"
        }, {
          "title": "Disposition",
          "text": {
            "status": "generated",
            "div": "<div xmlns=\"http://www.w3.org/1999/xhtml\">&lt;content&gt;Repeat Prescription required within 12 hours&lt;br/&gt;\n                                                    &lt;/content&gt;\n                                                    &lt;br/&gt;\n                                                    &lt;br/&gt;</div>"
          }
        } ]
      }, {
        "title": "CarePlan",
        "entry": [ {
          "reference": "urn:uuid:1d66bec8-0853-4282-a811-192999d092db"
        } ]
      }, {
        "title": "ReferralRequest",
        "entry": [ {
          "reference": "urn:uuid:287c908a-d223-4716-aab7-aff83751b544"
        } ]
      }, {
        "title": "QuestionnaireResponse",
        "entry": [ {
          "reference": "urn:uuid:b1d3b64c-5e85-462f-acef-c5184cbf06e4"
        } ]
      }, {
        "title": "QuestionnaireResponse",
        "entry": [ {
          "reference": "urn:uuid:3ff14ecd-2516-4ce3-8812-771e005b3aff"
        } ]
      }, {
        "title": "QuestionnaireResponse",
        "entry": [ {
          "reference": "urn:uuid:be7e73b1-3764-494e-bf6a-53a91258f5d3"
        } ]
      }, {
        "title": "QuestionnaireResponse",
        "entry": [ {
          "reference": "urn:uuid:2e84011b-1ea6-42d2-bdf7-4c91e96859d9"
        } ]
      }, {
        "title": "QuestionnaireResponse",
        "entry": [ {
          "reference": "urn:uuid:d7263574-d21f-4851-aac5-ea6ee7310782"
        } ]
      }, {
        "title": "QuestionnaireResponse",
        "entry": [ {
          "reference": "urn:uuid:56ed7bda-be77-4250-ac4b-d930dced9461"
        } ]
      }, {
        "title": "QuestionnaireResponse",
        "entry": [ {
          "reference": "urn:uuid:79f3766d-4862-4091-ade2-c64ead8798cb"
        } ]
      }, {
        "title": "QuestionnaireResponse",
        "entry": [ {
          "reference": "urn:uuid:066c1807-26e3-4ad8-a000-0237b063b883"
        } ]
      }, {
        "title": "QuestionnaireResponse",
        "entry": [ {
          "reference": "urn:uuid:c405d46c-8183-4267-a82b-4253ef5db070"
        } ]
      }, {
        "title": "QuestionnaireResponse",
        "entry": [ {
          "reference": "urn:uuid:beff662a-689c-44c0-99c2-a61935dbc8ae"
        } ]
      }, {
        "title": "QuestionnaireResponse",
        "entry": [ {
          "reference": "urn:uuid:e7e1c2e9-abbc-4972-ab48-727c863b1fcd"
        } ]
      }, {
        "title": "QuestionnaireResponse",
        "entry": [ {
          "reference": "urn:uuid:9ed0b9f4-82f8-4e36-b7dd-4a242c4ddddd"
        } ]
      }, {
        "title": "QuestionnaireResponse",
        "entry": [ {
          "reference": "urn:uuid:52e97612-021f-4124-96ee-10389351cee1"
        } ]
      }, {
        "title": "QuestionnaireResponse",
        "entry": [ {
          "reference": "urn:uuid:9e90b8d2-f41d-4d3d-a0ba-44c6bc18560d"
        } ]
      }, {
        "title": "QuestionnaireResponse",
        "entry": [ {
          "reference": "urn:uuid:88b891b8-de7f-4404-a055-39c49bc22d9b"
        } ]
      }, {
        "title": "QuestionnaireResponse",
        "entry": [ {
          "reference": "urn:uuid:2ee24a86-a340-46e9-94ea-9e02839fdf8b"
        } ]
      }, {
        "title": "QuestionnaireResponse",
        "entry": [ {
          "reference": "urn:uuid:746e30a4-4772-4e84-b4e9-24137ac0dcf6"
        } ]
      }, {
        "title": "QuestionnaireResponse",
        "entry": [ {
          "reference": "urn:uuid:503982b6-1eab-460d-b6bc-d55ecb9cc123"
        } ]
      }, {
        "title": "QuestionnaireResponse",
        "entry": [ {
          "reference": "urn:uuid:a84e88cb-898d-4354-aaa8-865ed1b8de0a"
        } ]
      }, {
        "title": "QuestionnaireResponse",
        "entry": [ {
          "reference": "urn:uuid:e916b316-6c5f-48ad-ad3e-f740417ae3e0"
        } ]
      }, {
        "title": "QuestionnaireResponse",
        "entry": [ {
          "reference": "urn:uuid:b2089415-45fa-41ac-aa8f-b0fb85bb2ed9"
        } ]
      }, {
        "title": "QuestionnaireResponse",
        "entry": [ {
          "reference": "urn:uuid:c381348e-f5e5-466b-8701-e822899b75bc"
        } ]
      }, {
        "title": "QuestionnaireResponse",
        "entry": [ {
          "reference": "urn:uuid:ba3f033e-2ecf-4f3b-af98-c1f6349aa834"
        } ]
      }, {
        "title": "QuestionnaireResponse",
        "entry": [ {
          "reference": "urn:uuid:87591fc1-cb76-4f51-8301-5124b2743c65"
        } ]
      }, {
        "title": "QuestionnaireResponse",
        "entry": [ {
          "reference": "urn:uuid:40ccb41f-971f-4f30-b519-8c55ad7ed74d"
        } ]
      }, {
        "title": "QuestionnaireResponse",
        "entry": [ {
          "reference": "urn:uuid:936229ca-44d9-423b-b7ab-a873f524bc62"
        } ]
      }, {
        "title": "QuestionnaireResponse",
        "entry": [ {
          "reference": "urn:uuid:89f403c0-1ced-463b-a9a2-d93bc12d1896"
        } ]
      }, {
        "title": "QuestionnaireResponse",
        "entry": [ {
          "reference": "urn:uuid:f06490b8-7425-4a2a-8106-83b0cd504a1e"
        } ]
      }, {
        "title": "QuestionnaireResponse",
        "entry": [ {
          "reference": "urn:uuid:f8d885f8-96af-437f-9d59-5d0b46119978"
        } ]
      }, {
        "title": "QuestionnaireResponse",
        "entry": [ {
          "reference": "urn:uuid:4c5e2fab-7791-45a0-95c2-55c399478289"
        } ]
      }, {
        "title": "QuestionnaireResponse",
        "entry": [ {
          "reference": "urn:uuid:fa3a0578-fefe-45c8-b300-fae57538dff1"
        } ]
      }, {
        "title": "QuestionnaireResponse",
        "entry": [ {
          "reference": "urn:uuid:7b8aa9c2-88e5-47a1-a46c-961f2e142626"
        } ]
      }, {
        "title": "QuestionnaireResponse",
        "entry": [ {
          "reference": "urn:uuid:bb15a664-41b6-4dbe-b5f7-c34d8b11db35"
        } ]
      }, {
        "title": "QuestionnaireResponse",
        "entry": [ {
          "reference": "urn:uuid:3a40d83d-0b5d-4bea-89c6-3eef570ff4b2"
        } ]
      }, {
        "title": "QuestionnaireResponse",
        "entry": [ {
          "reference": "urn:uuid:4c7a6023-45c1-420b-afd0-7c137d601f07"
        } ]
      }, {
        "title": "QuestionnaireResponse",
        "entry": [ {
          "reference": "urn:uuid:f89403e1-d46a-40c7-bd03-fbc9f774745f"
        } ]
      }, {
        "title": "QuestionnaireResponse",
        "entry": [ {
          "reference": "urn:uuid:fffa4e63-6095-4b14-9b89-c9ffdeac5390"
        } ]
      }, {
        "title": "QuestionnaireResponse",
        "entry": [ {
          "reference": "urn:uuid:94ad1fd1-1a20-4e78-a831-ca8c1870bfed"
        } ]
      }, {
        "title": "QuestionnaireResponse",
        "entry": [ {
          "reference": "urn:uuid:eb81a414-4b49-419d-9d69-b4068d1fb6ab"
        } ]
      }, {
        "title": "QuestionnaireResponse",
        "entry": [ {
          "reference": "urn:uuid:f048ba68-e961-4368-a1f9-5938d391b661"
        } ]
      }, {
        "title": "QuestionnaireResponse",
        "entry": [ {
          "reference": "urn:uuid:96dd994f-c44f-4ad6-9ff2-2762e06c55f3"
        } ]
      }, {
        "title": "QuestionnaireResponse",
        "entry": [ {
          "reference": "urn:uuid:3161ac2a-9429-4d6a-ac89-36eeb1378bbb"
        } ]
      }, {
        "title": "QuestionnaireResponse",
        "entry": [ {
          "reference": "urn:uuid:6086a773-2564-4b7c-9fe8-c5a446a931e3"
        } ]
      }, {
        "title": "QuestionnaireResponse",
        "entry": [ {
          "reference": "urn:uuid:36405642-9c6c-4919-ad3a-54c78b8ff22e"
        } ]
      }, {
        "title": "QuestionnaireResponse",
        "entry": [ {
          "reference": "urn:uuid:0535be93-8940-4746-b50a-fa86add20f7a"
        } ]
      }, {
        "title": "QuestionnaireResponse",
        "entry": [ {
          "reference": "urn:uuid:6750c4e7-957d-4503-9c92-8bed9d7ac3de"
        } ]
      }, {
        "title": "QuestionnaireResponse",
        "entry": [ {
          "reference": "urn:uuid:86c2cc74-ee81-4624-bc3b-8fb1d769aed0"
        } ]
      }, {
        "title": "QuestionnaireResponse",
        "entry": [ {
          "reference": "urn:uuid:27da8f0c-4c24-4068-94fe-059b177de6d2"
        } ]
      }, {
        "title": "QuestionnaireResponse",
        "entry": [ {
          "reference": "urn:uuid:da6ec7db-528c-43c1-96a3-5fb125c7df5b"
        } ]
      }, {
        "title": "QuestionnaireResponse",
        "entry": [ {
          "reference": "urn:uuid:7381cebf-0822-4f36-b63e-aa4e6a264b06"
        } ]
      }, {
        "title": "QuestionnaireResponse",
        "entry": [ {
          "reference": "urn:uuid:14a74045-9520-46cd-9e5f-f7376109ba0f"
        } ]
      }, {
        "title": "QuestionnaireResponse",
        "entry": [ {
          "reference": "urn:uuid:0db19991-6fd4-41a1-a2f3-c9500a340a0d"
        } ]
      }, {
        "title": "QuestionnaireResponse",
        "entry": [ {
          "reference": "urn:uuid:9cdd288f-82df-4033-a4f6-d05cdc8c82e3"
        } ]
      }, {
        "title": "QuestionnaireResponse",
        "entry": [ {
          "reference": "urn:uuid:f7f149d4-2190-4cce-a619-165ec4c9a648"
        } ]
      }, {
        "title": "QuestionnaireResponse",
        "entry": [ {
          "reference": "urn:uuid:67e7c60b-f334-477b-ac78-bc1a99f75cff"
        } ]
      }, {
        "title": "QuestionnaireResponse",
        "entry": [ {
          "reference": "urn:uuid:f599520e-cf52-481c-861b-385c5c6131de"
        } ]
      }, {
        "title": "QuestionnaireResponse",
        "entry": [ {
          "reference": "urn:uuid:825ee750-63dc-47a5-8c28-e726aeb21d2a"
        } ]
      }, {
        "title": "QuestionnaireResponse",
        "entry": [ {
          "reference": "urn:uuid:e100bb08-ea06-4b8a-b4b1-b419cfe54622"
        } ]
      }, {
        "title": "QuestionnaireResponse",
        "entry": [ {
          "reference": "urn:uuid:6b4d22c2-1bb6-4ec6-83da-830b111786cf"
        } ]
      }, {
        "title": "QuestionnaireResponse",
        "entry": [ {
          "reference": "urn:uuid:d340f2eb-aba4-4b82-8a7e-9680f895011c"
        } ]
      }, {
        "title": "QuestionnaireResponse",
        "entry": [ {
          "reference": "urn:uuid:b3178594-cc40-4944-aef7-28ca0b35533c"
        } ]
      } ]
    }
  }, {
    "fullUrl": "urn:uuid:1d66bec8-0853-4282-a811-192999d092db",
    "resource": {
      "resourceType": "CarePlan",
      "id": "1d66bec8-0853-4282-a811-192999d092db",
      "status": "completed",
      "intent": "plan",
      "title": "Information And Advice Given",
      "subject": {
        "reference": "urn:uuid:a4ee319e-8679-4a98-af5b-76db86ae543a"
      },
      "context": {
        "reference": "urn:uuid:c0893574-0df5-4eb9-9176-c9623b5bad73"
      },
      "period": {
        "start": "2021-04-06T11:21:50+00:00",
        "end": "2021-04-06T11:29:25+00:00"
      },
      "addresses": [ {
        "reference": "urn:uuid:9afab9d5-f835-4134-8162-54832429cad3"
      } ]
    }
  }, {
    "fullUrl": "urn:uuid:b67b72ca-9b09-4733-b0f4-3bfc4fc5a2bb",
    "resource": {
      "resourceType": "Consent",
      "id": "b67b72ca-9b09-4733-b0f4-3bfc4fc5a2bb",
      "identifier": {
        "use": "usual",
        "value": "B66502CD-A9B4-4F3E-83EB-981F572C2C91"
      },
      "status": "active",
      "patient": {
        "reference": "urn:uuid:a4ee319e-8679-4a98-af5b-76db86ae543a"
      },
      "period": {
        "start": "2021-04-06T11:21:50+00:00",
        "end": "2021-04-06T11:29:25+00:00"
      },
      "consentingParty": [ {
        "reference": "urn:uuid:a4ee319e-8679-4a98-af5b-76db86ae543a"
      } ],
      "action": [ {
        "coding": [ {
          "system": "http://snomed.info/sct",
          "code": "425691002",
          "display": "Consent given for electronic record sharing"
        } ],
        "text": "Consent given for electronic record sharing"
      } ],
      "organization": [ {
        "reference": "urn:uuid:09922051-f894-4d8e-91e2-cd78354f384e"
      } ],
      "policyRule": "http://hl7.org/fhir/ConsentPolicy/opt-out",
      "data": [ {
        "meaning": "related",
        "reference": {
          "reference": "urn:uuid:c0893574-0df5-4eb9-9176-c9623b5bad73"
        }
      } ]
    }
  }, {
    "fullUrl": "urn:uuid:9afab9d5-f835-4134-8162-54832429cad3",
    "resource": {
      "resourceType": "Condition",
      "id": "9afab9d5-f835-4134-8162-54832429cad3",
      "clinicalStatus": "active",
      "verificationStatus": "unknown",
      "subject": {
        "reference": "urn:uuid:a4ee319e-8679-4a98-af5b-76db86ae543a"
      },
      "context": {
        "reference": "urn:uuid:c0893574-0df5-4eb9-9176-c9623b5bad73"
      },
      "evidence": [ {
        "detail": [ {
          "reference": "urn:uuid:b1d3b64c-5e85-462f-acef-c5184cbf06e4"
        } ]
      }, {
        "detail": [ {
          "reference": "urn:uuid:3ff14ecd-2516-4ce3-8812-771e005b3aff"
        } ]
      }, {
        "detail": [ {
          "reference": "urn:uuid:be7e73b1-3764-494e-bf6a-53a91258f5d3"
        } ]
      }, {
        "detail": [ {
          "reference": "urn:uuid:2e84011b-1ea6-42d2-bdf7-4c91e96859d9"
        } ]
      }, {
        "detail": [ {
          "reference": "urn:uuid:d7263574-d21f-4851-aac5-ea6ee7310782"
        } ]
      }, {
        "detail": [ {
          "reference": "urn:uuid:56ed7bda-be77-4250-ac4b-d930dced9461"
        } ]
      }, {
        "detail": [ {
          "reference": "urn:uuid:79f3766d-4862-4091-ade2-c64ead8798cb"
        } ]
      }, {
        "detail": [ {
          "reference": "urn:uuid:066c1807-26e3-4ad8-a000-0237b063b883"
        } ]
      }, {
        "detail": [ {
          "reference": "urn:uuid:c405d46c-8183-4267-a82b-4253ef5db070"
        } ]
      }, {
        "detail": [ {
          "reference": "urn:uuid:beff662a-689c-44c0-99c2-a61935dbc8ae"
        } ]
      }, {
        "detail": [ {
          "reference": "urn:uuid:e7e1c2e9-abbc-4972-ab48-727c863b1fcd"
        } ]
      }, {
        "detail": [ {
          "reference": "urn:uuid:9ed0b9f4-82f8-4e36-b7dd-4a242c4ddddd"
        } ]
      }, {
        "detail": [ {
          "reference": "urn:uuid:52e97612-021f-4124-96ee-10389351cee1"
        } ]
      }, {
        "detail": [ {
          "reference": "urn:uuid:9e90b8d2-f41d-4d3d-a0ba-44c6bc18560d"
        } ]
      }, {
        "detail": [ {
          "reference": "urn:uuid:88b891b8-de7f-4404-a055-39c49bc22d9b"
        } ]
      }, {
        "detail": [ {
          "reference": "urn:uuid:2ee24a86-a340-46e9-94ea-9e02839fdf8b"
        } ]
      }, {
        "detail": [ {
          "reference": "urn:uuid:746e30a4-4772-4e84-b4e9-24137ac0dcf6"
        } ]
      }, {
        "detail": [ {
          "reference": "urn:uuid:503982b6-1eab-460d-b6bc-d55ecb9cc123"
        } ]
      }, {
        "detail": [ {
          "reference": "urn:uuid:a84e88cb-898d-4354-aaa8-865ed1b8de0a"
        } ]
      }, {
        "detail": [ {
          "reference": "urn:uuid:e916b316-6c5f-48ad-ad3e-f740417ae3e0"
        } ]
      }, {
        "detail": [ {
          "reference": "urn:uuid:b2089415-45fa-41ac-aa8f-b0fb85bb2ed9"
        } ]
      }, {
        "detail": [ {
          "reference": "urn:uuid:c381348e-f5e5-466b-8701-e822899b75bc"
        } ]
      }, {
        "detail": [ {
          "reference": "urn:uuid:ba3f033e-2ecf-4f3b-af98-c1f6349aa834"
        } ]
      }, {
        "detail": [ {
          "reference": "urn:uuid:87591fc1-cb76-4f51-8301-5124b2743c65"
        } ]
      }, {
        "detail": [ {
          "reference": "urn:uuid:40ccb41f-971f-4f30-b519-8c55ad7ed74d"
        } ]
      }, {
        "detail": [ {
          "reference": "urn:uuid:936229ca-44d9-423b-b7ab-a873f524bc62"
        } ]
      }, {
        "detail": [ {
          "reference": "urn:uuid:89f403c0-1ced-463b-a9a2-d93bc12d1896"
        } ]
      }, {
        "detail": [ {
          "reference": "urn:uuid:f06490b8-7425-4a2a-8106-83b0cd504a1e"
        } ]
      }, {
        "detail": [ {
          "reference": "urn:uuid:f8d885f8-96af-437f-9d59-5d0b46119978"
        } ]
      }, {
        "detail": [ {
          "reference": "urn:uuid:4c5e2fab-7791-45a0-95c2-55c399478289"
        } ]
      }, {
        "detail": [ {
          "reference": "urn:uuid:fa3a0578-fefe-45c8-b300-fae57538dff1"
        } ]
      }, {
        "detail": [ {
          "reference": "urn:uuid:7b8aa9c2-88e5-47a1-a46c-961f2e142626"
        } ]
      }, {
        "detail": [ {
          "reference": "urn:uuid:bb15a664-41b6-4dbe-b5f7-c34d8b11db35"
        } ]
      }, {
        "detail": [ {
          "reference": "urn:uuid:3a40d83d-0b5d-4bea-89c6-3eef570ff4b2"
        } ]
      }, {
        "detail": [ {
          "reference": "urn:uuid:4c7a6023-45c1-420b-afd0-7c137d601f07"
        } ]
      }, {
        "detail": [ {
          "reference": "urn:uuid:f89403e1-d46a-40c7-bd03-fbc9f774745f"
        } ]
      }, {
        "detail": [ {
          "reference": "urn:uuid:fffa4e63-6095-4b14-9b89-c9ffdeac5390"
        } ]
      }, {
        "detail": [ {
          "reference": "urn:uuid:94ad1fd1-1a20-4e78-a831-ca8c1870bfed"
        } ]
      }, {
        "detail": [ {
          "reference": "urn:uuid:eb81a414-4b49-419d-9d69-b4068d1fb6ab"
        } ]
      }, {
        "detail": [ {
          "reference": "urn:uuid:f048ba68-e961-4368-a1f9-5938d391b661"
        } ]
      }, {
        "detail": [ {
          "reference": "urn:uuid:96dd994f-c44f-4ad6-9ff2-2762e06c55f3"
        } ]
      }, {
        "detail": [ {
          "reference": "urn:uuid:3161ac2a-9429-4d6a-ac89-36eeb1378bbb"
        } ]
      }, {
        "detail": [ {
          "reference": "urn:uuid:6086a773-2564-4b7c-9fe8-c5a446a931e3"
        } ]
      }, {
        "detail": [ {
          "reference": "urn:uuid:36405642-9c6c-4919-ad3a-54c78b8ff22e"
        } ]
      }, {
        "detail": [ {
          "reference": "urn:uuid:0535be93-8940-4746-b50a-fa86add20f7a"
        } ]
      }, {
        "detail": [ {
          "reference": "urn:uuid:6750c4e7-957d-4503-9c92-8bed9d7ac3de"
        } ]
      }, {
        "detail": [ {
          "reference": "urn:uuid:86c2cc74-ee81-4624-bc3b-8fb1d769aed0"
        } ]
      }, {
        "detail": [ {
          "reference": "urn:uuid:27da8f0c-4c24-4068-94fe-059b177de6d2"
        } ]
      }, {
        "detail": [ {
          "reference": "urn:uuid:da6ec7db-528c-43c1-96a3-5fb125c7df5b"
        } ]
      }, {
        "detail": [ {
          "reference": "urn:uuid:7381cebf-0822-4f36-b63e-aa4e6a264b06"
        } ]
      }, {
        "detail": [ {
          "reference": "urn:uuid:14a74045-9520-46cd-9e5f-f7376109ba0f"
        } ]
      }, {
        "detail": [ {
          "reference": "urn:uuid:0db19991-6fd4-41a1-a2f3-c9500a340a0d"
        } ]
      }, {
        "detail": [ {
          "reference": "urn:uuid:9cdd288f-82df-4033-a4f6-d05cdc8c82e3"
        } ]
      }, {
        "detail": [ {
          "reference": "urn:uuid:f7f149d4-2190-4cce-a619-165ec4c9a648"
        } ]
      }, {
        "detail": [ {
          "reference": "urn:uuid:67e7c60b-f334-477b-ac78-bc1a99f75cff"
        } ]
      }, {
        "detail": [ {
          "reference": "urn:uuid:f599520e-cf52-481c-861b-385c5c6131de"
        } ]
      }, {
        "detail": [ {
          "reference": "urn:uuid:825ee750-63dc-47a5-8c28-e726aeb21d2a"
        } ]
      }, {
        "detail": [ {
          "reference": "urn:uuid:e100bb08-ea06-4b8a-b4b1-b419cfe54622"
        } ]
      }, {
        "detail": [ {
          "reference": "urn:uuid:6b4d22c2-1bb6-4ec6-83da-830b111786cf"
        } ]
      }, {
        "detail": [ {
          "reference": "urn:uuid:d340f2eb-aba4-4b82-8a7e-9680f895011c"
        } ]
      }, {
        "detail": [ {
          "reference": "urn:uuid:b3178594-cc40-4944-aef7-28ca0b35533c"
        } ]
      } ]
    }
  }, {
    "fullUrl": "urn:uuid:b1d3b64c-5e85-462f-acef-c5184cbf06e4",
    "resource": {
      "resourceType": "QuestionnaireResponse",
      "id": "b1d3b64c-5e85-462f-acef-c5184cbf06e4",
      "identifier": {
        "value": "59263"
      },
      "questionnaire": {
        "reference": "urn:uuid:309c65ba-3bea-4177-ba1e-edf61183c5c5"
      },
      "status": "completed",
      "subject": {
        "reference": "urn:uuid:a4ee319e-8679-4a98-af5b-76db86ae543a"
      },
      "context": {
        "reference": "urn:uuid:c0893574-0df5-4eb9-9176-c9623b5bad73"
      },
      "authored": "2021-04-06T11:29:26+00:00",
      "item": [ {
        "linkId": "Tx220074",
        "text": "What is the reason for the contact?",
        "answer": [ {
          "valueString": "an injury or other health problem"
        } ]
      } ]
    }
  }, {
    "fullUrl": "urn:uuid:309c65ba-3bea-4177-ba1e-edf61183c5c5",
    "resource": {
      "resourceType": "Questionnaire",
      "id": "309c65ba-3bea-4177-ba1e-edf61183c5c5",
      "identifier": [ {
        "value": "59263"
      } ],
      "version": "2021-04-06T11:29:26.887Z",
      "status": "active",
      "experimental": false,
      "date": "2021-04-06T11:29:26+00:00",
      "publisher": "User ID: 'HADFIELDR' User name: 'Ryan Hadfield' User skill set: 'T3'",
      "lastReviewDate": "2021-04-06",
      "contact": [ {
        "telecom": [ {
          "system": "phone",
          "value": "07777 888888"
        } ]
      } ],
      "subjectType": [ "Patient" ],
      "item": [ {
        "linkId": "59263",
        "prefix": "5",
        "text": "What is the reason for the contact?",
        "type": "choice",
        "required": true,
        "repeats": false,
        "option": [ {
          "valueString": "an injury or other health problem, Selected: true"
        }, {
          "valueString": "labour or childbirth, Selected: false"
        }, {
          "valueString": "a need to access another healthcare service, Selected: false"
        }, {
          "valueString": "a healthcare professional requesting contact with another clinician, Selected: false"
        }, {
          "valueString": "a report of results or tests, Selected: false"
        }, {
          "valueString": "a possible failure of contraception, Selected: false"
        }, {
          "valueString": "more, Selected: false"
        } ]
      } ]
    }
  }, {
    "fullUrl": "urn:uuid:3ff14ecd-2516-4ce3-8812-771e005b3aff",
    "resource": {
      "resourceType": "QuestionnaireResponse",
      "id": "3ff14ecd-2516-4ce3-8812-771e005b3aff",
      "identifier": {
        "value": "59263"
      },
      "questionnaire": {
        "reference": "urn:uuid:a3c8291a-0d99-4e53-a4e6-f2e22c07e233"
      },
      "status": "completed",
      "subject": {
        "reference": "urn:uuid:a4ee319e-8679-4a98-af5b-76db86ae543a"
      },
      "context": {
        "reference": "urn:uuid:c0893574-0df5-4eb9-9176-c9623b5bad73"
      },
      "authored": "2021-04-06T11:29:26+00:00",
      "item": [ {
        "linkId": "Tx221807",
        "text": "STRING:to'Immediatethreatstolife(SPA/OOHversion)'-'Majorbloodloss'stem",
        "answer": [ {
          "valueString": "\"present\""
        } ]
      } ]
    }
  }, {
    "fullUrl": "urn:uuid:a3c8291a-0d99-4e53-a4e6-f2e22c07e233",
    "resource": {
      "resourceType": "Questionnaire",
      "id": "a3c8291a-0d99-4e53-a4e6-f2e22c07e233",
      "identifier": [ {
        "value": "59263"
      } ],
      "version": "2021-04-06T11:29:26.887Z",
      "status": "active",
      "experimental": false,
      "date": "2021-04-06T11:29:26+00:00",
      "publisher": "User ID: 'HADFIELDR' User name: 'Ryan Hadfield' User skill set: 'T3'",
      "lastReviewDate": "2021-04-06",
      "contact": [ {
        "telecom": [ {
          "system": "phone",
          "value": "07777 888888"
        } ]
      } ],
      "subjectType": [ "Patient" ],
      "item": [ {
        "linkId": "59263",
        "prefix": "200",
        "text": "STRING:to'Immediatethreatstolife(SPA/OOHversion)'-'Majorbloodloss'stem",
        "type": "choice",
        "required": true,
        "repeats": false,
        "option": [ {
          "valueString": "\"present\", Selected: true"
        } ]
      } ]
    }
  }, {
    "fullUrl": "urn:uuid:be7e73b1-3764-494e-bf6a-53a91258f5d3",
    "resource": {
      "resourceType": "QuestionnaireResponse",
      "id": "be7e73b1-3764-494e-bf6a-53a91258f5d3",
      "identifier": {
        "value": "59263"
      },
      "questionnaire": {
        "reference": "urn:uuid:3c74de4f-45db-44f2-bf67-ec031f691625"
      },
      "status": "completed",
      "subject": {
        "reference": "urn:uuid:a4ee319e-8679-4a98-af5b-76db86ae543a"
      },
      "context": {
        "reference": "urn:uuid:c0893574-0df5-4eb9-9176-c9623b5bad73"
      },
      "authored": "2021-04-06T11:29:26+00:00"
    }
  }, {
    "fullUrl": "urn:uuid:3c74de4f-45db-44f2-bf67-ec031f691625",
    "resource": {
      "resourceType": "Questionnaire",
      "id": "3c74de4f-45db-44f2-bf67-ec031f691625",
      "identifier": [ {
        "value": "59263"
      } ],
      "version": "2021-04-06T11:29:26.887Z",
      "status": "active",
      "experimental": false,
      "date": "2021-04-06T11:29:26+00:00",
      "publisher": "User ID: 'HADFIELDR' User name: 'Ryan Hadfield' User skill set: 'T3'",
      "lastReviewDate": "2021-04-06",
      "contact": [ {
        "telecom": [ {
          "system": "phone",
          "value": "07777 888888"
        } ]
      } ],
      "subjectType": [ "Patient" ]
    }
  }, {
    "fullUrl": "urn:uuid:2e84011b-1ea6-42d2-bdf7-4c91e96859d9",
    "resource": {
      "resourceType": "QuestionnaireResponse",
      "id": "2e84011b-1ea6-42d2-bdf7-4c91e96859d9",
      "identifier": {
        "value": "59263"
      },
      "questionnaire": {
        "reference": "urn:uuid:beddfef7-e9d7-41fb-8710-2a9de752f910"
      },
      "status": "completed",
      "subject": {
        "reference": "urn:uuid:a4ee319e-8679-4a98-af5b-76db86ae543a"
      },
      "context": {
        "reference": "urn:uuid:c0893574-0df5-4eb9-9176-c9623b5bad73"
      },
      "authored": "2021-04-06T11:29:26+00:00",
      "item": [ {
        "linkId": "Tx221799",
        "text": "STRING:injury,illnessorlabourestablishedinEntryFlow",
        "answer": [ {
          "valueString": "\"present\""
        } ]
      } ]
    }
  }, {
    "fullUrl": "urn:uuid:beddfef7-e9d7-41fb-8710-2a9de752f910",
    "resource": {
      "resourceType": "Questionnaire",
      "id": "beddfef7-e9d7-41fb-8710-2a9de752f910",
      "identifier": [ {
        "value": "59263"
      } ],
      "version": "2021-04-06T11:29:26.887Z",
      "status": "active",
      "experimental": false,
      "date": "2021-04-06T11:29:26+00:00",
      "publisher": "User ID: 'HADFIELDR' User name: 'Ryan Hadfield' User skill set: 'T3'",
      "lastReviewDate": "2021-04-06",
      "contact": [ {
        "telecom": [ {
          "system": "phone",
          "value": "07777 888888"
        } ]
      } ],
      "subjectType": [ "Patient" ],
      "item": [ {
        "linkId": "59263",
        "prefix": "0",
        "text": "STRING:injury,illnessorlabourestablishedinEntryFlow",
        "type": "choice",
        "required": true,
        "repeats": false,
        "option": [ {
          "valueString": "\"present\", Selected: true"
        } ]
      } ]
    }
  }, {
    "fullUrl": "urn:uuid:d7263574-d21f-4851-aac5-ea6ee7310782",
    "resource": {
      "resourceType": "QuestionnaireResponse",
      "id": "d7263574-d21f-4851-aac5-ea6ee7310782",
      "identifier": {
        "value": "59263"
      },
      "questionnaire": {
        "reference": "urn:uuid:439e9a41-8652-4c65-a736-fec5416b6532"
      },
      "status": "completed",
      "subject": {
        "reference": "urn:uuid:a4ee319e-8679-4a98-af5b-76db86ae543a"
      },
      "context": {
        "reference": "urn:uuid:c0893574-0df5-4eb9-9176-c9623b5bad73"
      },
      "authored": "2021-04-06T11:29:26+00:00",
      "item": [ {
        "linkId": "Tx224120",
        "text": "Have you been bleeding RED BLOOD very heavily IN THE LAST 2 HOURS?"
      } ]
    }
  }, {
    "fullUrl": "urn:uuid:439e9a41-8652-4c65-a736-fec5416b6532",
    "resource": {
      "resourceType": "Questionnaire",
      "id": "439e9a41-8652-4c65-a736-fec5416b6532",
      "identifier": [ {
        "value": "59263"
      } ],
      "version": "2021-04-06T11:29:26.887Z",
      "status": "active",
      "experimental": false,
      "date": "2021-04-06T11:29:26+00:00",
      "publisher": "User ID: 'HADFIELDR' User name: 'Ryan Hadfield' User skill set: 'T3'",
      "lastReviewDate": "2021-04-06",
      "contact": [ {
        "telecom": [ {
          "system": "phone",
          "value": "07777 888888"
        } ]
      } ],
      "subjectType": [ "Patient" ],
      "item": [ {
        "linkId": "59263",
        "prefix": "10100",
        "text": "Have you been bleeding RED BLOOD very heavily IN THE LAST 2 HOURS?",
        "type": "choice",
        "required": true,
        "repeats": false,
        "option": [ {
          "valueString": "yes, Selected: false"
        }, {
          "valueString": "not sure, Selected: false"
        }, {
          "valueString": "no, Selected: false"
        } ]
      } ]
    }
  }, {
    "fullUrl": "urn:uuid:56ed7bda-be77-4250-ac4b-d930dced9461",
    "resource": {
      "resourceType": "QuestionnaireResponse",
      "id": "56ed7bda-be77-4250-ac4b-d930dced9461",
      "identifier": {
        "value": "59263"
      },
      "questionnaire": {
        "reference": "urn:uuid:0b74baf3-8e0b-48fe-a140-364009a243c1"
      },
      "status": "completed",
      "subject": {
        "reference": "urn:uuid:a4ee319e-8679-4a98-af5b-76db86ae543a"
      },
      "context": {
        "reference": "urn:uuid:c0893574-0df5-4eb9-9176-c9623b5bad73"
      },
      "authored": "2021-04-06T11:29:26+00:00",
      "item": [ {
        "linkId": "Tx220074",
        "text": "What is the reason for the contact?",
        "answer": [ {
          "valueString": "more"
        } ]
      } ]
    }
  }, {
    "fullUrl": "urn:uuid:0b74baf3-8e0b-48fe-a140-364009a243c1",
    "resource": {
      "resourceType": "Questionnaire",
      "id": "0b74baf3-8e0b-48fe-a140-364009a243c1",
      "identifier": [ {
        "value": "59263"
      } ],
      "version": "2021-04-06T11:29:26.887Z",
      "status": "active",
      "experimental": false,
      "date": "2021-04-06T11:29:26+00:00",
      "publisher": "User ID: 'HADFIELDR' User name: 'Ryan Hadfield' User skill set: 'T3'",
      "lastReviewDate": "2021-04-06",
      "contact": [ {
        "telecom": [ {
          "system": "phone",
          "value": "07777 888888"
        } ]
      } ],
      "subjectType": [ "Patient" ],
      "item": [ {
        "linkId": "59263",
        "prefix": "5",
        "text": "What is the reason for the contact?",
        "type": "choice",
        "required": true,
        "repeats": false,
        "option": [ {
          "valueString": "an injury or other health problem, Selected: false"
        }, {
          "valueString": "labour or childbirth, Selected: false"
        }, {
          "valueString": "a need to access another healthcare service, Selected: false"
        }, {
          "valueString": "a healthcare professional requesting contact with another clinician, Selected: false"
        }, {
          "valueString": "a report of results or tests, Selected: false"
        }, {
          "valueString": "a possible failure of contraception, Selected: false"
        }, {
          "valueString": "more, Selected: true"
        } ]
      } ]
    }
  }, {
    "fullUrl": "urn:uuid:79f3766d-4862-4091-ade2-c64ead8798cb",
    "resource": {
      "resourceType": "QuestionnaireResponse",
      "id": "79f3766d-4862-4091-ade2-c64ead8798cb",
      "identifier": {
        "value": "59263"
      },
      "questionnaire": {
        "reference": "urn:uuid:544dcdf2-e132-48ea-8030-a812e318e83b"
      },
      "status": "completed",
      "subject": {
        "reference": "urn:uuid:a4ee319e-8679-4a98-af5b-76db86ae543a"
      },
      "context": {
        "reference": "urn:uuid:c0893574-0df5-4eb9-9176-c9623b5bad73"
      },
      "authored": "2021-04-06T11:29:26+00:00",
      "item": [ {
        "linkId": "Tx221793",
        "text": "STRING:to'Social&information'-further'Callreason'menu",
        "answer": [ {
          "valueString": "\"present\""
        } ]
      } ]
    }
  }, {
    "fullUrl": "urn:uuid:544dcdf2-e132-48ea-8030-a812e318e83b",
    "resource": {
      "resourceType": "Questionnaire",
      "id": "544dcdf2-e132-48ea-8030-a812e318e83b",
      "identifier": [ {
        "value": "59263"
      } ],
      "version": "2021-04-06T11:29:26.887Z",
      "status": "active",
      "experimental": false,
      "date": "2021-04-06T11:29:26+00:00",
      "publisher": "User ID: 'HADFIELDR' User name: 'Ryan Hadfield' User skill set: 'T3'",
      "lastReviewDate": "2021-04-06",
      "contact": [ {
        "telecom": [ {
          "system": "phone",
          "value": "07777 888888"
        } ]
      } ],
      "subjectType": [ "Patient" ],
      "item": [ {
        "linkId": "59263",
        "prefix": "600",
        "text": "STRING:to'Social&information'-further'Callreason'menu",
        "type": "choice",
        "required": true,
        "repeats": false,
        "option": [ {
          "valueString": "\"present\", Selected: true"
        } ]
      } ]
    }
  }, {
    "fullUrl": "urn:uuid:066c1807-26e3-4ad8-a000-0237b063b883",
    "resource": {
      "resourceType": "QuestionnaireResponse",
      "id": "066c1807-26e3-4ad8-a000-0237b063b883",
      "identifier": {
        "value": "59263"
      },
      "questionnaire": {
        "reference": "urn:uuid:c91dd3e0-cc88-414b-ab26-eac0564f9142"
      },
      "status": "completed",
      "subject": {
        "reference": "urn:uuid:a4ee319e-8679-4a98-af5b-76db86ae543a"
      },
      "context": {
        "reference": "urn:uuid:c0893574-0df5-4eb9-9176-c9623b5bad73"
      },
      "authored": "2021-04-06T11:29:26+00:00"
    }
  }, {
    "fullUrl": "urn:uuid:c91dd3e0-cc88-414b-ab26-eac0564f9142",
    "resource": {
      "resourceType": "Questionnaire",
      "id": "c91dd3e0-cc88-414b-ab26-eac0564f9142",
      "identifier": [ {
        "value": "59263"
      } ],
      "version": "2021-04-06T11:29:26.887Z",
      "status": "active",
      "experimental": false,
      "date": "2021-04-06T11:29:26+00:00",
      "publisher": "User ID: 'HADFIELDR' User name: 'Ryan Hadfield' User skill set: 'T3'",
      "lastReviewDate": "2021-04-06",
      "contact": [ {
        "telecom": [ {
          "system": "phone",
          "value": "07777 888888"
        } ]
      } ],
      "subjectType": [ "Patient" ]
    }
  }, {
    "fullUrl": "urn:uuid:c405d46c-8183-4267-a82b-4253ef5db070",
    "resource": {
      "resourceType": "QuestionnaireResponse",
      "id": "c405d46c-8183-4267-a82b-4253ef5db070",
      "identifier": {
        "value": "59263"
      },
      "questionnaire": {
        "reference": "urn:uuid:040b3120-81ae-4b2f-9712-c918ae3d1452"
      },
      "status": "completed",
      "subject": {
        "reference": "urn:uuid:a4ee319e-8679-4a98-af5b-76db86ae543a"
      },
      "context": {
        "reference": "urn:uuid:c0893574-0df5-4eb9-9176-c9623b5bad73"
      },
      "authored": "2021-04-06T11:29:26+00:00",
      "item": [ {
        "linkId": "Tx221804",
        "text": "STRING:transfertofurthermenuquestionestablishedinEntryFlow",
        "answer": [ {
          "valueString": "\"present\""
        } ]
      } ]
    }
  }, {
    "fullUrl": "urn:uuid:040b3120-81ae-4b2f-9712-c918ae3d1452",
    "resource": {
      "resourceType": "Questionnaire",
      "id": "040b3120-81ae-4b2f-9712-c918ae3d1452",
      "identifier": [ {
        "value": "59263"
      } ],
      "version": "2021-04-06T11:29:26.887Z",
      "status": "active",
      "experimental": false,
      "date": "2021-04-06T11:29:26+00:00",
      "publisher": "User ID: 'HADFIELDR' User name: 'Ryan Hadfield' User skill set: 'T3'",
      "lastReviewDate": "2021-04-06",
      "contact": [ {
        "telecom": [ {
          "system": "phone",
          "value": "07777 888888"
        } ]
      } ],
      "subjectType": [ "Patient" ],
      "item": [ {
        "linkId": "59263",
        "prefix": "41",
        "text": "STRING:transfertofurthermenuquestionestablishedinEntryFlow",
        "type": "choice",
        "required": true,
        "repeats": false,
        "option": [ {
          "valueString": "\"present\", Selected: true"
        } ]
      } ]
    }
  }, {
    "fullUrl": "urn:uuid:beff662a-689c-44c0-99c2-a61935dbc8ae",
    "resource": {
      "resourceType": "QuestionnaireResponse",
      "id": "beff662a-689c-44c0-99c2-a61935dbc8ae",
      "identifier": {
        "value": "59263"
      },
      "questionnaire": {
        "reference": "urn:uuid:4955cbdf-d056-4773-a5ab-ac8c19b21ab5"
      },
      "status": "completed",
      "subject": {
        "reference": "urn:uuid:a4ee319e-8679-4a98-af5b-76db86ae543a"
      },
      "context": {
        "reference": "urn:uuid:c0893574-0df5-4eb9-9176-c9623b5bad73"
      },
      "authored": "2021-04-06T11:29:26+00:00",
      "item": [ {
        "linkId": "Tx224998",
        "text": "SYSTEM_COVIDLEVEL2",
        "answer": [ {
          "valueString": "==\"covidlevel2\""
        } ]
      } ]
    }
  }, {
    "fullUrl": "urn:uuid:4955cbdf-d056-4773-a5ab-ac8c19b21ab5",
    "resource": {
      "resourceType": "Questionnaire",
      "id": "4955cbdf-d056-4773-a5ab-ac8c19b21ab5",
      "identifier": [ {
        "value": "59263"
      } ],
      "version": "2021-04-06T11:29:26.887Z",
      "status": "active",
      "experimental": false,
      "date": "2021-04-06T11:29:26+00:00",
      "publisher": "User ID: 'HADFIELDR' User name: 'Ryan Hadfield' User skill set: 'T3'",
      "lastReviewDate": "2021-04-06",
      "contact": [ {
        "telecom": [ {
          "system": "phone",
          "value": "07777 888888"
        } ]
      } ],
      "subjectType": [ "Patient" ],
      "item": [ {
        "linkId": "59263",
        "prefix": "5900",
        "text": "SYSTEM_COVIDLEVEL2",
        "type": "choice",
        "required": true,
        "repeats": false,
        "option": [ {
          "valueString": "==\"covidlevel2\", Selected: true"
        }, {
          "valueString": "*, Selected: false"
        } ]
      } ]
    }
  }, {
    "fullUrl": "urn:uuid:e7e1c2e9-abbc-4972-ab48-727c863b1fcd",
    "resource": {
      "resourceType": "QuestionnaireResponse",
      "id": "e7e1c2e9-abbc-4972-ab48-727c863b1fcd",
      "identifier": {
        "value": "59263"
      },
      "questionnaire": {
        "reference": "urn:uuid:3d1d66d0-28eb-49f1-b830-7914d3a49af6"
      },
      "status": "completed",
      "subject": {
        "reference": "urn:uuid:a4ee319e-8679-4a98-af5b-76db86ae543a"
      },
      "context": {
        "reference": "urn:uuid:c0893574-0df5-4eb9-9176-c9623b5bad73"
      },
      "authored": "2021-04-06T11:29:26+00:00",
      "item": [ {
        "linkId": "Tx225069",
        "text": "What is the reason for the contact?",
        "answer": [ {
          "valueString": "a prescription request"
        } ]
      } ]
    }
  }, {
    "fullUrl": "urn:uuid:3d1d66d0-28eb-49f1-b830-7914d3a49af6",
    "resource": {
      "resourceType": "Questionnaire",
      "id": "3d1d66d0-28eb-49f1-b830-7914d3a49af6",
      "identifier": [ {
        "value": "59263"
      } ],
      "version": "2021-04-06T11:29:26.887Z",
      "status": "active",
      "experimental": false,
      "date": "2021-04-06T11:29:26+00:00",
      "publisher": "User ID: 'HADFIELDR' User name: 'Ryan Hadfield' User skill set: 'T3'",
      "lastReviewDate": "2021-04-06",
      "contact": [ {
        "telecom": [ {
          "system": "phone",
          "value": "07777 888888"
        } ]
      } ],
      "subjectType": [ "Patient" ],
      "item": [ {
        "linkId": "59263",
        "prefix": "6000",
        "text": "What is the reason for the contact?",
        "type": "choice",
        "required": true,
        "repeats": false,
        "option": [ {
          "valueString": "a child protection/vulnerable adult concern (specify), Selected: false"
        }, {
          "valueString": "a social or domestic emergency, Selected: false"
        }, {
          "valueString": "a prescription request, Selected: true"
        }, {
          "valueString": "an appointment request, Selected: false"
        }, {
          "valueString": "a request for health or medication information, Selected: false"
        }, {
          "valueString": "public health alert information, Selected: false"
        } ]
      } ]
    }
  }, {
    "fullUrl": "urn:uuid:9ed0b9f4-82f8-4e36-b7dd-4a242c4ddddd",
    "resource": {
      "resourceType": "QuestionnaireResponse",
      "id": "9ed0b9f4-82f8-4e36-b7dd-4a242c4ddddd",
      "identifier": {
        "value": "59263"
      },
      "questionnaire": {
        "reference": "urn:uuid:665935e3-61ae-4eed-a4f9-71be771eaf15"
      },
      "status": "completed",
      "subject": {
        "reference": "urn:uuid:a4ee319e-8679-4a98-af5b-76db86ae543a"
      },
      "context": {
        "reference": "urn:uuid:c0893574-0df5-4eb9-9176-c9623b5bad73"
      },
      "authored": "2021-04-06T11:29:26+00:00",
      "item": [ {
        "linkId": "Tx220957",
        "text": "Is this contact about a new or worsening illness?",
        "answer": [ {
          "valueString": "no"
        } ]
      } ]
    }
  }, {
    "fullUrl": "urn:uuid:665935e3-61ae-4eed-a4f9-71be771eaf15",
    "resource": {
      "resourceType": "Questionnaire",
      "id": "665935e3-61ae-4eed-a4f9-71be771eaf15",
      "identifier": [ {
        "value": "59263"
      } ],
      "version": "2021-04-06T11:29:26.887Z",
      "status": "active",
      "experimental": false,
      "date": "2021-04-06T11:29:26+00:00",
      "publisher": "User ID: 'HADFIELDR' User name: 'Ryan Hadfield' User skill set: 'T3'",
      "lastReviewDate": "2021-04-06",
      "contact": [ {
        "telecom": [ {
          "system": "phone",
          "value": "07777 888888"
        } ]
      } ],
      "subjectType": [ "Patient" ],
      "item": [ {
        "linkId": "59263",
        "prefix": "1400",
        "text": "Is this contact about a new or worsening illness?",
        "type": "choice",
        "required": true,
        "repeats": false,
        "option": [ {
          "valueString": "yes, Selected: false"
        }, {
          "valueString": "not sure, Selected: false"
        }, {
          "valueString": "no, Selected: true"
        } ]
      } ]
    }
  }, {
    "fullUrl": "urn:uuid:52e97612-021f-4124-96ee-10389351cee1",
    "resource": {
      "resourceType": "QuestionnaireResponse",
      "id": "52e97612-021f-4124-96ee-10389351cee1",
      "identifier": {
        "value": "59263"
      },
      "questionnaire": {
        "reference": "urn:uuid:77e6cffe-feab-4a17-aa7d-26710844821d"
      },
      "status": "completed",
      "subject": {
        "reference": "urn:uuid:a4ee319e-8679-4a98-af5b-76db86ae543a"
      },
      "context": {
        "reference": "urn:uuid:c0893574-0df5-4eb9-9176-c9623b5bad73"
      },
      "authored": "2021-04-06T11:29:26+00:00",
      "item": [ {
        "linkId": "Tx221352",
        "text": "Have you got enough medication to last until the surgery opens?",
        "answer": [ {
          "valueString": "no"
        } ]
      } ]
    }
  }, {
    "fullUrl": "urn:uuid:77e6cffe-feab-4a17-aa7d-26710844821d",
    "resource": {
      "resourceType": "Questionnaire",
      "id": "77e6cffe-feab-4a17-aa7d-26710844821d",
      "identifier": [ {
        "value": "59263"
      } ],
      "version": "2021-04-06T11:29:26.887Z",
      "status": "active",
      "experimental": false,
      "date": "2021-04-06T11:29:26+00:00",
      "publisher": "User ID: 'HADFIELDR' User name: 'Ryan Hadfield' User skill set: 'T3'",
      "lastReviewDate": "2021-04-06",
      "contact": [ {
        "telecom": [ {
          "system": "phone",
          "value": "07777 888888"
        } ]
      } ],
      "subjectType": [ "Patient" ],
      "item": [ {
        "linkId": "59263",
        "prefix": "1500",
        "text": "Have you got enough medication to last until the surgery opens?",
        "type": "choice",
        "required": true,
        "repeats": false,
        "option": [ {
          "valueString": "yes, Selected: false"
        }, {
          "valueString": "not sure, Selected: false"
        }, {
          "valueString": "no, Selected: true"
        } ]
      } ]
    }
  }, {
    "fullUrl": "urn:uuid:9e90b8d2-f41d-4d3d-a0ba-44c6bc18560d",
    "resource": {
      "resourceType": "QuestionnaireResponse",
      "id": "9e90b8d2-f41d-4d3d-a0ba-44c6bc18560d",
      "identifier": {
        "value": "59263"
      },
      "questionnaire": {
        "reference": "urn:uuid:ca8e10aa-2bda-4ee3-97eb-acd6ab37acb6"
      },
      "status": "completed",
      "subject": {
        "reference": "urn:uuid:a4ee319e-8679-4a98-af5b-76db86ae543a"
      },
      "context": {
        "reference": "urn:uuid:c0893574-0df5-4eb9-9176-c9623b5bad73"
      },
      "authored": "2021-04-06T11:29:26+00:00"
    }
  }, {
    "fullUrl": "urn:uuid:ca8e10aa-2bda-4ee3-97eb-acd6ab37acb6",
    "resource": {
      "resourceType": "Questionnaire",
      "id": "ca8e10aa-2bda-4ee3-97eb-acd6ab37acb6",
      "identifier": [ {
        "value": "59263"
      } ],
      "version": "2021-04-06T11:29:26.887Z",
      "status": "active",
      "experimental": false,
      "date": "2021-04-06T11:29:26+00:00",
      "publisher": "User ID: 'HADFIELDR' User name: 'Ryan Hadfield' User skill set: 'T3'",
      "lastReviewDate": "2021-04-06",
      "contact": [ {
        "telecom": [ {
          "system": "phone",
          "value": "07777 888888"
        } ]
      } ],
      "subjectType": [ "Patient" ]
    }
  }, {
    "fullUrl": "urn:uuid:88b891b8-de7f-4404-a055-39c49bc22d9b",
    "resource": {
      "resourceType": "QuestionnaireResponse",
      "id": "88b891b8-de7f-4404-a055-39c49bc22d9b",
      "identifier": {
        "value": "59263"
      },
      "questionnaire": {
        "reference": "urn:uuid:fe5f9c29-d62f-4caf-b57a-5404b1e57190"
      },
      "status": "completed",
      "subject": {
        "reference": "urn:uuid:a4ee319e-8679-4a98-af5b-76db86ae543a"
      },
      "context": {
        "reference": "urn:uuid:c0893574-0df5-4eb9-9176-c9623b5bad73"
      },
      "authored": "2021-04-06T11:29:26+00:00",
      "item": [ {
        "linkId": "Tx224231",
        "text": "FROM WHAT YOU HAVE HEARD IS A CONSULTATION WITH A PRESCRIBER NEEDED?",
        "answer": [ {
          "valueString": "yes"
        } ]
      } ]
    }
  }, {
    "fullUrl": "urn:uuid:fe5f9c29-d62f-4caf-b57a-5404b1e57190",
    "resource": {
      "resourceType": "Questionnaire",
      "id": "fe5f9c29-d62f-4caf-b57a-5404b1e57190",
      "identifier": [ {
        "value": "59263"
      } ],
      "version": "2021-04-06T11:29:26.887Z",
      "status": "active",
      "experimental": false,
      "date": "2021-04-06T11:29:26+00:00",
      "publisher": "User ID: 'HADFIELDR' User name: 'Ryan Hadfield' User skill set: 'T3'",
      "lastReviewDate": "2021-04-06",
      "contact": [ {
        "telecom": [ {
          "system": "phone",
          "value": "07777 888888"
        } ]
      } ],
      "subjectType": [ "Patient" ],
      "item": [ {
        "linkId": "59263",
        "prefix": "0",
        "text": "FROM WHAT YOU HAVE HEARD IS A CONSULTATION WITH A PRESCRIBER NEEDED?",
        "type": "choice",
        "required": true,
        "repeats": false,
        "option": [ {
          "valueString": "yes, Selected: true"
        }, {
          "valueString": "not sure, Selected: false"
        }, {
          "valueString": "no, Selected: false"
        } ]
      } ]
    }
  }, {
    "fullUrl": "urn:uuid:2ee24a86-a340-46e9-94ea-9e02839fdf8b",
    "resource": {
      "resourceType": "QuestionnaireResponse",
      "id": "2ee24a86-a340-46e9-94ea-9e02839fdf8b",
      "identifier": {
        "value": "59263"
      },
      "questionnaire": {
        "reference": "urn:uuid:a674a918-44d0-4d83-b487-d10e23c0548b"
      },
      "status": "completed",
      "subject": {
        "reference": "urn:uuid:a4ee319e-8679-4a98-af5b-76db86ae543a"
      },
      "context": {
        "reference": "urn:uuid:c0893574-0df5-4eb9-9176-c9623b5bad73"
      },
      "authored": "2021-04-06T11:29:26+00:00",
      "item": [ {
        "linkId": "Tx221367",
        "text": "When is the next dose due?",
        "answer": [ {
          "valueString": "within the next 12 hours"
        } ]
      } ]
    }
  }, {
    "fullUrl": "urn:uuid:a674a918-44d0-4d83-b487-d10e23c0548b",
    "resource": {
      "resourceType": "Questionnaire",
      "id": "a674a918-44d0-4d83-b487-d10e23c0548b",
      "identifier": [ {
        "value": "59263"
      } ],
      "version": "2021-04-06T11:29:26.887Z",
      "status": "active",
      "experimental": false,
      "date": "2021-04-06T11:29:26+00:00",
      "publisher": "User ID: 'HADFIELDR' User name: 'Ryan Hadfield' User skill set: 'T3'",
      "lastReviewDate": "2021-04-06",
      "contact": [ {
        "telecom": [ {
          "system": "phone",
          "value": "07777 888888"
        } ]
      } ],
      "subjectType": [ "Patient" ],
      "item": [ {
        "linkId": "59263",
        "prefix": "2900",
        "text": "When is the next dose due?",
        "type": "choice",
        "required": true,
        "repeats": false,
        "option": [ {
          "valueString": "within the next 2 hours, Selected: false"
        }, {
          "valueString": "within the next 6 hours, Selected: false"
        }, {
          "valueString": "within the next 12 hours, Selected: true"
        }, {
          "valueString": "over 12 hours time, Selected: false"
        }, {
          "valueString": "not sure, Selected: false"
        } ]
      } ]
    }
  }, {
    "fullUrl": "urn:uuid:746e30a4-4772-4e84-b4e9-24137ac0dcf6",
    "resource": {
      "resourceType": "QuestionnaireResponse",
      "id": "746e30a4-4772-4e84-b4e9-24137ac0dcf6",
      "identifier": {
        "value": "59263"
      },
      "questionnaire": {
        "reference": "urn:uuid:451d6c26-cf53-4e02-942a-b9ff39f9308e"
      },
      "status": "completed",
      "subject": {
        "reference": "urn:uuid:a4ee319e-8679-4a98-af5b-76db86ae543a"
      },
      "context": {
        "reference": "urn:uuid:c0893574-0df5-4eb9-9176-c9623b5bad73"
      },
      "authored": "2021-04-06T11:29:26+00:00",
      "item": [ {
        "linkId": "Tx221449",
        "text": "STRING:SDPCFullPrimaryCareassessmentandprescribingcapability",
        "answer": [ {
          "valueString": "\"PC full Primary Care assessment and prescribing capability\""
        } ]
      } ]
    }
  }, {
    "fullUrl": "urn:uuid:451d6c26-cf53-4e02-942a-b9ff39f9308e",
    "resource": {
      "resourceType": "Questionnaire",
      "id": "451d6c26-cf53-4e02-942a-b9ff39f9308e",
      "identifier": [ {
        "value": "59263"
      } ],
      "version": "2021-04-06T11:29:26.887Z",
      "status": "active",
      "experimental": false,
      "date": "2021-04-06T11:29:26+00:00",
      "publisher": "User ID: 'HADFIELDR' User name: 'Ryan Hadfield' User skill set: 'T3'",
      "lastReviewDate": "2021-04-06",
      "contact": [ {
        "telecom": [ {
          "system": "phone",
          "value": "07777 888888"
        } ]
      } ],
      "subjectType": [ "Patient" ],
      "item": [ {
        "linkId": "59263",
        "prefix": "3000",
        "text": "STRING:SDPCFullPrimaryCareassessmentandprescribingcapability",
        "type": "choice",
        "required": true,
        "repeats": false,
        "option": [ {
          "valueString": "\"PC full Primary Care assessment and prescribing capability\", Selected: true"
        } ]
      } ]
    }
  }, {
    "fullUrl": "urn:uuid:503982b6-1eab-460d-b6bc-d55ecb9cc123",
    "resource": {
      "resourceType": "QuestionnaireResponse",
      "id": "503982b6-1eab-460d-b6bc-d55ecb9cc123",
      "identifier": {
        "value": "59263"
      },
      "questionnaire": {
        "reference": "urn:uuid:31e89919-fd11-46cf-9374-6f9e923b690f"
      },
      "status": "completed",
      "subject": {
        "reference": "urn:uuid:a4ee319e-8679-4a98-af5b-76db86ae543a"
      },
      "context": {
        "reference": "urn:uuid:c0893574-0df5-4eb9-9176-c9623b5bad73"
      },
      "authored": "2021-04-06T11:29:26+00:00"
    }
  }, {
    "fullUrl": "urn:uuid:31e89919-fd11-46cf-9374-6f9e923b690f",
    "resource": {
      "resourceType": "Questionnaire",
      "id": "31e89919-fd11-46cf-9374-6f9e923b690f",
      "identifier": [ {
        "value": "59263"
      } ],
      "version": "2021-04-06T11:29:26.887Z",
      "status": "active",
      "experimental": false,
      "date": "2021-04-06T11:29:26+00:00",
      "publisher": "User ID: 'HADFIELDR' User name: 'Ryan Hadfield' User skill set: 'T3'",
      "lastReviewDate": "2021-04-06",
      "contact": [ {
        "telecom": [ {
          "system": "phone",
          "value": "07777 888888"
        } ]
      } ],
      "subjectType": [ "Patient" ]
    }
  }, {
    "fullUrl": "urn:uuid:a84e88cb-898d-4354-aaa8-865ed1b8de0a",
    "resource": {
      "resourceType": "QuestionnaireResponse",
      "id": "a84e88cb-898d-4354-aaa8-865ed1b8de0a",
      "identifier": {
        "value": "59263"
      },
      "questionnaire": {
        "reference": "urn:uuid:6d51e05e-47bd-4578-b471-fbeb179132ab"
      },
      "status": "completed",
      "subject": {
        "reference": "urn:uuid:a4ee319e-8679-4a98-af5b-76db86ae543a"
      },
      "context": {
        "reference": "urn:uuid:c0893574-0df5-4eb9-9176-c9623b5bad73"
      },
      "authored": "2021-04-06T11:29:26+00:00",
      "item": [ {
        "linkId": "Tx220074",
        "text": "What is the reason for the contact?",
        "answer": [ {
          "valueString": "an injury or other health problem"
        } ]
      } ]
    }
  }, {
    "fullUrl": "urn:uuid:6d51e05e-47bd-4578-b471-fbeb179132ab",
    "resource": {
      "resourceType": "Questionnaire",
      "id": "6d51e05e-47bd-4578-b471-fbeb179132ab",
      "identifier": [ {
        "value": "59263"
      } ],
      "version": "2021-04-06T11:29:26.887Z",
      "status": "active",
      "experimental": false,
      "date": "2021-04-06T11:29:26+00:00",
      "publisher": "User ID: 'HADFIELDR' User name: 'Ryan Hadfield' User skill set: 'T3'",
      "lastReviewDate": "2021-04-06",
      "contact": [ {
        "telecom": [ {
          "system": "phone",
          "value": "07777 888888"
        } ]
      } ],
      "subjectType": [ "Patient" ],
      "item": [ {
        "linkId": "59263",
        "prefix": "5",
        "text": "What is the reason for the contact?",
        "type": "choice",
        "required": true,
        "repeats": false,
        "option": [ {
          "valueString": "an injury or other health problem, Selected: true"
        }, {
          "valueString": "labour or childbirth, Selected: false"
        }, {
          "valueString": "a need to access another healthcare service, Selected: false"
        }, {
          "valueString": "a healthcare professional requesting contact with another clinician, Selected: false"
        }, {
          "valueString": "a report of results or tests, Selected: false"
        }, {
          "valueString": "a possible failure of contraception, Selected: false"
        }, {
          "valueString": "more, Selected: false"
        } ]
      } ]
    }
  }, {
    "fullUrl": "urn:uuid:e916b316-6c5f-48ad-ad3e-f740417ae3e0",
    "resource": {
      "resourceType": "QuestionnaireResponse",
      "id": "e916b316-6c5f-48ad-ad3e-f740417ae3e0",
      "identifier": {
        "value": "59263"
      },
      "questionnaire": {
        "reference": "urn:uuid:6e89bac0-7948-4d59-a836-3cb99dcdbefc"
      },
      "status": "completed",
      "subject": {
        "reference": "urn:uuid:a4ee319e-8679-4a98-af5b-76db86ae543a"
      },
      "context": {
        "reference": "urn:uuid:c0893574-0df5-4eb9-9176-c9623b5bad73"
      },
      "authored": "2021-04-06T11:29:26+00:00",
      "item": [ {
        "linkId": "Tx221807",
        "text": "STRING:to'Immediatethreatstolife(SPA/OOHversion)'-'Majorbloodloss'stem",
        "answer": [ {
          "valueString": "\"present\""
        } ]
      } ]
    }
  }, {
    "fullUrl": "urn:uuid:6e89bac0-7948-4d59-a836-3cb99dcdbefc",
    "resource": {
      "resourceType": "Questionnaire",
      "id": "6e89bac0-7948-4d59-a836-3cb99dcdbefc",
      "identifier": [ {
        "value": "59263"
      } ],
      "version": "2021-04-06T11:29:26.887Z",
      "status": "active",
      "experimental": false,
      "date": "2021-04-06T11:29:26+00:00",
      "publisher": "User ID: 'HADFIELDR' User name: 'Ryan Hadfield' User skill set: 'T3'",
      "lastReviewDate": "2021-04-06",
      "contact": [ {
        "telecom": [ {
          "system": "phone",
          "value": "07777 888888"
        } ]
      } ],
      "subjectType": [ "Patient" ],
      "item": [ {
        "linkId": "59263",
        "prefix": "200",
        "text": "STRING:to'Immediatethreatstolife(SPA/OOHversion)'-'Majorbloodloss'stem",
        "type": "choice",
        "required": true,
        "repeats": false,
        "option": [ {
          "valueString": "\"present\", Selected: true"
        } ]
      } ]
    }
  }, {
    "fullUrl": "urn:uuid:b2089415-45fa-41ac-aa8f-b0fb85bb2ed9",
    "resource": {
      "resourceType": "QuestionnaireResponse",
      "id": "b2089415-45fa-41ac-aa8f-b0fb85bb2ed9",
      "identifier": {
        "value": "59263"
      },
      "questionnaire": {
        "reference": "urn:uuid:ac54dd5e-dc12-4d28-99a8-9a8e73a84c5b"
      },
      "status": "completed",
      "subject": {
        "reference": "urn:uuid:a4ee319e-8679-4a98-af5b-76db86ae543a"
      },
      "context": {
        "reference": "urn:uuid:c0893574-0df5-4eb9-9176-c9623b5bad73"
      },
      "authored": "2021-04-06T11:29:26+00:00"
    }
  }, {
    "fullUrl": "urn:uuid:ac54dd5e-dc12-4d28-99a8-9a8e73a84c5b",
    "resource": {
      "resourceType": "Questionnaire",
      "id": "ac54dd5e-dc12-4d28-99a8-9a8e73a84c5b",
      "identifier": [ {
        "value": "59263"
      } ],
      "version": "2021-04-06T11:29:26.887Z",
      "status": "active",
      "experimental": false,
      "date": "2021-04-06T11:29:26+00:00",
      "publisher": "User ID: 'HADFIELDR' User name: 'Ryan Hadfield' User skill set: 'T3'",
      "lastReviewDate": "2021-04-06",
      "contact": [ {
        "telecom": [ {
          "system": "phone",
          "value": "07777 888888"
        } ]
      } ],
      "subjectType": [ "Patient" ]
    }
  }, {
    "fullUrl": "urn:uuid:c381348e-f5e5-466b-8701-e822899b75bc",
    "resource": {
      "resourceType": "QuestionnaireResponse",
      "id": "c381348e-f5e5-466b-8701-e822899b75bc",
      "identifier": {
        "value": "59263"
      },
      "questionnaire": {
        "reference": "urn:uuid:c6058612-6d22-4635-8e58-d8615cad2aeb"
      },
      "status": "completed",
      "subject": {
        "reference": "urn:uuid:a4ee319e-8679-4a98-af5b-76db86ae543a"
      },
      "context": {
        "reference": "urn:uuid:c0893574-0df5-4eb9-9176-c9623b5bad73"
      },
      "authored": "2021-04-06T11:29:26+00:00",
      "item": [ {
        "linkId": "Tx221799",
        "text": "STRING:injury,illnessorlabourestablishedinEntryFlow",
        "answer": [ {
          "valueString": "\"present\""
        } ]
      } ]
    }
  }, {
    "fullUrl": "urn:uuid:c6058612-6d22-4635-8e58-d8615cad2aeb",
    "resource": {
      "resourceType": "Questionnaire",
      "id": "c6058612-6d22-4635-8e58-d8615cad2aeb",
      "identifier": [ {
        "value": "59263"
      } ],
      "version": "2021-04-06T11:29:26.887Z",
      "status": "active",
      "experimental": false,
      "date": "2021-04-06T11:29:26+00:00",
      "publisher": "User ID: 'HADFIELDR' User name: 'Ryan Hadfield' User skill set: 'T3'",
      "lastReviewDate": "2021-04-06",
      "contact": [ {
        "telecom": [ {
          "system": "phone",
          "value": "07777 888888"
        } ]
      } ],
      "subjectType": [ "Patient" ],
      "item": [ {
        "linkId": "59263",
        "prefix": "0",
        "text": "STRING:injury,illnessorlabourestablishedinEntryFlow",
        "type": "choice",
        "required": true,
        "repeats": false,
        "option": [ {
          "valueString": "\"present\", Selected: true"
        } ]
      } ]
    }
  }, {
    "fullUrl": "urn:uuid:ba3f033e-2ecf-4f3b-af98-c1f6349aa834",
    "resource": {
      "resourceType": "QuestionnaireResponse",
      "id": "ba3f033e-2ecf-4f3b-af98-c1f6349aa834",
      "identifier": {
        "value": "59263"
      },
      "questionnaire": {
        "reference": "urn:uuid:36bb6b37-55dd-4b8b-921b-4d93ac421740"
      },
      "status": "completed",
      "subject": {
        "reference": "urn:uuid:a4ee319e-8679-4a98-af5b-76db86ae543a"
      },
      "context": {
        "reference": "urn:uuid:c0893574-0df5-4eb9-9176-c9623b5bad73"
      },
      "authored": "2021-04-06T11:29:26+00:00",
      "item": [ {
        "linkId": "Tx224120",
        "text": "Have you been bleeding RED BLOOD very heavily IN THE LAST 2 HOURS?",
        "answer": [ {
          "valueString": "no"
        } ]
      } ]
    }
  }, {
    "fullUrl": "urn:uuid:36bb6b37-55dd-4b8b-921b-4d93ac421740",
    "resource": {
      "resourceType": "Questionnaire",
      "id": "36bb6b37-55dd-4b8b-921b-4d93ac421740",
      "identifier": [ {
        "value": "59263"
      } ],
      "version": "2021-04-06T11:29:26.887Z",
      "status": "active",
      "experimental": false,
      "date": "2021-04-06T11:29:26+00:00",
      "publisher": "User ID: 'HADFIELDR' User name: 'Ryan Hadfield' User skill set: 'T3'",
      "lastReviewDate": "2021-04-06",
      "contact": [ {
        "telecom": [ {
          "system": "phone",
          "value": "07777 888888"
        } ]
      } ],
      "subjectType": [ "Patient" ],
      "item": [ {
        "linkId": "59263",
        "prefix": "10100",
        "text": "Have you been bleeding RED BLOOD very heavily IN THE LAST 2 HOURS?",
        "type": "choice",
        "required": true,
        "repeats": false,
        "option": [ {
          "valueString": "yes, Selected: false"
        }, {
          "valueString": "not sure, Selected: false"
        }, {
          "valueString": "no, Selected: true"
        } ]
      } ]
    }
  }, {
    "fullUrl": "urn:uuid:87591fc1-cb76-4f51-8301-5124b2743c65",
    "resource": {
      "resourceType": "QuestionnaireResponse",
      "id": "87591fc1-cb76-4f51-8301-5124b2743c65",
      "identifier": {
        "value": "59263"
      },
      "questionnaire": {
        "reference": "urn:uuid:010d6db0-f650-4501-b0ed-4fc33fbd28af"
      },
      "status": "completed",
      "subject": {
        "reference": "urn:uuid:a4ee319e-8679-4a98-af5b-76db86ae543a"
      },
      "context": {
        "reference": "urn:uuid:c0893574-0df5-4eb9-9176-c9623b5bad73"
      },
      "authored": "2021-04-06T11:29:26+00:00",
      "item": [ {
        "linkId": "Tx221343",
        "text": "SocialConcernsExcluded",
        "answer": [ {
          "valueString": "*"
        } ]
      } ]
    }
  }, {
    "fullUrl": "urn:uuid:010d6db0-f650-4501-b0ed-4fc33fbd28af",
    "resource": {
      "resourceType": "Questionnaire",
      "id": "010d6db0-f650-4501-b0ed-4fc33fbd28af",
      "identifier": [ {
        "value": "59263"
      } ],
      "version": "2021-04-06T11:29:26.887Z",
      "status": "active",
      "experimental": false,
      "date": "2021-04-06T11:29:26+00:00",
      "publisher": "User ID: 'HADFIELDR' User name: 'Ryan Hadfield' User skill set: 'T3'",
      "lastReviewDate": "2021-04-06",
      "contact": [ {
        "telecom": [ {
          "system": "phone",
          "value": "07777 888888"
        } ]
      } ],
      "subjectType": [ "Patient" ],
      "item": [ {
        "linkId": "59263",
        "prefix": "1100",
        "text": "SocialConcernsExcluded",
        "type": "choice",
        "required": true,
        "repeats": false,
        "option": [ {
          "valueString": "==\"present\", Selected: false"
        }, {
          "valueString": "*, Selected: true"
        } ]
      } ]
    }
  }, {
    "fullUrl": "urn:uuid:40ccb41f-971f-4f30-b519-8c55ad7ed74d",
    "resource": {
      "resourceType": "QuestionnaireResponse",
      "id": "40ccb41f-971f-4f30-b519-8c55ad7ed74d",
      "identifier": {
        "value": "59263"
      },
      "questionnaire": {
        "reference": "urn:uuid:3f104132-b85f-4526-a09b-ea055ec86feb"
      },
      "status": "completed",
      "subject": {
        "reference": "urn:uuid:a4ee319e-8679-4a98-af5b-76db86ae543a"
      },
      "context": {
        "reference": "urn:uuid:c0893574-0df5-4eb9-9176-c9623b5bad73"
      },
      "authored": "2021-04-06T11:29:26+00:00",
      "item": [ {
        "linkId": "Tx130011",
        "text": "What is the main problem?"
      } ]
    }
  }, {
    "fullUrl": "urn:uuid:3f104132-b85f-4526-a09b-ea055ec86feb",
    "resource": {
      "resourceType": "Questionnaire",
      "id": "3f104132-b85f-4526-a09b-ea055ec86feb",
      "identifier": [ {
        "value": "59263"
      } ],
      "version": "2021-04-06T11:29:26.887Z",
      "status": "active",
      "experimental": false,
      "date": "2021-04-06T11:29:26+00:00",
      "publisher": "User ID: 'HADFIELDR' User name: 'Ryan Hadfield' User skill set: 'T3'",
      "lastReviewDate": "2021-04-06",
      "contact": [ {
        "telecom": [ {
          "system": "phone",
          "value": "07777 888888"
        } ]
      } ],
      "subjectType": [ "Patient" ],
      "item": [ {
        "linkId": "59263",
        "prefix": "2300",
        "text": "What is the main problem?",
        "type": "choice",
        "required": true,
        "repeats": false,
        "option": [ {
          "valueString": "the individual has been told to follow a particular course of action (specify), Selected: false"
        }, {
          "valueString": "the individual is an identified frequent caller, Selected: false"
        }, {
          "valueString": "injury (specify), Selected: false"
        }, {
          "valueString": "illness or other health problem (specify), Selected: false"
        }, {
          "valueString": "child protection/vulnerable adult concern, Selected: false"
        }, {
          "valueString": "social or domestic emergency, Selected: false"
        }, {
          "valueString": "the environment potentially poses an immediate threat to life (specify), Selected: false"
        } ]
      } ]
    }
  }, {
    "fullUrl": "urn:uuid:936229ca-44d9-423b-b7ab-a873f524bc62",
    "resource": {
      "resourceType": "QuestionnaireResponse",
      "id": "936229ca-44d9-423b-b7ab-a873f524bc62",
      "identifier": {
        "value": "59263"
      },
      "questionnaire": {
        "reference": "urn:uuid:0575297b-1f6f-4525-87bb-758ed250148f"
      },
      "status": "completed",
      "subject": {
        "reference": "urn:uuid:a4ee319e-8679-4a98-af5b-76db86ae543a"
      },
      "context": {
        "reference": "urn:uuid:c0893574-0df5-4eb9-9176-c9623b5bad73"
      },
      "authored": "2021-04-06T11:29:26+00:00",
      "item": [ {
        "linkId": "Tx220074",
        "text": "What is the reason for the contact?",
        "answer": [ {
          "valueString": "more"
        } ]
      } ]
    }
  }, {
    "fullUrl": "urn:uuid:0575297b-1f6f-4525-87bb-758ed250148f",
    "resource": {
      "resourceType": "Questionnaire",
      "id": "0575297b-1f6f-4525-87bb-758ed250148f",
      "identifier": [ {
        "value": "59263"
      } ],
      "version": "2021-04-06T11:29:26.887Z",
      "status": "active",
      "experimental": false,
      "date": "2021-04-06T11:29:26+00:00",
      "publisher": "User ID: 'HADFIELDR' User name: 'Ryan Hadfield' User skill set: 'T3'",
      "lastReviewDate": "2021-04-06",
      "contact": [ {
        "telecom": [ {
          "system": "phone",
          "value": "07777 888888"
        } ]
      } ],
      "subjectType": [ "Patient" ],
      "item": [ {
        "linkId": "59263",
        "prefix": "5",
        "text": "What is the reason for the contact?",
        "type": "choice",
        "required": true,
        "repeats": false,
        "option": [ {
          "valueString": "an injury or other health problem, Selected: false"
        }, {
          "valueString": "labour or childbirth, Selected: false"
        }, {
          "valueString": "a need to access another healthcare service, Selected: false"
        }, {
          "valueString": "a healthcare professional requesting contact with another clinician, Selected: false"
        }, {
          "valueString": "a report of results or tests, Selected: false"
        }, {
          "valueString": "a possible failure of contraception, Selected: false"
        }, {
          "valueString": "more, Selected: true"
        } ]
      } ]
    }
  }, {
    "fullUrl": "urn:uuid:89f403c0-1ced-463b-a9a2-d93bc12d1896",
    "resource": {
      "resourceType": "QuestionnaireResponse",
      "id": "89f403c0-1ced-463b-a9a2-d93bc12d1896",
      "identifier": {
        "value": "59263"
      },
      "questionnaire": {
        "reference": "urn:uuid:da4de5f7-5b27-4c35-8419-d7e42cf466b2"
      },
      "status": "completed",
      "subject": {
        "reference": "urn:uuid:a4ee319e-8679-4a98-af5b-76db86ae543a"
      },
      "context": {
        "reference": "urn:uuid:c0893574-0df5-4eb9-9176-c9623b5bad73"
      },
      "authored": "2021-04-06T11:29:26+00:00",
      "item": [ {
        "linkId": "Tx221793",
        "text": "STRING:to'Social&information'-further'Callreason'menu",
        "answer": [ {
          "valueString": "\"present\""
        } ]
      } ]
    }
  }, {
    "fullUrl": "urn:uuid:da4de5f7-5b27-4c35-8419-d7e42cf466b2",
    "resource": {
      "resourceType": "Questionnaire",
      "id": "da4de5f7-5b27-4c35-8419-d7e42cf466b2",
      "identifier": [ {
        "value": "59263"
      } ],
      "version": "2021-04-06T11:29:26.887Z",
      "status": "active",
      "experimental": false,
      "date": "2021-04-06T11:29:26+00:00",
      "publisher": "User ID: 'HADFIELDR' User name: 'Ryan Hadfield' User skill set: 'T3'",
      "lastReviewDate": "2021-04-06",
      "contact": [ {
        "telecom": [ {
          "system": "phone",
          "value": "07777 888888"
        } ]
      } ],
      "subjectType": [ "Patient" ],
      "item": [ {
        "linkId": "59263",
        "prefix": "600",
        "text": "STRING:to'Social&information'-further'Callreason'menu",
        "type": "choice",
        "required": true,
        "repeats": false,
        "option": [ {
          "valueString": "\"present\", Selected: true"
        } ]
      } ]
    }
  }, {
    "fullUrl": "urn:uuid:f06490b8-7425-4a2a-8106-83b0cd504a1e",
    "resource": {
      "resourceType": "QuestionnaireResponse",
      "id": "f06490b8-7425-4a2a-8106-83b0cd504a1e",
      "identifier": {
        "value": "59263"
      },
      "questionnaire": {
        "reference": "urn:uuid:9891d35f-8201-4c85-bbac-10f2cc2bc440"
      },
      "status": "completed",
      "subject": {
        "reference": "urn:uuid:a4ee319e-8679-4a98-af5b-76db86ae543a"
      },
      "context": {
        "reference": "urn:uuid:c0893574-0df5-4eb9-9176-c9623b5bad73"
      },
      "authored": "2021-04-06T11:29:26+00:00"
    }
  }, {
    "fullUrl": "urn:uuid:9891d35f-8201-4c85-bbac-10f2cc2bc440",
    "resource": {
      "resourceType": "Questionnaire",
      "id": "9891d35f-8201-4c85-bbac-10f2cc2bc440",
      "identifier": [ {
        "value": "59263"
      } ],
      "version": "2021-04-06T11:29:26.887Z",
      "status": "active",
      "experimental": false,
      "date": "2021-04-06T11:29:26+00:00",
      "publisher": "User ID: 'HADFIELDR' User name: 'Ryan Hadfield' User skill set: 'T3'",
      "lastReviewDate": "2021-04-06",
      "contact": [ {
        "telecom": [ {
          "system": "phone",
          "value": "07777 888888"
        } ]
      } ],
      "subjectType": [ "Patient" ]
    }
  }, {
    "fullUrl": "urn:uuid:f8d885f8-96af-437f-9d59-5d0b46119978",
    "resource": {
      "resourceType": "QuestionnaireResponse",
      "id": "f8d885f8-96af-437f-9d59-5d0b46119978",
      "identifier": {
        "value": "59263"
      },
      "questionnaire": {
        "reference": "urn:uuid:01b08494-8031-407f-94c2-c3eb22a6223b"
      },
      "status": "completed",
      "subject": {
        "reference": "urn:uuid:a4ee319e-8679-4a98-af5b-76db86ae543a"
      },
      "context": {
        "reference": "urn:uuid:c0893574-0df5-4eb9-9176-c9623b5bad73"
      },
      "authored": "2021-04-06T11:29:26+00:00",
      "item": [ {
        "linkId": "Tx221804",
        "text": "STRING:transfertofurthermenuquestionestablishedinEntryFlow",
        "answer": [ {
          "valueString": "\"present\""
        } ]
      } ]
    }
  }, {
    "fullUrl": "urn:uuid:01b08494-8031-407f-94c2-c3eb22a6223b",
    "resource": {
      "resourceType": "Questionnaire",
      "id": "01b08494-8031-407f-94c2-c3eb22a6223b",
      "identifier": [ {
        "value": "59263"
      } ],
      "version": "2021-04-06T11:29:26.887Z",
      "status": "active",
      "experimental": false,
      "date": "2021-04-06T11:29:26+00:00",
      "publisher": "User ID: 'HADFIELDR' User name: 'Ryan Hadfield' User skill set: 'T3'",
      "lastReviewDate": "2021-04-06",
      "contact": [ {
        "telecom": [ {
          "system": "phone",
          "value": "07777 888888"
        } ]
      } ],
      "subjectType": [ "Patient" ],
      "item": [ {
        "linkId": "59263",
        "prefix": "41",
        "text": "STRING:transfertofurthermenuquestionestablishedinEntryFlow",
        "type": "choice",
        "required": true,
        "repeats": false,
        "option": [ {
          "valueString": "\"present\", Selected: true"
        } ]
      } ]
    }
  }, {
    "fullUrl": "urn:uuid:4c5e2fab-7791-45a0-95c2-55c399478289",
    "resource": {
      "resourceType": "QuestionnaireResponse",
      "id": "4c5e2fab-7791-45a0-95c2-55c399478289",
      "identifier": {
        "value": "59263"
      },
      "questionnaire": {
        "reference": "urn:uuid:d142fc1e-69ab-43ba-b47a-84c61a667b96"
      },
      "status": "completed",
      "subject": {
        "reference": "urn:uuid:a4ee319e-8679-4a98-af5b-76db86ae543a"
      },
      "context": {
        "reference": "urn:uuid:c0893574-0df5-4eb9-9176-c9623b5bad73"
      },
      "authored": "2021-04-06T11:29:26+00:00",
      "item": [ {
        "linkId": "Tx224998",
        "text": "SYSTEM_COVIDLEVEL2",
        "answer": [ {
          "valueString": "==\"covidlevel2\""
        } ]
      } ]
    }
  }, {
    "fullUrl": "urn:uuid:d142fc1e-69ab-43ba-b47a-84c61a667b96",
    "resource": {
      "resourceType": "Questionnaire",
      "id": "d142fc1e-69ab-43ba-b47a-84c61a667b96",
      "identifier": [ {
        "value": "59263"
      } ],
      "version": "2021-04-06T11:29:26.887Z",
      "status": "active",
      "experimental": false,
      "date": "2021-04-06T11:29:26+00:00",
      "publisher": "User ID: 'HADFIELDR' User name: 'Ryan Hadfield' User skill set: 'T3'",
      "lastReviewDate": "2021-04-06",
      "contact": [ {
        "telecom": [ {
          "system": "phone",
          "value": "07777 888888"
        } ]
      } ],
      "subjectType": [ "Patient" ],
      "item": [ {
        "linkId": "59263",
        "prefix": "5900",
        "text": "SYSTEM_COVIDLEVEL2",
        "type": "choice",
        "required": true,
        "repeats": false,
        "option": [ {
          "valueString": "==\"covidlevel2\", Selected: true"
        }, {
          "valueString": "*, Selected: false"
        } ]
      } ]
    }
  }, {
    "fullUrl": "urn:uuid:fa3a0578-fefe-45c8-b300-fae57538dff1",
    "resource": {
      "resourceType": "QuestionnaireResponse",
      "id": "fa3a0578-fefe-45c8-b300-fae57538dff1",
      "identifier": {
        "value": "59263"
      },
      "questionnaire": {
        "reference": "urn:uuid:510560be-68af-4797-8cbd-908647dc0c35"
      },
      "status": "completed",
      "subject": {
        "reference": "urn:uuid:a4ee319e-8679-4a98-af5b-76db86ae543a"
      },
      "context": {
        "reference": "urn:uuid:c0893574-0df5-4eb9-9176-c9623b5bad73"
      },
      "authored": "2021-04-06T11:29:26+00:00",
      "item": [ {
        "linkId": "Tx225069",
        "text": "What is the reason for the contact?",
        "answer": [ {
          "valueString": "a prescription request"
        } ]
      } ]
    }
  }, {
    "fullUrl": "urn:uuid:510560be-68af-4797-8cbd-908647dc0c35",
    "resource": {
      "resourceType": "Questionnaire",
      "id": "510560be-68af-4797-8cbd-908647dc0c35",
      "identifier": [ {
        "value": "59263"
      } ],
      "version": "2021-04-06T11:29:26.887Z",
      "status": "active",
      "experimental": false,
      "date": "2021-04-06T11:29:26+00:00",
      "publisher": "User ID: 'HADFIELDR' User name: 'Ryan Hadfield' User skill set: 'T3'",
      "lastReviewDate": "2021-04-06",
      "contact": [ {
        "telecom": [ {
          "system": "phone",
          "value": "07777 888888"
        } ]
      } ],
      "subjectType": [ "Patient" ],
      "item": [ {
        "linkId": "59263",
        "prefix": "6000",
        "text": "What is the reason for the contact?",
        "type": "choice",
        "required": true,
        "repeats": false,
        "option": [ {
          "valueString": "a child protection/vulnerable adult concern (specify), Selected: false"
        }, {
          "valueString": "a social or domestic emergency, Selected: false"
        }, {
          "valueString": "a prescription request, Selected: true"
        }, {
          "valueString": "an appointment request, Selected: false"
        }, {
          "valueString": "a request for health or medication information, Selected: false"
        }, {
          "valueString": "public health alert information, Selected: false"
        } ]
      } ]
    }
  }, {
    "fullUrl": "urn:uuid:7b8aa9c2-88e5-47a1-a46c-961f2e142626",
    "resource": {
      "resourceType": "QuestionnaireResponse",
      "id": "7b8aa9c2-88e5-47a1-a46c-961f2e142626",
      "identifier": {
        "value": "59263"
      },
      "questionnaire": {
        "reference": "urn:uuid:54da2515-9bbc-4fb1-8c73-89fa686b3213"
      },
      "status": "completed",
      "subject": {
        "reference": "urn:uuid:a4ee319e-8679-4a98-af5b-76db86ae543a"
      },
      "context": {
        "reference": "urn:uuid:c0893574-0df5-4eb9-9176-c9623b5bad73"
      },
      "authored": "2021-04-06T11:29:26+00:00",
      "item": [ {
        "linkId": "Tx220957",
        "text": "Is this contact about a new or worsening illness?",
        "answer": [ {
          "valueString": "no"
        } ]
      } ]
    }
  }, {
    "fullUrl": "urn:uuid:54da2515-9bbc-4fb1-8c73-89fa686b3213",
    "resource": {
      "resourceType": "Questionnaire",
      "id": "54da2515-9bbc-4fb1-8c73-89fa686b3213",
      "identifier": [ {
        "value": "59263"
      } ],
      "version": "2021-04-06T11:29:26.887Z",
      "status": "active",
      "experimental": false,
      "date": "2021-04-06T11:29:26+00:00",
      "publisher": "User ID: 'HADFIELDR' User name: 'Ryan Hadfield' User skill set: 'T3'",
      "lastReviewDate": "2021-04-06",
      "contact": [ {
        "telecom": [ {
          "system": "phone",
          "value": "07777 888888"
        } ]
      } ],
      "subjectType": [ "Patient" ],
      "item": [ {
        "linkId": "59263",
        "prefix": "1400",
        "text": "Is this contact about a new or worsening illness?",
        "type": "choice",
        "required": true,
        "repeats": false,
        "option": [ {
          "valueString": "yes, Selected: false"
        }, {
          "valueString": "not sure, Selected: false"
        }, {
          "valueString": "no, Selected: true"
        } ]
      } ]
    }
  }, {
    "fullUrl": "urn:uuid:bb15a664-41b6-4dbe-b5f7-c34d8b11db35",
    "resource": {
      "resourceType": "QuestionnaireResponse",
      "id": "bb15a664-41b6-4dbe-b5f7-c34d8b11db35",
      "identifier": {
        "value": "59263"
      },
      "questionnaire": {
        "reference": "urn:uuid:5c9055e5-25d3-4253-a5de-c4513f12a963"
      },
      "status": "completed",
      "subject": {
        "reference": "urn:uuid:a4ee319e-8679-4a98-af5b-76db86ae543a"
      },
      "context": {
        "reference": "urn:uuid:c0893574-0df5-4eb9-9176-c9623b5bad73"
      },
      "authored": "2021-04-06T11:29:26+00:00",
      "item": [ {
        "linkId": "Tx221352",
        "text": "Have you got enough medication to last until the surgery opens?",
        "answer": [ {
          "valueString": "no"
        } ]
      } ]
    }
  }, {
    "fullUrl": "urn:uuid:5c9055e5-25d3-4253-a5de-c4513f12a963",
    "resource": {
      "resourceType": "Questionnaire",
      "id": "5c9055e5-25d3-4253-a5de-c4513f12a963",
      "identifier": [ {
        "value": "59263"
      } ],
      "version": "2021-04-06T11:29:26.887Z",
      "status": "active",
      "experimental": false,
      "date": "2021-04-06T11:29:26+00:00",
      "publisher": "User ID: 'HADFIELDR' User name: 'Ryan Hadfield' User skill set: 'T3'",
      "lastReviewDate": "2021-04-06",
      "contact": [ {
        "telecom": [ {
          "system": "phone",
          "value": "07777 888888"
        } ]
      } ],
      "subjectType": [ "Patient" ],
      "item": [ {
        "linkId": "59263",
        "prefix": "1500",
        "text": "Have you got enough medication to last until the surgery opens?",
        "type": "choice",
        "required": true,
        "repeats": false,
        "option": [ {
          "valueString": "yes, Selected: false"
        }, {
          "valueString": "not sure, Selected: false"
        }, {
          "valueString": "no, Selected: true"
        } ]
      } ]
    }
  }, {
    "fullUrl": "urn:uuid:3a40d83d-0b5d-4bea-89c6-3eef570ff4b2",
    "resource": {
      "resourceType": "QuestionnaireResponse",
      "id": "3a40d83d-0b5d-4bea-89c6-3eef570ff4b2",
      "identifier": {
        "value": "59263"
      },
      "questionnaire": {
        "reference": "urn:uuid:44e719e4-b36f-4696-8d10-562a65b2d5fd"
      },
      "status": "completed",
      "subject": {
        "reference": "urn:uuid:a4ee319e-8679-4a98-af5b-76db86ae543a"
      },
      "context": {
        "reference": "urn:uuid:c0893574-0df5-4eb9-9176-c9623b5bad73"
      },
      "authored": "2021-04-06T11:29:26+00:00"
    }
  }, {
    "fullUrl": "urn:uuid:44e719e4-b36f-4696-8d10-562a65b2d5fd",
    "resource": {
      "resourceType": "Questionnaire",
      "id": "44e719e4-b36f-4696-8d10-562a65b2d5fd",
      "identifier": [ {
        "value": "59263"
      } ],
      "version": "2021-04-06T11:29:26.887Z",
      "status": "active",
      "experimental": false,
      "date": "2021-04-06T11:29:26+00:00",
      "publisher": "User ID: 'HADFIELDR' User name: 'Ryan Hadfield' User skill set: 'T3'",
      "lastReviewDate": "2021-04-06",
      "contact": [ {
        "telecom": [ {
          "system": "phone",
          "value": "07777 888888"
        } ]
      } ],
      "subjectType": [ "Patient" ]
    }
  }, {
    "fullUrl": "urn:uuid:4c7a6023-45c1-420b-afd0-7c137d601f07",
    "resource": {
      "resourceType": "QuestionnaireResponse",
      "id": "4c7a6023-45c1-420b-afd0-7c137d601f07",
      "identifier": {
        "value": "59263"
      },
      "questionnaire": {
        "reference": "urn:uuid:3a5a78ae-de36-420d-87af-9b253a47ed5f"
      },
      "status": "completed",
      "subject": {
        "reference": "urn:uuid:a4ee319e-8679-4a98-af5b-76db86ae543a"
      },
      "context": {
        "reference": "urn:uuid:c0893574-0df5-4eb9-9176-c9623b5bad73"
      },
      "authored": "2021-04-06T11:29:26+00:00",
      "item": [ {
        "linkId": "Tx224231",
        "text": "FROM WHAT YOU HAVE HEARD IS A CONSULTATION WITH A PRESCRIBER NEEDED?",
        "answer": [ {
          "valueString": "no"
        } ]
      } ]
    }
  }, {
    "fullUrl": "urn:uuid:3a5a78ae-de36-420d-87af-9b253a47ed5f",
    "resource": {
      "resourceType": "Questionnaire",
      "id": "3a5a78ae-de36-420d-87af-9b253a47ed5f",
      "identifier": [ {
        "value": "59263"
      } ],
      "version": "2021-04-06T11:29:26.887Z",
      "status": "active",
      "experimental": false,
      "date": "2021-04-06T11:29:26+00:00",
      "publisher": "User ID: 'HADFIELDR' User name: 'Ryan Hadfield' User skill set: 'T3'",
      "lastReviewDate": "2021-04-06",
      "contact": [ {
        "telecom": [ {
          "system": "phone",
          "value": "07777 888888"
        } ]
      } ],
      "subjectType": [ "Patient" ],
      "item": [ {
        "linkId": "59263",
        "prefix": "0",
        "text": "FROM WHAT YOU HAVE HEARD IS A CONSULTATION WITH A PRESCRIBER NEEDED?",
        "type": "choice",
        "required": true,
        "repeats": false,
        "option": [ {
          "valueString": "yes, Selected: false"
        }, {
          "valueString": "not sure, Selected: false"
        }, {
          "valueString": "no, Selected: true"
        } ]
      } ]
    }
  }, {
    "fullUrl": "urn:uuid:f89403e1-d46a-40c7-bd03-fbc9f774745f",
    "resource": {
      "resourceType": "QuestionnaireResponse",
      "id": "f89403e1-d46a-40c7-bd03-fbc9f774745f",
      "identifier": {
        "value": "59263"
      },
      "questionnaire": {
        "reference": "urn:uuid:32c7955c-09a6-4d1c-a5cc-3d0ecc989321"
      },
      "status": "completed",
      "subject": {
        "reference": "urn:uuid:a4ee319e-8679-4a98-af5b-76db86ae543a"
      },
      "context": {
        "reference": "urn:uuid:c0893574-0df5-4eb9-9176-c9623b5bad73"
      },
      "authored": "2021-04-06T11:29:26+00:00",
      "item": [ {
        "linkId": "Tx222687",
        "text": "Have you got any of the medication available at the moment?",
        "answer": [ {
          "valueString": "no"
        } ]
      } ]
    }
  }, {
    "fullUrl": "urn:uuid:32c7955c-09a6-4d1c-a5cc-3d0ecc989321",
    "resource": {
      "resourceType": "Questionnaire",
      "id": "32c7955c-09a6-4d1c-a5cc-3d0ecc989321",
      "identifier": [ {
        "value": "59263"
      } ],
      "version": "2021-04-06T11:29:26.887Z",
      "status": "active",
      "experimental": false,
      "date": "2021-04-06T11:29:26+00:00",
      "publisher": "User ID: 'HADFIELDR' User name: 'Ryan Hadfield' User skill set: 'T3'",
      "lastReviewDate": "2021-04-06",
      "contact": [ {
        "telecom": [ {
          "system": "phone",
          "value": "07777 888888"
        } ]
      } ],
      "subjectType": [ "Patient" ],
      "item": [ {
        "linkId": "59263",
        "prefix": "200",
        "text": "Have you got any of the medication available at the moment?",
        "type": "choice",
        "required": true,
        "repeats": false,
        "option": [ {
          "valueString": "yes, Selected: false"
        }, {
          "valueString": "not sure, Selected: false"
        }, {
          "valueString": "no, Selected: true"
        } ]
      } ]
    }
  }, {
    "fullUrl": "urn:uuid:fffa4e63-6095-4b14-9b89-c9ffdeac5390",
    "resource": {
      "resourceType": "QuestionnaireResponse",
      "id": "fffa4e63-6095-4b14-9b89-c9ffdeac5390",
      "identifier": {
        "value": "59263"
      },
      "questionnaire": {
        "reference": "urn:uuid:7f0a4e6c-aa04-4512-804e-e57de96391b4"
      },
      "status": "completed",
      "subject": {
        "reference": "urn:uuid:a4ee319e-8679-4a98-af5b-76db86ae543a"
      },
      "context": {
        "reference": "urn:uuid:c0893574-0df5-4eb9-9176-c9623b5bad73"
      },
      "authored": "2021-04-06T11:29:26+00:00",
      "item": [ {
        "linkId": "Tx221367",
        "text": "When is the next dose due?",
        "answer": [ {
          "valueString": "within the next 12 hours"
        } ]
      } ]
    }
  }, {
    "fullUrl": "urn:uuid:7f0a4e6c-aa04-4512-804e-e57de96391b4",
    "resource": {
      "resourceType": "Questionnaire",
      "id": "7f0a4e6c-aa04-4512-804e-e57de96391b4",
      "identifier": [ {
        "value": "59263"
      } ],
      "version": "2021-04-06T11:29:26.887Z",
      "status": "active",
      "experimental": false,
      "date": "2021-04-06T11:29:26+00:00",
      "publisher": "User ID: 'HADFIELDR' User name: 'Ryan Hadfield' User skill set: 'T3'",
      "lastReviewDate": "2021-04-06",
      "contact": [ {
        "telecom": [ {
          "system": "phone",
          "value": "07777 888888"
        } ]
      } ],
      "subjectType": [ "Patient" ],
      "item": [ {
        "linkId": "59263",
        "prefix": "100",
        "text": "When is the next dose due?",
        "type": "choice",
        "required": true,
        "repeats": false,
        "option": [ {
          "valueString": "within the next 2 hours, Selected: false"
        }, {
          "valueString": "within the next 6 hours, Selected: false"
        }, {
          "valueString": "within the next 12 hours, Selected: true"
        }, {
          "valueString": "over 12 hours time, Selected: false"
        }, {
          "valueString": "not sure, Selected: false"
        } ]
      } ]
    }
  }, {
    "fullUrl": "urn:uuid:94ad1fd1-1a20-4e78-a831-ca8c1870bfed",
    "resource": {
      "resourceType": "QuestionnaireResponse",
      "id": "94ad1fd1-1a20-4e78-a831-ca8c1870bfed",
      "identifier": {
        "value": "59263"
      },
      "questionnaire": {
        "reference": "urn:uuid:39c3ea04-3277-4dbb-9334-026091cb0071"
      },
      "status": "completed",
      "subject": {
        "reference": "urn:uuid:a4ee319e-8679-4a98-af5b-76db86ae543a"
      },
      "context": {
        "reference": "urn:uuid:c0893574-0df5-4eb9-9176-c9623b5bad73"
      },
      "authored": "2021-04-06T11:29:26+00:00",
      "item": [ {
        "linkId": "Tx223441",
        "text": "STRING:SDPCRepeatPrescription",
        "answer": [ {
          "valueString": "\"PC repeat prescription\""
        } ]
      } ]
    }
  }, {
    "fullUrl": "urn:uuid:39c3ea04-3277-4dbb-9334-026091cb0071",
    "resource": {
      "resourceType": "Questionnaire",
      "id": "39c3ea04-3277-4dbb-9334-026091cb0071",
      "identifier": [ {
        "value": "59263"
      } ],
      "version": "2021-04-06T11:29:26.887Z",
      "status": "active",
      "experimental": false,
      "date": "2021-04-06T11:29:26+00:00",
      "publisher": "User ID: 'HADFIELDR' User name: 'Ryan Hadfield' User skill set: 'T3'",
      "lastReviewDate": "2021-04-06",
      "contact": [ {
        "telecom": [ {
          "system": "phone",
          "value": "07777 888888"
        } ]
      } ],
      "subjectType": [ "Patient" ],
      "item": [ {
        "linkId": "59263",
        "prefix": "1200",
        "text": "STRING:SDPCRepeatPrescription",
        "type": "choice",
        "required": true,
        "repeats": false,
        "option": [ {
          "valueString": "\"PC repeat prescription\", Selected: true"
        } ]
      } ]
    }
  }, {
    "fullUrl": "urn:uuid:eb81a414-4b49-419d-9d69-b4068d1fb6ab",
    "resource": {
      "resourceType": "QuestionnaireResponse",
      "id": "eb81a414-4b49-419d-9d69-b4068d1fb6ab",
      "identifier": {
        "value": "59263"
      },
      "questionnaire": {
        "reference": "urn:uuid:3a4735c4-dd5f-4f00-abff-1ed2d8aa3c36"
      },
      "status": "completed",
      "subject": {
        "reference": "urn:uuid:a4ee319e-8679-4a98-af5b-76db86ae543a"
      },
      "context": {
        "reference": "urn:uuid:c0893574-0df5-4eb9-9176-c9623b5bad73"
      },
      "authored": "2021-04-06T11:29:26+00:00"
    }
  }, {
    "fullUrl": "urn:uuid:3a4735c4-dd5f-4f00-abff-1ed2d8aa3c36",
    "resource": {
      "resourceType": "Questionnaire",
      "id": "3a4735c4-dd5f-4f00-abff-1ed2d8aa3c36",
      "identifier": [ {
        "value": "59263"
      } ],
      "version": "2021-04-06T11:29:26.887Z",
      "status": "active",
      "experimental": false,
      "date": "2021-04-06T11:29:26+00:00",
      "publisher": "User ID: 'HADFIELDR' User name: 'Ryan Hadfield' User skill set: 'T3'",
      "lastReviewDate": "2021-04-06",
      "contact": [ {
        "telecom": [ {
          "system": "phone",
          "value": "07777 888888"
        } ]
      } ],
      "subjectType": [ "Patient" ]
    }
  }, {
    "fullUrl": "urn:uuid:f048ba68-e961-4368-a1f9-5938d391b661",
    "resource": {
      "resourceType": "QuestionnaireResponse",
      "id": "f048ba68-e961-4368-a1f9-5938d391b661",
      "identifier": {
        "value": "59263"
      },
      "questionnaire": {
        "reference": "urn:uuid:729be1be-585a-41d9-890b-4f230ea67619"
      },
      "status": "completed",
      "subject": {
        "reference": "urn:uuid:a4ee319e-8679-4a98-af5b-76db86ae543a"
      },
      "context": {
        "reference": "urn:uuid:c0893574-0df5-4eb9-9176-c9623b5bad73"
      },
      "authored": "2021-04-06T11:29:26+00:00",
      "item": [ {
        "linkId": "Tx220074",
        "text": "What is the reason for the contact?",
        "answer": [ {
          "valueString": "an injury or other health problem"
        } ]
      } ]
    }
  }, {
    "fullUrl": "urn:uuid:729be1be-585a-41d9-890b-4f230ea67619",
    "resource": {
      "resourceType": "Questionnaire",
      "id": "729be1be-585a-41d9-890b-4f230ea67619",
      "identifier": [ {
        "value": "59263"
      } ],
      "version": "2021-04-06T11:29:26.887Z",
      "status": "active",
      "experimental": false,
      "date": "2021-04-06T11:29:26+00:00",
      "publisher": "User ID: 'HADFIELDR' User name: 'Ryan Hadfield' User skill set: 'T3'",
      "lastReviewDate": "2021-04-06",
      "contact": [ {
        "telecom": [ {
          "system": "phone",
          "value": "07777 888888"
        } ]
      } ],
      "subjectType": [ "Patient" ],
      "item": [ {
        "linkId": "59263",
        "prefix": "5",
        "text": "What is the reason for the contact?",
        "type": "choice",
        "required": true,
        "repeats": false,
        "option": [ {
          "valueString": "an injury or other health problem, Selected: true"
        }, {
          "valueString": "labour or childbirth, Selected: false"
        }, {
          "valueString": "a need to access another healthcare service, Selected: false"
        }, {
          "valueString": "a healthcare professional requesting contact with another clinician, Selected: false"
        }, {
          "valueString": "a report of results or tests, Selected: false"
        }, {
          "valueString": "a possible failure of contraception, Selected: false"
        }, {
          "valueString": "more, Selected: false"
        } ]
      } ]
    }
  }, {
    "fullUrl": "urn:uuid:96dd994f-c44f-4ad6-9ff2-2762e06c55f3",
    "resource": {
      "resourceType": "QuestionnaireResponse",
      "id": "96dd994f-c44f-4ad6-9ff2-2762e06c55f3",
      "identifier": {
        "value": "59263"
      },
      "questionnaire": {
        "reference": "urn:uuid:c140d714-28a6-423f-92cd-5e4878471396"
      },
      "status": "completed",
      "subject": {
        "reference": "urn:uuid:a4ee319e-8679-4a98-af5b-76db86ae543a"
      },
      "context": {
        "reference": "urn:uuid:c0893574-0df5-4eb9-9176-c9623b5bad73"
      },
      "authored": "2021-04-06T11:29:26+00:00",
      "item": [ {
        "linkId": "Tx221807",
        "text": "STRING:to'Immediatethreatstolife(SPA/OOHversion)'-'Majorbloodloss'stem",
        "answer": [ {
          "valueString": "\"present\""
        } ]
      } ]
    }
  }, {
    "fullUrl": "urn:uuid:c140d714-28a6-423f-92cd-5e4878471396",
    "resource": {
      "resourceType": "Questionnaire",
      "id": "c140d714-28a6-423f-92cd-5e4878471396",
      "identifier": [ {
        "value": "59263"
      } ],
      "version": "2021-04-06T11:29:26.887Z",
      "status": "active",
      "experimental": false,
      "date": "2021-04-06T11:29:26+00:00",
      "publisher": "User ID: 'HADFIELDR' User name: 'Ryan Hadfield' User skill set: 'T3'",
      "lastReviewDate": "2021-04-06",
      "contact": [ {
        "telecom": [ {
          "system": "phone",
          "value": "07777 888888"
        } ]
      } ],
      "subjectType": [ "Patient" ],
      "item": [ {
        "linkId": "59263",
        "prefix": "200",
        "text": "STRING:to'Immediatethreatstolife(SPA/OOHversion)'-'Majorbloodloss'stem",
        "type": "choice",
        "required": true,
        "repeats": false,
        "option": [ {
          "valueString": "\"present\", Selected: true"
        } ]
      } ]
    }
  }, {
    "fullUrl": "urn:uuid:3161ac2a-9429-4d6a-ac89-36eeb1378bbb",
    "resource": {
      "resourceType": "QuestionnaireResponse",
      "id": "3161ac2a-9429-4d6a-ac89-36eeb1378bbb",
      "identifier": {
        "value": "59263"
      },
      "questionnaire": {
        "reference": "urn:uuid:e37842d8-eed1-4be0-ac3f-bbf5fa0879c6"
      },
      "status": "completed",
      "subject": {
        "reference": "urn:uuid:a4ee319e-8679-4a98-af5b-76db86ae543a"
      },
      "context": {
        "reference": "urn:uuid:c0893574-0df5-4eb9-9176-c9623b5bad73"
      },
      "authored": "2021-04-06T11:29:26+00:00"
    }
  }, {
    "fullUrl": "urn:uuid:e37842d8-eed1-4be0-ac3f-bbf5fa0879c6",
    "resource": {
      "resourceType": "Questionnaire",
      "id": "e37842d8-eed1-4be0-ac3f-bbf5fa0879c6",
      "identifier": [ {
        "value": "59263"
      } ],
      "version": "2021-04-06T11:29:26.887Z",
      "status": "active",
      "experimental": false,
      "date": "2021-04-06T11:29:26+00:00",
      "publisher": "User ID: 'HADFIELDR' User name: 'Ryan Hadfield' User skill set: 'T3'",
      "lastReviewDate": "2021-04-06",
      "contact": [ {
        "telecom": [ {
          "system": "phone",
          "value": "07777 888888"
        } ]
      } ],
      "subjectType": [ "Patient" ]
    }
  }, {
    "fullUrl": "urn:uuid:6086a773-2564-4b7c-9fe8-c5a446a931e3",
    "resource": {
      "resourceType": "QuestionnaireResponse",
      "id": "6086a773-2564-4b7c-9fe8-c5a446a931e3",
      "identifier": {
        "value": "59263"
      },
      "questionnaire": {
        "reference": "urn:uuid:618a737d-f42e-449e-8e74-2e313ad959bc"
      },
      "status": "completed",
      "subject": {
        "reference": "urn:uuid:a4ee319e-8679-4a98-af5b-76db86ae543a"
      },
      "context": {
        "reference": "urn:uuid:c0893574-0df5-4eb9-9176-c9623b5bad73"
      },
      "authored": "2021-04-06T11:29:26+00:00",
      "item": [ {
        "linkId": "Tx221799",
        "text": "STRING:injury,illnessorlabourestablishedinEntryFlow",
        "answer": [ {
          "valueString": "\"present\""
        } ]
      } ]
    }
  }, {
    "fullUrl": "urn:uuid:618a737d-f42e-449e-8e74-2e313ad959bc",
    "resource": {
      "resourceType": "Questionnaire",
      "id": "618a737d-f42e-449e-8e74-2e313ad959bc",
      "identifier": [ {
        "value": "59263"
      } ],
      "version": "2021-04-06T11:29:26.887Z",
      "status": "active",
      "experimental": false,
      "date": "2021-04-06T11:29:26+00:00",
      "publisher": "User ID: 'HADFIELDR' User name: 'Ryan Hadfield' User skill set: 'T3'",
      "lastReviewDate": "2021-04-06",
      "contact": [ {
        "telecom": [ {
          "system": "phone",
          "value": "07777 888888"
        } ]
      } ],
      "subjectType": [ "Patient" ],
      "item": [ {
        "linkId": "59263",
        "prefix": "0",
        "text": "STRING:injury,illnessorlabourestablishedinEntryFlow",
        "type": "choice",
        "required": true,
        "repeats": false,
        "option": [ {
          "valueString": "\"present\", Selected: true"
        } ]
      } ]
    }
  }, {
    "fullUrl": "urn:uuid:36405642-9c6c-4919-ad3a-54c78b8ff22e",
    "resource": {
      "resourceType": "QuestionnaireResponse",
      "id": "36405642-9c6c-4919-ad3a-54c78b8ff22e",
      "identifier": {
        "value": "59263"
      },
      "questionnaire": {
        "reference": "urn:uuid:0720b73b-84b2-437f-a87d-61a0bcbcb676"
      },
      "status": "completed",
      "subject": {
        "reference": "urn:uuid:a4ee319e-8679-4a98-af5b-76db86ae543a"
      },
      "context": {
        "reference": "urn:uuid:c0893574-0df5-4eb9-9176-c9623b5bad73"
      },
      "authored": "2021-04-06T11:29:26+00:00",
      "item": [ {
        "linkId": "Tx224120",
        "text": "Have you been bleeding RED BLOOD very heavily IN THE LAST 2 HOURS?",
        "answer": [ {
          "valueString": "no"
        } ]
      } ]
    }
  }, {
    "fullUrl": "urn:uuid:0720b73b-84b2-437f-a87d-61a0bcbcb676",
    "resource": {
      "resourceType": "Questionnaire",
      "id": "0720b73b-84b2-437f-a87d-61a0bcbcb676",
      "identifier": [ {
        "value": "59263"
      } ],
      "version": "2021-04-06T11:29:26.887Z",
      "status": "active",
      "experimental": false,
      "date": "2021-04-06T11:29:26+00:00",
      "publisher": "User ID: 'HADFIELDR' User name: 'Ryan Hadfield' User skill set: 'T3'",
      "lastReviewDate": "2021-04-06",
      "contact": [ {
        "telecom": [ {
          "system": "phone",
          "value": "07777 888888"
        } ]
      } ],
      "subjectType": [ "Patient" ],
      "item": [ {
        "linkId": "59263",
        "prefix": "10100",
        "text": "Have you been bleeding RED BLOOD very heavily IN THE LAST 2 HOURS?",
        "type": "choice",
        "required": true,
        "repeats": false,
        "option": [ {
          "valueString": "yes, Selected: false"
        }, {
          "valueString": "not sure, Selected: false"
        }, {
          "valueString": "no, Selected: true"
        } ]
      } ]
    }
  }, {
    "fullUrl": "urn:uuid:0535be93-8940-4746-b50a-fa86add20f7a",
    "resource": {
      "resourceType": "QuestionnaireResponse",
      "id": "0535be93-8940-4746-b50a-fa86add20f7a",
      "identifier": {
        "value": "59263"
      },
      "questionnaire": {
        "reference": "urn:uuid:bc21da46-dd4b-4246-a79d-0cc38ed7d1db"
      },
      "status": "completed",
      "subject": {
        "reference": "urn:uuid:a4ee319e-8679-4a98-af5b-76db86ae543a"
      },
      "context": {
        "reference": "urn:uuid:c0893574-0df5-4eb9-9176-c9623b5bad73"
      },
      "authored": "2021-04-06T11:29:26+00:00",
      "item": [ {
        "linkId": "Tx221343",
        "text": "SocialConcernsExcluded",
        "answer": [ {
          "valueString": "*"
        } ]
      } ]
    }
  }, {
    "fullUrl": "urn:uuid:bc21da46-dd4b-4246-a79d-0cc38ed7d1db",
    "resource": {
      "resourceType": "Questionnaire",
      "id": "bc21da46-dd4b-4246-a79d-0cc38ed7d1db",
      "identifier": [ {
        "value": "59263"
      } ],
      "version": "2021-04-06T11:29:26.887Z",
      "status": "active",
      "experimental": false,
      "date": "2021-04-06T11:29:26+00:00",
      "publisher": "User ID: 'HADFIELDR' User name: 'Ryan Hadfield' User skill set: 'T3'",
      "lastReviewDate": "2021-04-06",
      "contact": [ {
        "telecom": [ {
          "system": "phone",
          "value": "07777 888888"
        } ]
      } ],
      "subjectType": [ "Patient" ],
      "item": [ {
        "linkId": "59263",
        "prefix": "1100",
        "text": "SocialConcernsExcluded",
        "type": "choice",
        "required": true,
        "repeats": false,
        "option": [ {
          "valueString": "==\"present\", Selected: false"
        }, {
          "valueString": "*, Selected: true"
        } ]
      } ]
    }
  }, {
    "fullUrl": "urn:uuid:6750c4e7-957d-4503-9c92-8bed9d7ac3de",
    "resource": {
      "resourceType": "QuestionnaireResponse",
      "id": "6750c4e7-957d-4503-9c92-8bed9d7ac3de",
      "identifier": {
        "value": "59263"
      },
      "questionnaire": {
        "reference": "urn:uuid:f56c828d-b8a6-468a-971a-bff7a7d06182"
      },
      "status": "completed",
      "subject": {
        "reference": "urn:uuid:a4ee319e-8679-4a98-af5b-76db86ae543a"
      },
      "context": {
        "reference": "urn:uuid:c0893574-0df5-4eb9-9176-c9623b5bad73"
      },
      "authored": "2021-04-06T11:29:26+00:00",
      "item": [ {
        "linkId": "Tx130011",
        "text": "What is the main problem?"
      } ]
    }
  }, {
    "fullUrl": "urn:uuid:f56c828d-b8a6-468a-971a-bff7a7d06182",
    "resource": {
      "resourceType": "Questionnaire",
      "id": "f56c828d-b8a6-468a-971a-bff7a7d06182",
      "identifier": [ {
        "value": "59263"
      } ],
      "version": "2021-04-06T11:29:26.887Z",
      "status": "active",
      "experimental": false,
      "date": "2021-04-06T11:29:26+00:00",
      "publisher": "User ID: 'HADFIELDR' User name: 'Ryan Hadfield' User skill set: 'T3'",
      "lastReviewDate": "2021-04-06",
      "contact": [ {
        "telecom": [ {
          "system": "phone",
          "value": "07777 888888"
        } ]
      } ],
      "subjectType": [ "Patient" ],
      "item": [ {
        "linkId": "59263",
        "prefix": "2300",
        "text": "What is the main problem?",
        "type": "choice",
        "required": true,
        "repeats": false,
        "option": [ {
          "valueString": "the individual has been told to follow a particular course of action (specify), Selected: false"
        }, {
          "valueString": "the individual is an identified frequent caller, Selected: false"
        }, {
          "valueString": "injury (specify), Selected: false"
        }, {
          "valueString": "illness or other health problem (specify), Selected: false"
        }, {
          "valueString": "child protection/vulnerable adult concern, Selected: false"
        }, {
          "valueString": "social or domestic emergency, Selected: false"
        }, {
          "valueString": "the environment potentially poses an immediate threat to life (specify), Selected: false"
        } ]
      } ]
    }
  }, {
    "fullUrl": "urn:uuid:86c2cc74-ee81-4624-bc3b-8fb1d769aed0",
    "resource": {
      "resourceType": "QuestionnaireResponse",
      "id": "86c2cc74-ee81-4624-bc3b-8fb1d769aed0",
      "identifier": {
        "value": "59263"
      },
      "questionnaire": {
        "reference": "urn:uuid:8ee6ffaa-e9bd-4887-ae8a-d7f1be77f391"
      },
      "status": "completed",
      "subject": {
        "reference": "urn:uuid:a4ee319e-8679-4a98-af5b-76db86ae543a"
      },
      "context": {
        "reference": "urn:uuid:c0893574-0df5-4eb9-9176-c9623b5bad73"
      },
      "authored": "2021-04-06T11:29:26+00:00",
      "item": [ {
        "linkId": "Tx220074",
        "text": "What is the reason for the contact?",
        "answer": [ {
          "valueString": "more"
        } ]
      } ]
    }
  }, {
    "fullUrl": "urn:uuid:8ee6ffaa-e9bd-4887-ae8a-d7f1be77f391",
    "resource": {
      "resourceType": "Questionnaire",
      "id": "8ee6ffaa-e9bd-4887-ae8a-d7f1be77f391",
      "identifier": [ {
        "value": "59263"
      } ],
      "version": "2021-04-06T11:29:26.887Z",
      "status": "active",
      "experimental": false,
      "date": "2021-04-06T11:29:26+00:00",
      "publisher": "User ID: 'HADFIELDR' User name: 'Ryan Hadfield' User skill set: 'T3'",
      "lastReviewDate": "2021-04-06",
      "contact": [ {
        "telecom": [ {
          "system": "phone",
          "value": "07777 888888"
        } ]
      } ],
      "subjectType": [ "Patient" ],
      "item": [ {
        "linkId": "59263",
        "prefix": "5",
        "text": "What is the reason for the contact?",
        "type": "choice",
        "required": true,
        "repeats": false,
        "option": [ {
          "valueString": "an injury or other health problem, Selected: false"
        }, {
          "valueString": "labour or childbirth, Selected: false"
        }, {
          "valueString": "a need to access another healthcare service, Selected: false"
        }, {
          "valueString": "a healthcare professional requesting contact with another clinician, Selected: false"
        }, {
          "valueString": "a report of results or tests, Selected: false"
        }, {
          "valueString": "a possible failure of contraception, Selected: false"
        }, {
          "valueString": "more, Selected: true"
        } ]
      } ]
    }
  }, {
    "fullUrl": "urn:uuid:27da8f0c-4c24-4068-94fe-059b177de6d2",
    "resource": {
      "resourceType": "QuestionnaireResponse",
      "id": "27da8f0c-4c24-4068-94fe-059b177de6d2",
      "identifier": {
        "value": "59263"
      },
      "questionnaire": {
        "reference": "urn:uuid:8f65cacc-ddb0-4567-9395-03cd4b96a68e"
      },
      "status": "completed",
      "subject": {
        "reference": "urn:uuid:a4ee319e-8679-4a98-af5b-76db86ae543a"
      },
      "context": {
        "reference": "urn:uuid:c0893574-0df5-4eb9-9176-c9623b5bad73"
      },
      "authored": "2021-04-06T11:29:26+00:00",
      "item": [ {
        "linkId": "Tx221793",
        "text": "STRING:to'Social&information'-further'Callreason'menu",
        "answer": [ {
          "valueString": "\"present\""
        } ]
      } ]
    }
  }, {
    "fullUrl": "urn:uuid:8f65cacc-ddb0-4567-9395-03cd4b96a68e",
    "resource": {
      "resourceType": "Questionnaire",
      "id": "8f65cacc-ddb0-4567-9395-03cd4b96a68e",
      "identifier": [ {
        "value": "59263"
      } ],
      "version": "2021-04-06T11:29:26.887Z",
      "status": "active",
      "experimental": false,
      "date": "2021-04-06T11:29:26+00:00",
      "publisher": "User ID: 'HADFIELDR' User name: 'Ryan Hadfield' User skill set: 'T3'",
      "lastReviewDate": "2021-04-06",
      "contact": [ {
        "telecom": [ {
          "system": "phone",
          "value": "07777 888888"
        } ]
      } ],
      "subjectType": [ "Patient" ],
      "item": [ {
        "linkId": "59263",
        "prefix": "600",
        "text": "STRING:to'Social&information'-further'Callreason'menu",
        "type": "choice",
        "required": true,
        "repeats": false,
        "option": [ {
          "valueString": "\"present\", Selected: true"
        } ]
      } ]
    }
  }, {
    "fullUrl": "urn:uuid:da6ec7db-528c-43c1-96a3-5fb125c7df5b",
    "resource": {
      "resourceType": "QuestionnaireResponse",
      "id": "da6ec7db-528c-43c1-96a3-5fb125c7df5b",
      "identifier": {
        "value": "59263"
      },
      "questionnaire": {
        "reference": "urn:uuid:1527230c-f1bc-4ff9-a683-86e1d9c9a215"
      },
      "status": "completed",
      "subject": {
        "reference": "urn:uuid:a4ee319e-8679-4a98-af5b-76db86ae543a"
      },
      "context": {
        "reference": "urn:uuid:c0893574-0df5-4eb9-9176-c9623b5bad73"
      },
      "authored": "2021-04-06T11:29:26+00:00"
    }
  }, {
    "fullUrl": "urn:uuid:1527230c-f1bc-4ff9-a683-86e1d9c9a215",
    "resource": {
      "resourceType": "Questionnaire",
      "id": "1527230c-f1bc-4ff9-a683-86e1d9c9a215",
      "identifier": [ {
        "value": "59263"
      } ],
      "version": "2021-04-06T11:29:26.887Z",
      "status": "active",
      "experimental": false,
      "date": "2021-04-06T11:29:26+00:00",
      "publisher": "User ID: 'HADFIELDR' User name: 'Ryan Hadfield' User skill set: 'T3'",
      "lastReviewDate": "2021-04-06",
      "contact": [ {
        "telecom": [ {
          "system": "phone",
          "value": "07777 888888"
        } ]
      } ],
      "subjectType": [ "Patient" ]
    }
  }, {
    "fullUrl": "urn:uuid:7381cebf-0822-4f36-b63e-aa4e6a264b06",
    "resource": {
      "resourceType": "QuestionnaireResponse",
      "id": "7381cebf-0822-4f36-b63e-aa4e6a264b06",
      "identifier": {
        "value": "59263"
      },
      "questionnaire": {
        "reference": "urn:uuid:a47596ab-ad87-4c33-a7ea-9f3878dc9f99"
      },
      "status": "completed",
      "subject": {
        "reference": "urn:uuid:a4ee319e-8679-4a98-af5b-76db86ae543a"
      },
      "context": {
        "reference": "urn:uuid:c0893574-0df5-4eb9-9176-c9623b5bad73"
      },
      "authored": "2021-04-06T11:29:26+00:00",
      "item": [ {
        "linkId": "Tx221804",
        "text": "STRING:transfertofurthermenuquestionestablishedinEntryFlow",
        "answer": [ {
          "valueString": "\"present\""
        } ]
      } ]
    }
  }, {
    "fullUrl": "urn:uuid:a47596ab-ad87-4c33-a7ea-9f3878dc9f99",
    "resource": {
      "resourceType": "Questionnaire",
      "id": "a47596ab-ad87-4c33-a7ea-9f3878dc9f99",
      "identifier": [ {
        "value": "59263"
      } ],
      "version": "2021-04-06T11:29:26.887Z",
      "status": "active",
      "experimental": false,
      "date": "2021-04-06T11:29:26+00:00",
      "publisher": "User ID: 'HADFIELDR' User name: 'Ryan Hadfield' User skill set: 'T3'",
      "lastReviewDate": "2021-04-06",
      "contact": [ {
        "telecom": [ {
          "system": "phone",
          "value": "07777 888888"
        } ]
      } ],
      "subjectType": [ "Patient" ],
      "item": [ {
        "linkId": "59263",
        "prefix": "41",
        "text": "STRING:transfertofurthermenuquestionestablishedinEntryFlow",
        "type": "choice",
        "required": true,
        "repeats": false,
        "option": [ {
          "valueString": "\"present\", Selected: true"
        } ]
      } ]
    }
  }, {
    "fullUrl": "urn:uuid:14a74045-9520-46cd-9e5f-f7376109ba0f",
    "resource": {
      "resourceType": "QuestionnaireResponse",
      "id": "14a74045-9520-46cd-9e5f-f7376109ba0f",
      "identifier": {
        "value": "59263"
      },
      "questionnaire": {
        "reference": "urn:uuid:f9a0a431-c467-42a4-a693-c22b62c62ad2"
      },
      "status": "completed",
      "subject": {
        "reference": "urn:uuid:a4ee319e-8679-4a98-af5b-76db86ae543a"
      },
      "context": {
        "reference": "urn:uuid:c0893574-0df5-4eb9-9176-c9623b5bad73"
      },
      "authored": "2021-04-06T11:29:26+00:00",
      "item": [ {
        "linkId": "Tx224998",
        "text": "SYSTEM_COVIDLEVEL2",
        "answer": [ {
          "valueString": "==\"covidlevel2\""
        } ]
      } ]
    }
  }, {
    "fullUrl": "urn:uuid:f9a0a431-c467-42a4-a693-c22b62c62ad2",
    "resource": {
      "resourceType": "Questionnaire",
      "id": "f9a0a431-c467-42a4-a693-c22b62c62ad2",
      "identifier": [ {
        "value": "59263"
      } ],
      "version": "2021-04-06T11:29:26.887Z",
      "status": "active",
      "experimental": false,
      "date": "2021-04-06T11:29:26+00:00",
      "publisher": "User ID: 'HADFIELDR' User name: 'Ryan Hadfield' User skill set: 'T3'",
      "lastReviewDate": "2021-04-06",
      "contact": [ {
        "telecom": [ {
          "system": "phone",
          "value": "07777 888888"
        } ]
      } ],
      "subjectType": [ "Patient" ],
      "item": [ {
        "linkId": "59263",
        "prefix": "5900",
        "text": "SYSTEM_COVIDLEVEL2",
        "type": "choice",
        "required": true,
        "repeats": false,
        "option": [ {
          "valueString": "==\"covidlevel2\", Selected: true"
        }, {
          "valueString": "*, Selected: false"
        } ]
      } ]
    }
  }, {
    "fullUrl": "urn:uuid:0db19991-6fd4-41a1-a2f3-c9500a340a0d",
    "resource": {
      "resourceType": "QuestionnaireResponse",
      "id": "0db19991-6fd4-41a1-a2f3-c9500a340a0d",
      "identifier": {
        "value": "59263"
      },
      "questionnaire": {
        "reference": "urn:uuid:8b2cc3dd-50b6-40cc-9696-75729bc9edff"
      },
      "status": "completed",
      "subject": {
        "reference": "urn:uuid:a4ee319e-8679-4a98-af5b-76db86ae543a"
      },
      "context": {
        "reference": "urn:uuid:c0893574-0df5-4eb9-9176-c9623b5bad73"
      },
      "authored": "2021-04-06T11:29:26+00:00",
      "item": [ {
        "linkId": "Tx225069",
        "text": "What is the reason for the contact?",
        "answer": [ {
          "valueString": "a prescription request"
        } ]
      } ]
    }
  }, {
    "fullUrl": "urn:uuid:8b2cc3dd-50b6-40cc-9696-75729bc9edff",
    "resource": {
      "resourceType": "Questionnaire",
      "id": "8b2cc3dd-50b6-40cc-9696-75729bc9edff",
      "identifier": [ {
        "value": "59263"
      } ],
      "version": "2021-04-06T11:29:26.887Z",
      "status": "active",
      "experimental": false,
      "date": "2021-04-06T11:29:26+00:00",
      "publisher": "User ID: 'HADFIELDR' User name: 'Ryan Hadfield' User skill set: 'T3'",
      "lastReviewDate": "2021-04-06",
      "contact": [ {
        "telecom": [ {
          "system": "phone",
          "value": "07777 888888"
        } ]
      } ],
      "subjectType": [ "Patient" ],
      "item": [ {
        "linkId": "59263",
        "prefix": "6000",
        "text": "What is the reason for the contact?",
        "type": "choice",
        "required": true,
        "repeats": false,
        "option": [ {
          "valueString": "a child protection/vulnerable adult concern (specify), Selected: false"
        }, {
          "valueString": "a social or domestic emergency, Selected: false"
        }, {
          "valueString": "a prescription request, Selected: true"
        }, {
          "valueString": "an appointment request, Selected: false"
        }, {
          "valueString": "a request for health or medication information, Selected: false"
        }, {
          "valueString": "public health alert information, Selected: false"
        } ]
      } ]
    }
  }, {
    "fullUrl": "urn:uuid:9cdd288f-82df-4033-a4f6-d05cdc8c82e3",
    "resource": {
      "resourceType": "QuestionnaireResponse",
      "id": "9cdd288f-82df-4033-a4f6-d05cdc8c82e3",
      "identifier": {
        "value": "59263"
      },
      "questionnaire": {
        "reference": "urn:uuid:d9de36f4-8681-4cfd-8879-49884df9ddae"
      },
      "status": "completed",
      "subject": {
        "reference": "urn:uuid:a4ee319e-8679-4a98-af5b-76db86ae543a"
      },
      "context": {
        "reference": "urn:uuid:c0893574-0df5-4eb9-9176-c9623b5bad73"
      },
      "authored": "2021-04-06T11:29:26+00:00",
      "item": [ {
        "linkId": "Tx220957",
        "text": "Is this contact about a new or worsening illness?",
        "answer": [ {
          "valueString": "no"
        } ]
      } ]
    }
  }, {
    "fullUrl": "urn:uuid:d9de36f4-8681-4cfd-8879-49884df9ddae",
    "resource": {
      "resourceType": "Questionnaire",
      "id": "d9de36f4-8681-4cfd-8879-49884df9ddae",
      "identifier": [ {
        "value": "59263"
      } ],
      "version": "2021-04-06T11:29:26.887Z",
      "status": "active",
      "experimental": false,
      "date": "2021-04-06T11:29:26+00:00",
      "publisher": "User ID: 'HADFIELDR' User name: 'Ryan Hadfield' User skill set: 'T3'",
      "lastReviewDate": "2021-04-06",
      "contact": [ {
        "telecom": [ {
          "system": "phone",
          "value": "07777 888888"
        } ]
      } ],
      "subjectType": [ "Patient" ],
      "item": [ {
        "linkId": "59263",
        "prefix": "1400",
        "text": "Is this contact about a new or worsening illness?",
        "type": "choice",
        "required": true,
        "repeats": false,
        "option": [ {
          "valueString": "yes, Selected: false"
        }, {
          "valueString": "not sure, Selected: false"
        }, {
          "valueString": "no, Selected: true"
        } ]
      } ]
    }
  }, {
    "fullUrl": "urn:uuid:f7f149d4-2190-4cce-a619-165ec4c9a648",
    "resource": {
      "resourceType": "QuestionnaireResponse",
      "id": "f7f149d4-2190-4cce-a619-165ec4c9a648",
      "identifier": {
        "value": "59263"
      },
      "questionnaire": {
        "reference": "urn:uuid:7a522974-923d-4329-8e2d-70cd7772b996"
      },
      "status": "completed",
      "subject": {
        "reference": "urn:uuid:a4ee319e-8679-4a98-af5b-76db86ae543a"
      },
      "context": {
        "reference": "urn:uuid:c0893574-0df5-4eb9-9176-c9623b5bad73"
      },
      "authored": "2021-04-06T11:29:26+00:00",
      "item": [ {
        "linkId": "Tx221352",
        "text": "Have you got enough medication to last until the surgery opens?",
        "answer": [ {
          "valueString": "no"
        } ]
      } ]
    }
  }, {
    "fullUrl": "urn:uuid:7a522974-923d-4329-8e2d-70cd7772b996",
    "resource": {
      "resourceType": "Questionnaire",
      "id": "7a522974-923d-4329-8e2d-70cd7772b996",
      "identifier": [ {
        "value": "59263"
      } ],
      "version": "2021-04-06T11:29:26.887Z",
      "status": "active",
      "experimental": false,
      "date": "2021-04-06T11:29:26+00:00",
      "publisher": "User ID: 'HADFIELDR' User name: 'Ryan Hadfield' User skill set: 'T3'",
      "lastReviewDate": "2021-04-06",
      "contact": [ {
        "telecom": [ {
          "system": "phone",
          "value": "07777 888888"
        } ]
      } ],
      "subjectType": [ "Patient" ],
      "item": [ {
        "linkId": "59263",
        "prefix": "1500",
        "text": "Have you got enough medication to last until the surgery opens?",
        "type": "choice",
        "required": true,
        "repeats": false,
        "option": [ {
          "valueString": "yes, Selected: false"
        }, {
          "valueString": "not sure, Selected: false"
        }, {
          "valueString": "no, Selected: true"
        } ]
      } ]
    }
  }, {
    "fullUrl": "urn:uuid:67e7c60b-f334-477b-ac78-bc1a99f75cff",
    "resource": {
      "resourceType": "QuestionnaireResponse",
      "id": "67e7c60b-f334-477b-ac78-bc1a99f75cff",
      "identifier": {
        "value": "59263"
      },
      "questionnaire": {
        "reference": "urn:uuid:78172435-9bf4-44d4-ad09-78041ebf1dc7"
      },
      "status": "completed",
      "subject": {
        "reference": "urn:uuid:a4ee319e-8679-4a98-af5b-76db86ae543a"
      },
      "context": {
        "reference": "urn:uuid:c0893574-0df5-4eb9-9176-c9623b5bad73"
      },
      "authored": "2021-04-06T11:29:26+00:00"
    }
  }, {
    "fullUrl": "urn:uuid:78172435-9bf4-44d4-ad09-78041ebf1dc7",
    "resource": {
      "resourceType": "Questionnaire",
      "id": "78172435-9bf4-44d4-ad09-78041ebf1dc7",
      "identifier": [ {
        "value": "59263"
      } ],
      "version": "2021-04-06T11:29:26.887Z",
      "status": "active",
      "experimental": false,
      "date": "2021-04-06T11:29:26+00:00",
      "publisher": "User ID: 'HADFIELDR' User name: 'Ryan Hadfield' User skill set: 'T3'",
      "lastReviewDate": "2021-04-06",
      "contact": [ {
        "telecom": [ {
          "system": "phone",
          "value": "07777 888888"
        } ]
      } ],
      "subjectType": [ "Patient" ]
    }
  }, {
    "fullUrl": "urn:uuid:f599520e-cf52-481c-861b-385c5c6131de",
    "resource": {
      "resourceType": "QuestionnaireResponse",
      "id": "f599520e-cf52-481c-861b-385c5c6131de",
      "identifier": {
        "value": "59263"
      },
      "questionnaire": {
        "reference": "urn:uuid:aff191ce-d53d-4eac-93b5-ad2de5313312"
      },
      "status": "completed",
      "subject": {
        "reference": "urn:uuid:a4ee319e-8679-4a98-af5b-76db86ae543a"
      },
      "context": {
        "reference": "urn:uuid:c0893574-0df5-4eb9-9176-c9623b5bad73"
      },
      "authored": "2021-04-06T11:29:26+00:00",
      "item": [ {
        "linkId": "Tx224231",
        "text": "FROM WHAT YOU HAVE HEARD IS A CONSULTATION WITH A PRESCRIBER NEEDED?",
        "answer": [ {
          "valueString": "no"
        } ]
      } ]
    }
  }, {
    "fullUrl": "urn:uuid:aff191ce-d53d-4eac-93b5-ad2de5313312",
    "resource": {
      "resourceType": "Questionnaire",
      "id": "aff191ce-d53d-4eac-93b5-ad2de5313312",
      "identifier": [ {
        "value": "59263"
      } ],
      "version": "2021-04-06T11:29:26.887Z",
      "status": "active",
      "experimental": false,
      "date": "2021-04-06T11:29:26+00:00",
      "publisher": "User ID: 'HADFIELDR' User name: 'Ryan Hadfield' User skill set: 'T3'",
      "lastReviewDate": "2021-04-06",
      "contact": [ {
        "telecom": [ {
          "system": "phone",
          "value": "07777 888888"
        } ]
      } ],
      "subjectType": [ "Patient" ],
      "item": [ {
        "linkId": "59263",
        "prefix": "0",
        "text": "FROM WHAT YOU HAVE HEARD IS A CONSULTATION WITH A PRESCRIBER NEEDED?",
        "type": "choice",
        "required": true,
        "repeats": false,
        "option": [ {
          "valueString": "yes, Selected: false"
        }, {
          "valueString": "not sure, Selected: false"
        }, {
          "valueString": "no, Selected: true"
        } ]
      } ]
    }
  }, {
    "fullUrl": "urn:uuid:825ee750-63dc-47a5-8c28-e726aeb21d2a",
    "resource": {
      "resourceType": "QuestionnaireResponse",
      "id": "825ee750-63dc-47a5-8c28-e726aeb21d2a",
      "identifier": {
        "value": "59263"
      },
      "questionnaire": {
        "reference": "urn:uuid:5b5f4c4d-4550-4379-9a91-494ff0f15544"
      },
      "status": "completed",
      "subject": {
        "reference": "urn:uuid:a4ee319e-8679-4a98-af5b-76db86ae543a"
      },
      "context": {
        "reference": "urn:uuid:c0893574-0df5-4eb9-9176-c9623b5bad73"
      },
      "authored": "2021-04-06T11:29:26+00:00",
      "item": [ {
        "linkId": "Tx222687",
        "text": "Have you got any of the medication available at the moment?",
        "answer": [ {
          "valueString": "no"
        } ]
      } ]
    }
  }, {
    "fullUrl": "urn:uuid:5b5f4c4d-4550-4379-9a91-494ff0f15544",
    "resource": {
      "resourceType": "Questionnaire",
      "id": "5b5f4c4d-4550-4379-9a91-494ff0f15544",
      "identifier": [ {
        "value": "59263"
      } ],
      "version": "2021-04-06T11:29:26.887Z",
      "status": "active",
      "experimental": false,
      "date": "2021-04-06T11:29:26+00:00",
      "publisher": "User ID: 'HADFIELDR' User name: 'Ryan Hadfield' User skill set: 'T3'",
      "lastReviewDate": "2021-04-06",
      "contact": [ {
        "telecom": [ {
          "system": "phone",
          "value": "07777 888888"
        } ]
      } ],
      "subjectType": [ "Patient" ],
      "item": [ {
        "linkId": "59263",
        "prefix": "200",
        "text": "Have you got any of the medication available at the moment?",
        "type": "choice",
        "required": true,
        "repeats": false,
        "option": [ {
          "valueString": "yes, Selected: false"
        }, {
          "valueString": "not sure, Selected: false"
        }, {
          "valueString": "no, Selected: true"
        } ]
      } ]
    }
  }, {
    "fullUrl": "urn:uuid:e100bb08-ea06-4b8a-b4b1-b419cfe54622",
    "resource": {
      "resourceType": "QuestionnaireResponse",
      "id": "e100bb08-ea06-4b8a-b4b1-b419cfe54622",
      "identifier": {
        "value": "59263"
      },
      "questionnaire": {
        "reference": "urn:uuid:b790fb86-00f3-4036-a9bd-bf27447dc331"
      },
      "status": "completed",
      "subject": {
        "reference": "urn:uuid:a4ee319e-8679-4a98-af5b-76db86ae543a"
      },
      "context": {
        "reference": "urn:uuid:c0893574-0df5-4eb9-9176-c9623b5bad73"
      },
      "authored": "2021-04-06T11:29:26+00:00",
      "item": [ {
        "linkId": "Tx221367",
        "text": "When is the next dose due?",
        "answer": [ {
          "valueString": "within the next 12 hours"
        } ]
      } ]
    }
  }, {
    "fullUrl": "urn:uuid:b790fb86-00f3-4036-a9bd-bf27447dc331",
    "resource": {
      "resourceType": "Questionnaire",
      "id": "b790fb86-00f3-4036-a9bd-bf27447dc331",
      "identifier": [ {
        "value": "59263"
      } ],
      "version": "2021-04-06T11:29:26.887Z",
      "status": "active",
      "experimental": false,
      "date": "2021-04-06T11:29:26+00:00",
      "publisher": "User ID: 'HADFIELDR' User name: 'Ryan Hadfield' User skill set: 'T3'",
      "lastReviewDate": "2021-04-06",
      "contact": [ {
        "telecom": [ {
          "system": "phone",
          "value": "07777 888888"
        } ]
      } ],
      "subjectType": [ "Patient" ],
      "item": [ {
        "linkId": "59263",
        "prefix": "100",
        "text": "When is the next dose due?",
        "type": "choice",
        "required": true,
        "repeats": false,
        "option": [ {
          "valueString": "within the next 2 hours, Selected: false"
        }, {
          "valueString": "within the next 6 hours, Selected: false"
        }, {
          "valueString": "within the next 12 hours, Selected: true"
        }, {
          "valueString": "over 12 hours time, Selected: false"
        }, {
          "valueString": "not sure, Selected: false"
        } ]
      } ]
    }
  }, {
    "fullUrl": "urn:uuid:6b4d22c2-1bb6-4ec6-83da-830b111786cf",
    "resource": {
      "resourceType": "QuestionnaireResponse",
      "id": "6b4d22c2-1bb6-4ec6-83da-830b111786cf",
      "identifier": {
        "value": "59263"
      },
      "questionnaire": {
        "reference": "urn:uuid:c8c90fed-9979-4ec4-80e8-47a6352fdf11"
      },
      "status": "completed",
      "subject": {
        "reference": "urn:uuid:a4ee319e-8679-4a98-af5b-76db86ae543a"
      },
      "context": {
        "reference": "urn:uuid:c0893574-0df5-4eb9-9176-c9623b5bad73"
      },
      "authored": "2021-04-06T11:29:26+00:00",
      "item": [ {
        "linkId": "Tx223441",
        "text": "STRING:SDPCRepeatPrescription",
        "answer": [ {
          "valueString": "\"PC repeat prescription\""
        } ]
      } ]
    }
  }, {
    "fullUrl": "urn:uuid:c8c90fed-9979-4ec4-80e8-47a6352fdf11",
    "resource": {
      "resourceType": "Questionnaire",
      "id": "c8c90fed-9979-4ec4-80e8-47a6352fdf11",
      "identifier": [ {
        "value": "59263"
      } ],
      "version": "2021-04-06T11:29:26.887Z",
      "status": "active",
      "experimental": false,
      "date": "2021-04-06T11:29:26+00:00",
      "publisher": "User ID: 'HADFIELDR' User name: 'Ryan Hadfield' User skill set: 'T3'",
      "lastReviewDate": "2021-04-06",
      "contact": [ {
        "telecom": [ {
          "system": "phone",
          "value": "07777 888888"
        } ]
      } ],
      "subjectType": [ "Patient" ],
      "item": [ {
        "linkId": "59263",
        "prefix": "1200",
        "text": "STRING:SDPCRepeatPrescription",
        "type": "choice",
        "required": true,
        "repeats": false,
        "option": [ {
          "valueString": "\"PC repeat prescription\", Selected: true"
        } ]
      } ]
    }
  }, {
    "fullUrl": "urn:uuid:d340f2eb-aba4-4b82-8a7e-9680f895011c",
    "resource": {
      "resourceType": "QuestionnaireResponse",
      "id": "d340f2eb-aba4-4b82-8a7e-9680f895011c",
      "identifier": {
        "value": "59263"
      },
      "questionnaire": {
        "reference": "urn:uuid:ba294273-e10e-4bdf-abb7-8d76ffc75d05"
      },
      "status": "completed",
      "subject": {
        "reference": "urn:uuid:a4ee319e-8679-4a98-af5b-76db86ae543a"
      },
      "context": {
        "reference": "urn:uuid:c0893574-0df5-4eb9-9176-c9623b5bad73"
      },
      "authored": "2021-04-06T11:29:26+00:00"
    }
  }, {
    "fullUrl": "urn:uuid:ba294273-e10e-4bdf-abb7-8d76ffc75d05",
    "resource": {
      "resourceType": "Questionnaire",
      "id": "ba294273-e10e-4bdf-abb7-8d76ffc75d05",
      "identifier": [ {
        "value": "59263"
      } ],
      "version": "2021-04-06T11:29:26.887Z",
      "status": "active",
      "experimental": false,
      "date": "2021-04-06T11:29:26+00:00",
      "publisher": "User ID: 'HADFIELDR' User name: 'Ryan Hadfield' User skill set: 'T3'",
      "lastReviewDate": "2021-04-06",
      "contact": [ {
        "telecom": [ {
          "system": "phone",
          "value": "07777 888888"
        } ]
      } ],
      "subjectType": [ "Patient" ]
    }
  }, {
    "fullUrl": "urn:uuid:b3178594-cc40-4944-aef7-28ca0b35533c",
    "resource": {
      "resourceType": "QuestionnaireResponse",
      "id": "b3178594-cc40-4944-aef7-28ca0b35533c",
      "identifier": {
        "value": "59263"
      },
      "questionnaire": {
        "reference": "urn:uuid:f83ecacf-094a-4485-9e9a-10fc11b8166c"
      },
      "status": "completed",
      "subject": {
        "reference": "urn:uuid:a4ee319e-8679-4a98-af5b-76db86ae543a"
      },
      "context": {
        "reference": "urn:uuid:c0893574-0df5-4eb9-9176-c9623b5bad73"
      },
      "authored": "2021-04-06T11:29:26+00:00"
    }
  }, {
    "fullUrl": "urn:uuid:f83ecacf-094a-4485-9e9a-10fc11b8166c",
    "resource": {
      "resourceType": "Questionnaire",
      "id": "f83ecacf-094a-4485-9e9a-10fc11b8166c",
      "identifier": [ {
        "value": "59263"
      } ],
      "version": "2021-04-06T11:29:26.887Z",
      "status": "active",
      "experimental": false,
      "date": "2021-04-06T11:29:26+00:00",
      "publisher": "User ID: 'HADFIELDR' User name: 'Ryan Hadfield' User skill set: 'T3'",
      "lastReviewDate": "2021-04-06",
      "contact": [ {
        "telecom": [ {
          "system": "phone",
          "value": "07777 888888"
        } ]
      } ],
      "subjectType": [ "Patient" ]
    }
  }, {
    "fullUrl": "urn:uuid:76d737d5-62d0-485b-820c-0d761f48d5bb",
    "resource": {
      "resourceType": "Observation",
      "id": "76d737d5-62d0-485b-820c-0d761f48d5bb",
      "status": "final",
      "code": {
        "coding": [ {
          "system": "http://snomed.info/sct",
          "code": "33962009",
          "display": "Presenting complaint"
        } ]
      },
      "subject": {
        "reference": "urn:uuid:a4ee319e-8679-4a98-af5b-76db86ae543a"
      },
      "context": {
        "reference": "urn:uuid:c0893574-0df5-4eb9-9176-c9623b5bad73"
      },
      "valueString": "test"
    }
  }, {
    "fullUrl": "urn:uuid:6f28a859-2bfc-4239-bebe-2917fe7b8445",
    "resource": {
      "resourceType": "PractitionerRole",
      "id": "6f28a859-2bfc-4239-bebe-2917fe7b8445",
      "practitioner": {
        "reference": "urn:uuid:84070346-9375-42e7-8f54-1d72989f782b"
      },
      "organization": {
        "reference": "urn:uuid:d003e961-60ab-4ba6-96fb-17664b38726f"
      },
      "code": [ {
        "coding": [ {
          "system": "2.16.840.1.113883.2.1.3.2.4.17.339",
          "code": "DOCTOR",
          "display": "Doctor"
        } ]
      } ]
    }
  }, {
    "fullUrl": "urn:uuid:d003e961-60ab-4ba6-96fb-17664b38726f",
    "resource": {
      "resourceType": "Organization",
      "id": "d003e961-60ab-4ba6-96fb-17664b38726f",
      "identifier": [ {
        "value": "RYE"
      } ],
      "name": "1.SCAS Administrator (SCAS111)"
    }
  }, {
    "fullUrl": "urn:uuid:510a1efe-d4d2-49e0-b21a-43c592f876fe",
    "resource": {
      "resourceType": "PractitionerRole",
      "id": "510a1efe-d4d2-49e0-b21a-43c592f876fe",
      "practitioner": {
        "reference": "urn:uuid:1da9fe47-d525-48be-9a26-cb0b4bac165b"
      },
      "organization": {
        "reference": "urn:uuid:f0479351-f525-4621-87af-5f3076354a2c"
      },
      "code": [ {
        "coding": [ {
          "system": "2.16.840.1.113883.2.1.3.2.4.17.196",
          "code": "R0010",
          "display": "Medical Director"
        } ]
      } ]
    }
  }, {
    "fullUrl": "urn:uuid:f0479351-f525-4621-87af-5f3076354a2c",
    "resource": {
      "resourceType": "Organization",
      "id": "f0479351-f525-4621-87af-5f3076354a2c",
      "identifier": [ {
        "value": "RYE"
      } ],
      "name": "SCAS111"
    }
  }, {
    "fullUrl": "urn:uuid:d81a9905-6343-47a8-9dd8-106e4838078b",
    "resource": {
      "resourceType": "RelatedPerson",
      "id": "d81a9905-6343-47a8-9dd8-106e4838078b",
      "patient": {
        "reference": "urn:uuid:a4ee319e-8679-4a98-af5b-76db86ae543a"
      },
      "relationship": {
        "coding": [ {
          "system": "http://hl7.org/fhir/v2/0131",
          "code": "C",
          "display": "Emergency Contact"
        } ]
      },
      "telecom": [ {
        "system": "phone",
        "value": "tel:000000000000"
      } ]
    }
  }, {
    "fullUrl": "urn:uuid:e46b75b9-00ea-4f6b-875a-d435de34bdf0",
    "resource": {
      "resourceType": "Device",
      "id": "e46b75b9-00ea-4f6b-875a-d435de34bdf0",
      "model": "111 Adaptor",
      "version": "1.0.1"
    }
  }, {
    "fullUrl": "urn:uuid:401a74f4-f5db-4336-8489-5575dbdbf804",
    "resource": {
      "resourceType": "List",
      "id": "401a74f4-f5db-4336-8489-5575dbdbf804",
      "status": "current",
      "mode": "working",
      "title": "111 Report List",
      "code": {
        "coding": [ {
          "system": "http://snomed.info/sct",
          "code": "225390008",
          "display": "Triage"
        } ]
      },
      "subject": {
        "reference": "urn:uuid:a4ee319e-8679-4a98-af5b-76db86ae543a"
      },
      "encounter": {
        "reference": "urn:uuid:c0893574-0df5-4eb9-9176-c9623b5bad73"
      },
      "date": "2021-04-06T11:29:27+00:00",
      "source": {
        "reference": "urn:uuid:e46b75b9-00ea-4f6b-875a-d435de34bdf0"
      },
      "orderedBy": {
        "coding": [ {
          "system": "http://hl7.org/fhir/list-order",
          "code": "event-date",
          "display": "Sorted by Event Date"
        } ]
      },
      "entry": [ {
        "item": {
          "reference": "urn:uuid:f0479351-f525-4621-87af-5f3076354a2c"
        }
      }, {
        "item": {
          "reference": "urn:uuid:84070346-9375-42e7-8f54-1d72989f782b"
        }
      }, {
        "item": {
          "reference": "urn:uuid:c4c277c4-1c74-429e-9ccf-6d0b474735de"
        }
      }, {
        "item": {
          "reference": "urn:uuid:76d737d5-62d0-485b-820c-0d761f48d5bb"
        }
      }, {
        "item": {
          "reference": "urn:uuid:1da9fe47-d525-48be-9a26-cb0b4bac165b"
        }
      }, {
        "item": {
          "reference": "urn:uuid:08992bb3-551f-41fe-aa37-a26c1d75417b"
        }
      }, {
        "item": {
          "reference": "urn:uuid:09922051-f894-4d8e-91e2-cd78354f384e"
        }
      }, {
        "item": {
          "reference": "urn:uuid:d81a9905-6343-47a8-9dd8-106e4838078b"
        }
      }, {
        "item": {
          "reference": "urn:uuid:9afab9d5-f835-4134-8162-54832429cad3"
        }
      }, {
        "item": {
          "reference": "urn:uuid:d003e961-60ab-4ba6-96fb-17664b38726f"
        }
      }, {
        "item": {
          "reference": "urn:uuid:309c65ba-3bea-4177-ba1e-edf61183c5c5"
        }
      }, {
        "item": {
          "reference": "urn:uuid:79f3766d-4862-4091-ade2-c64ead8798cb"
        }
      }, {
        "item": {
          "reference": "urn:uuid:c405d46c-8183-4267-a82b-4253ef5db070"
        }
      }, {
        "item": {
          "reference": "urn:uuid:0535be93-8940-4746-b50a-fa86add20f7a"
        }
      }, {
        "item": {
          "reference": "urn:uuid:618a737d-f42e-449e-8e74-2e313ad959bc"
        }
      }, {
        "item": {
          "reference": "urn:uuid:40ccb41f-971f-4f30-b519-8c55ad7ed74d"
        }
      }, {
        "item": {
          "reference": "urn:uuid:aff191ce-d53d-4eac-93b5-ad2de5313312"
        }
      }, {
        "item": {
          "reference": "urn:uuid:36405642-9c6c-4919-ad3a-54c78b8ff22e"
        }
      }, {
        "item": {
          "reference": "urn:uuid:d142fc1e-69ab-43ba-b47a-84c61a667b96"
        }
      }, {
        "item": {
          "reference": "urn:uuid:f56c828d-b8a6-468a-971a-bff7a7d06182"
        }
      }, {
        "item": {
          "reference": "urn:uuid:beff662a-689c-44c0-99c2-a61935dbc8ae"
        }
      }, {
        "item": {
          "reference": "urn:uuid:9ed0b9f4-82f8-4e36-b7dd-4a242c4ddddd"
        }
      }, {
        "item": {
          "reference": "urn:uuid:fffa4e63-6095-4b14-9b89-c9ffdeac5390"
        }
      }, {
        "item": {
          "reference": "urn:uuid:f9a0a431-c467-42a4-a693-c22b62c62ad2"
        }
      }, {
        "item": {
          "reference": "urn:uuid:b790fb86-00f3-4036-a9bd-bf27447dc331"
        }
      }, {
        "item": {
          "reference": "urn:uuid:beddfef7-e9d7-41fb-8710-2a9de752f910"
        }
      }, {
        "item": {
          "reference": "urn:uuid:f8d885f8-96af-437f-9d59-5d0b46119978"
        }
      }, {
        "item": {
          "reference": "urn:uuid:8f65cacc-ddb0-4567-9395-03cd4b96a68e"
        }
      }, {
        "item": {
          "reference": "urn:uuid:825ee750-63dc-47a5-8c28-e726aeb21d2a"
        }
      }, {
        "item": {
          "reference": "urn:uuid:36bb6b37-55dd-4b8b-921b-4d93ac421740"
        }
      }, {
        "item": {
          "reference": "urn:uuid:010d6db0-f650-4501-b0ed-4fc33fbd28af"
        }
      }, {
        "item": {
          "reference": "urn:uuid:be7e73b1-3764-494e-bf6a-53a91258f5d3"
        }
      }, {
        "item": {
          "reference": "urn:uuid:066c1807-26e3-4ad8-a000-0237b063b883"
        }
      }, {
        "item": {
          "reference": "urn:uuid:e916b316-6c5f-48ad-ad3e-f740417ae3e0"
        }
      }, {
        "item": {
          "reference": "urn:uuid:39c3ea04-3277-4dbb-9334-026091cb0071"
        }
      }, {
        "item": {
          "reference": "urn:uuid:89f403c0-1ced-463b-a9a2-d93bc12d1896"
        }
      }, {
        "item": {
          "reference": "urn:uuid:f06490b8-7425-4a2a-8106-83b0cd504a1e"
        }
      }, {
        "item": {
          "reference": "urn:uuid:3a40d83d-0b5d-4bea-89c6-3eef570ff4b2"
        }
      }, {
        "item": {
          "reference": "urn:uuid:0575297b-1f6f-4525-87bb-758ed250148f"
        }
      }, {
        "item": {
          "reference": "urn:uuid:44e719e4-b36f-4696-8d10-562a65b2d5fd"
        }
      }, {
        "item": {
          "reference": "urn:uuid:8b2cc3dd-50b6-40cc-9696-75729bc9edff"
        }
      }, {
        "item": {
          "reference": "urn:uuid:a674a918-44d0-4d83-b487-d10e23c0548b"
        }
      }, {
        "item": {
          "reference": "urn:uuid:b2089415-45fa-41ac-aa8f-b0fb85bb2ed9"
        }
      }, {
        "item": {
          "reference": "urn:uuid:5b5f4c4d-4550-4379-9a91-494ff0f15544"
        }
      }, {
        "item": {
          "reference": "urn:uuid:ba294273-e10e-4bdf-abb7-8d76ffc75d05"
        }
      }, {
        "item": {
          "reference": "urn:uuid:9891d35f-8201-4c85-bbac-10f2cc2bc440"
        }
      }, {
        "item": {
          "reference": "urn:uuid:c381348e-f5e5-466b-8701-e822899b75bc"
        }
      }, {
        "item": {
          "reference": "urn:uuid:f7f149d4-2190-4cce-a619-165ec4c9a648"
        }
      }, {
        "item": {
          "reference": "urn:uuid:96dd994f-c44f-4ad6-9ff2-2762e06c55f3"
        }
      }, {
        "item": {
          "reference": "urn:uuid:0720b73b-84b2-437f-a87d-61a0bcbcb676"
        }
      }, {
        "item": {
          "reference": "urn:uuid:54da2515-9bbc-4fb1-8c73-89fa686b3213"
        }
      }, {
        "item": {
          "reference": "urn:uuid:56ed7bda-be77-4250-ac4b-d930dced9461"
        }
      }, {
        "item": {
          "reference": "urn:uuid:27da8f0c-4c24-4068-94fe-059b177de6d2"
        }
      }, {
        "item": {
          "reference": "urn:uuid:f048ba68-e961-4368-a1f9-5938d391b661"
        }
      }, {
        "item": {
          "reference": "urn:uuid:665935e3-61ae-4eed-a4f9-71be771eaf15"
        }
      }, {
        "item": {
          "reference": "urn:uuid:7a522974-923d-4329-8e2d-70cd7772b996"
        }
      }, {
        "item": {
          "reference": "urn:uuid:c91dd3e0-cc88-414b-ab26-eac0564f9142"
        }
      }, {
        "item": {
          "reference": "urn:uuid:0b74baf3-8e0b-48fe-a140-364009a243c1"
        }
      }, {
        "item": {
          "reference": "urn:uuid:31e89919-fd11-46cf-9374-6f9e923b690f"
        }
      }, {
        "item": {
          "reference": "urn:uuid:4c7a6023-45c1-420b-afd0-7c137d601f07"
        }
      }, {
        "item": {
          "reference": "urn:uuid:01b08494-8031-407f-94c2-c3eb22a6223b"
        }
      }, {
        "item": {
          "reference": "urn:uuid:86c2cc74-ee81-4624-bc3b-8fb1d769aed0"
        }
      }, {
        "item": {
          "reference": "urn:uuid:67e7c60b-f334-477b-ac78-bc1a99f75cff"
        }
      }, {
        "item": {
          "reference": "urn:uuid:c6058612-6d22-4635-8e58-d8615cad2aeb"
        }
      }, {
        "item": {
          "reference": "urn:uuid:510560be-68af-4797-8cbd-908647dc0c35"
        }
      }, {
        "item": {
          "reference": "urn:uuid:3ff14ecd-2516-4ce3-8812-771e005b3aff"
        }
      }, {
        "item": {
          "reference": "urn:uuid:f89403e1-d46a-40c7-bd03-fbc9f774745f"
        }
      }, {
        "item": {
          "reference": "urn:uuid:c140d714-28a6-423f-92cd-5e4878471396"
        }
      }, {
        "item": {
          "reference": "urn:uuid:5c9055e5-25d3-4253-a5de-c4513f12a963"
        }
      }, {
        "item": {
          "reference": "urn:uuid:8ee6ffaa-e9bd-4887-ae8a-d7f1be77f391"
        }
      }, {
        "item": {
          "reference": "urn:uuid:4955cbdf-d056-4773-a5ab-ac8c19b21ab5"
        }
      }, {
        "item": {
          "reference": "urn:uuid:ba3f033e-2ecf-4f3b-af98-c1f6349aa834"
        }
      }, {
        "item": {
          "reference": "urn:uuid:e100bb08-ea06-4b8a-b4b1-b419cfe54622"
        }
      }, {
        "item": {
          "reference": "urn:uuid:ac54dd5e-dc12-4d28-99a8-9a8e73a84c5b"
        }
      }, {
        "item": {
          "reference": "urn:uuid:3161ac2a-9429-4d6a-ac89-36eeb1378bbb"
        }
      }, {
        "item": {
          "reference": "urn:uuid:6b4d22c2-1bb6-4ec6-83da-830b111786cf"
        }
      }, {
        "item": {
          "reference": "urn:uuid:52e97612-021f-4124-96ee-10389351cee1"
        }
      }, {
        "item": {
          "reference": "urn:uuid:3c74de4f-45db-44f2-bf67-ec031f691625"
        }
      }, {
        "item": {
          "reference": "urn:uuid:a84e88cb-898d-4354-aaa8-865ed1b8de0a"
        }
      }, {
        "item": {
          "reference": "urn:uuid:936229ca-44d9-423b-b7ab-a873f524bc62"
        }
      }, {
        "item": {
          "reference": "urn:uuid:544dcdf2-e132-48ea-8030-a812e318e83b"
        }
      }, {
        "item": {
          "reference": "urn:uuid:14a74045-9520-46cd-9e5f-f7376109ba0f"
        }
      }, {
        "item": {
          "reference": "urn:uuid:9cdd288f-82df-4033-a4f6-d05cdc8c82e3"
        }
      }, {
        "item": {
          "reference": "urn:uuid:0db19991-6fd4-41a1-a2f3-c9500a340a0d"
        }
      }, {
        "item": {
          "reference": "urn:uuid:1527230c-f1bc-4ff9-a683-86e1d9c9a215"
        }
      }, {
        "item": {
          "reference": "urn:uuid:da6ec7db-528c-43c1-96a3-5fb125c7df5b"
        }
      }, {
        "item": {
          "reference": "urn:uuid:d340f2eb-aba4-4b82-8a7e-9680f895011c"
        }
      }, {
        "item": {
          "reference": "urn:uuid:040b3120-81ae-4b2f-9712-c918ae3d1452"
        }
      }, {
        "item": {
          "reference": "urn:uuid:bb15a664-41b6-4dbe-b5f7-c34d8b11db35"
        }
      }, {
        "item": {
          "reference": "urn:uuid:88b891b8-de7f-4404-a055-39c49bc22d9b"
        }
      }, {
        "item": {
          "reference": "urn:uuid:746e30a4-4772-4e84-b4e9-24137ac0dcf6"
        }
      }, {
        "item": {
          "reference": "urn:uuid:7f0a4e6c-aa04-4512-804e-e57de96391b4"
        }
      }, {
        "item": {
          "reference": "urn:uuid:b3178594-cc40-4944-aef7-28ca0b35533c"
        }
      }, {
        "item": {
          "reference": "urn:uuid:439e9a41-8652-4c65-a736-fec5416b6532"
        }
      }, {
        "item": {
          "reference": "urn:uuid:bc21da46-dd4b-4246-a79d-0cc38ed7d1db"
        }
      }, {
        "item": {
          "reference": "urn:uuid:a3c8291a-0d99-4e53-a4e6-f2e22c07e233"
        }
      }, {
        "item": {
          "reference": "urn:uuid:78172435-9bf4-44d4-ad09-78041ebf1dc7"
        }
      }, {
        "item": {
          "reference": "urn:uuid:4c5e2fab-7791-45a0-95c2-55c399478289"
        }
      }, {
        "item": {
          "reference": "urn:uuid:fe5f9c29-d62f-4caf-b57a-5404b1e57190"
        }
      }, {
        "item": {
          "reference": "urn:uuid:f599520e-cf52-481c-861b-385c5c6131de"
        }
      }, {
        "item": {
          "reference": "urn:uuid:503982b6-1eab-460d-b6bc-d55ecb9cc123"
        }
      }, {
        "item": {
          "reference": "urn:uuid:6e89bac0-7948-4d59-a836-3cb99dcdbefc"
        }
      }, {
        "item": {
          "reference": "urn:uuid:729be1be-585a-41d9-890b-4f230ea67619"
        }
      }, {
        "item": {
          "reference": "urn:uuid:7b8aa9c2-88e5-47a1-a46c-961f2e142626"
        }
      }, {
        "item": {
          "reference": "urn:uuid:2e84011b-1ea6-42d2-bdf7-4c91e96859d9"
        }
      }, {
        "item": {
          "reference": "urn:uuid:e37842d8-eed1-4be0-ac3f-bbf5fa0879c6"
        }
      }, {
        "item": {
          "reference": "urn:uuid:e7e1c2e9-abbc-4972-ab48-727c863b1fcd"
        }
      }, {
        "item": {
          "reference": "urn:uuid:32c7955c-09a6-4d1c-a5cc-3d0ecc989321"
        }
      }, {
        "item": {
          "reference": "urn:uuid:d9de36f4-8681-4cfd-8879-49884df9ddae"
        }
      }, {
        "item": {
          "reference": "urn:uuid:7381cebf-0822-4f36-b63e-aa4e6a264b06"
        }
      }, {
        "item": {
          "reference": "urn:uuid:c8c90fed-9979-4ec4-80e8-47a6352fdf11"
        }
      }, {
        "item": {
          "reference": "urn:uuid:f83ecacf-094a-4485-9e9a-10fc11b8166c"
        }
      }, {
        "item": {
          "reference": "urn:uuid:ca8e10aa-2bda-4ee3-97eb-acd6ab37acb6"
        }
      }, {
        "item": {
          "reference": "urn:uuid:77e6cffe-feab-4a17-aa7d-26710844821d"
        }
      }, {
        "item": {
          "reference": "urn:uuid:2ee24a86-a340-46e9-94ea-9e02839fdf8b"
        }
      }, {
        "item": {
          "reference": "urn:uuid:d7263574-d21f-4851-aac5-ea6ee7310782"
        }
      }, {
        "item": {
          "reference": "urn:uuid:6750c4e7-957d-4503-9c92-8bed9d7ac3de"
        }
      }, {
        "item": {
          "reference": "urn:uuid:3d1d66d0-28eb-49f1-b830-7914d3a49af6"
        }
      }, {
        "item": {
          "reference": "urn:uuid:3f104132-b85f-4526-a09b-ea055ec86feb"
        }
      }, {
        "item": {
          "reference": "urn:uuid:3a5a78ae-de36-420d-87af-9b253a47ed5f"
        }
      }, {
        "item": {
          "reference": "urn:uuid:da4de5f7-5b27-4c35-8419-d7e42cf466b2"
        }
      }, {
        "item": {
          "reference": "urn:uuid:3a4735c4-dd5f-4f00-abff-1ed2d8aa3c36"
        }
      }, {
        "item": {
          "reference": "urn:uuid:6d51e05e-47bd-4578-b471-fbeb179132ab"
        }
      }, {
        "item": {
          "reference": "urn:uuid:b1d3b64c-5e85-462f-acef-c5184cbf06e4"
        }
      }, {
        "item": {
          "reference": "urn:uuid:94ad1fd1-1a20-4e78-a831-ca8c1870bfed"
        }
      }, {
        "item": {
          "reference": "urn:uuid:a47596ab-ad87-4c33-a7ea-9f3878dc9f99"
        }
      }, {
        "item": {
          "reference": "urn:uuid:eb81a414-4b49-419d-9d69-b4068d1fb6ab"
        }
      }, {
        "item": {
          "reference": "urn:uuid:9e90b8d2-f41d-4d3d-a0ba-44c6bc18560d"
        }
      }, {
        "item": {
          "reference": "urn:uuid:fa3a0578-fefe-45c8-b300-fae57538dff1"
        }
      }, {
        "item": {
          "reference": "urn:uuid:451d6c26-cf53-4e02-942a-b9ff39f9308e"
        }
      }, {
        "item": {
          "reference": "urn:uuid:6086a773-2564-4b7c-9fe8-c5a446a931e3"
        }
      }, {
        "item": {
          "reference": "urn:uuid:87591fc1-cb76-4f51-8301-5124b2743c65"
        }
      }, {
        "item": {
          "reference": "urn:uuid:287c908a-d223-4716-aab7-aff83751b544"
        }
      } ]
    }
  } ]
}