{
  "resourceType": "Bundle",
  "meta": {
    "lastUpdated": "2022-05-12T06:46:15.519+00:00"
  },
  "identifier": {
    "type": {
      "text": "ClinicalDocument VersionNumber"
    },
    "value": "1"
  },
  "type": "message",
  "entry": [ {
    "fullUrl": "urn:uuid:7AEFFED7-78AF-4940-9EE2-5FAA3920ECFE",
    "resource": {
      "resourceType": "MessageHeader",
      "id": "7AEFFED7-78AF-4940-9EE2-5FAA3920ECFE",
      "event": {
        "system": "https://fhir.nhs.uk/STU3/CodeSystem/EventType-1",
        "code": "referral-1",
        "display": "Referral"
      },
      "destination": [ {
        "endpoint": "urn:nhs-uk:addressing:ods:RSHSO14A:DOSServiceID:2000006423"
      } ],
      "timestamp": "2021-04-06T11:33:35.000+00:00",
      "source": {
        "name": "NHS 111 Adaptor",
        "endpoint": "http://localhost:8080/report"
      },
      "reason": {
        "coding": [ {
          "system": "urn:nhs-itk:ns:201005:interaction",
          "code": "urn:nhs-itk:interaction:primaryEmergencyDepartmentRecipientNHS111CDADocument-v2-0"
        } ]
      }
    }
  }, {
    "fullUrl": "urn:uuid:eb255316-a4d1-4005-90b4-a8b3c3c34152",
    "resource": {
      "resourceType": "Encounter",
      "id": "eb255316-a4d1-4005-90b4-a8b3c3c34152",
      "identifier": [ {
        "system": "2.16.840.1.113883.2.1.3.2.4.18.34",
        "value": "029EE79C-BBD3-478A-93EE-979CB300212E"
      }, {
        "system": "2.16.840.1.113883.2.1.3.2.4.18.35",
        "value": "59132"
      }, {
        "system": "2.16.840.1.113883.2.1.3.2.4.18.49",
        "value": "029EE79C-BBD3-478A-93EE-979CB300212E"
      } ],
      "status": "finished",
      "type": [ {
        "text": "111 Encounter Referral"
      } ],
      "subject": {
        "reference": "urn:uuid:778cd5a6-2b88-4831-b529-29e22f304df8"
      },
      "participant": [ {
        "type": [ {
          "coding": [ {
            "system": "http://hl7.org/fhir/ValueSet/encounter-participant-type",
            "code": "PPRF",
            "display": "Author"
          } ]
        } ],
        "individual": {
          "reference": "urn:uuid:0819ee3e-2d77-47fb-b070-a3dc930ffe31"
        }
      }, {
        "type": [ {
          "coding": [ {
            "system": "http://hl7.org/fhir/ValueSet/encounter-participant-type",
            "code": "ATND",
            "display": "Responsible Party"
          } ]
        } ],
        "individual": {
          "reference": "urn:uuid:38f45052-c6de-4abc-9a68-245b95796499"
        }
      } ],
      "period": {
        "start": "2021-04-06T10:54:11+00:00",
        "end": "2021-04-06T11:33:27+00:00"
      },
      "location": [ {
        "location": {
          "reference": "urn:uuid:6c700baa-2d33-46f5-a6c6-e847a25c0da3"
        },
        "status": "active"
      }, {
        "location": {
          "reference": "urn:uuid:97f403b0-49c4-43b3-b731-c1cd015965d1"
        },
        "status": "completed"
      } ],
      "serviceProvider": {
        "reference": "urn:uuid:d4fe226f-8782-4f19-8967-320f3243e896"
      }
    }
  }, {
    "fullUrl": "urn:uuid:d4fe226f-8782-4f19-8967-320f3243e896",
    "resource": {
      "resourceType": "Organization",
      "id": "d4fe226f-8782-4f19-8967-320f3243e896",
      "active": true,
      "type": [ {
        "text": "CST"
      } ],
      "name": "SCAS111"
    }
  }, {
    "fullUrl": "urn:uuid:0819ee3e-2d77-47fb-b070-a3dc930ffe31",
    "resource": {
      "resourceType": "Practitioner",
      "id": "0819ee3e-2d77-47fb-b070-a3dc930ffe31",
      "active": true,
      "name": [ {
        "use": "official",
        "family": "McDonald",
        "given": [ "Denzle" ]
      } ]
    }
  }, {
    "fullUrl": "urn:uuid:38f45052-c6de-4abc-9a68-245b95796499",
    "resource": {
      "resourceType": "Practitioner",
      "id": "38f45052-c6de-4abc-9a68-245b95796499",
      "active": true,
      "name": [ {
        "use": "official",
        "family": "Black",
        "given": [ "John" ]
      } ]
    }
  }, {
    "fullUrl": "urn:uuid:6c700baa-2d33-46f5-a6c6-e847a25c0da3",
    "resource": {
      "resourceType": "Location",
      "id": "6c700baa-2d33-46f5-a6c6-e847a25c0da3",
      "managingOrganization": {
        "reference": "urn:uuid:3dff46d6-00f1-42e7-a17f-478a014e490a"
      }
    }
  }, {
    "fullUrl": "urn:uuid:3dff46d6-00f1-42e7-a17f-478a014e490a",
    "resource": {
      "resourceType": "Organization",
      "id": "3dff46d6-00f1-42e7-a17f-478a014e490a",
      "identifier": [ {
        "value": "J82633"
      } ],
      "type": [ {
        "text": "GP Practice"
      } ],
      "name": "The Riverside Partnership ( Riverside Kelsey)",
      "telecom": [ {
        "system": "phone",
        "value": "tel:01730892412",
        "use": "work"
      } ],
      "address": [ {
        "use": "work",
        "line": [ "Riverside Kelsey Surgery", "75 Station Road", "Liss", "Hampshire" ],
        "postalCode": "GU33 7AD"
      } ]
    }
  }, {
    "fullUrl": "urn:uuid:97f403b0-49c4-43b3-b731-c1cd015965d1",
    "resource": {
      "resourceType": "Location",
      "id": "97f403b0-49c4-43b3-b731-c1cd015965d1",
      "name": "Incident Location",
      "address": {
        "type": "physical",
        "line": [ "Hampshire Partnership NHS Trust", "Tatchbury Mount Hospital Horseshoe Drive", "Calmore", "Southampton", "Hampshire" ],
        "postalCode": "SO40 2RZ"
      }
    }
  }, {
    "fullUrl": "urn:uuid:778cd5a6-2b88-4831-b529-29e22f304df8",
    "resource": {
      "resourceType": "Patient",
      "id": "778cd5a6-2b88-4831-b529-29e22f304df8",
      "identifier": [ {
        "extension": [ {
          "url": "https://fhir.hl7.org.uk/STU3/StructureDefinition/Extension-CareConnect-NHSNumberVerificationStatus-1",
          "valueCodeableConcept": {
            "coding": [ {
              "system": "https://fhir.hl7.org.uk/STU3/StructureDefinition/Extension-CareConnect-NHSNumberVerificationStatus-1",
              "code": "01"
            } ]
          }
        } ],
        "system": "https://fhir.nhs.uk/Id/nhs-number",
        "value": "9990004951"
      } ],
      "active": true,
      "name": [ {
        "use": "official",
        "family": "Xxtestpatientdfae",
        "given": [ "Btl-Donotuse" ]
      } ],
      "telecom": [ {
        "system": "phone",
        "value": "tel:07948625625",
        "use": "home"
      }, {
        "system": "phone",
        "value": "tel:07948625625"
      } ],
      "gender": "female",
      "birthDate": "2015-04-01",
      "address": [ {
        "use": "home",
        "line": [ "Hampshire Partnership NHS Trust", "Tatchbury Mount Hospital Horseshoe Drive", "Calmore", "Southampton", "Hampshire" ],
        "postalCode": "SO40 2RZ"
      } ],
      "generalPractitioner": [ {
        "reference": "urn:uuid:3a618cdc-1483-46fa-ad58-7bc6dfd02400"
      } ]
    }
  }, {
    "fullUrl": "urn:uuid:3a618cdc-1483-46fa-ad58-7bc6dfd02400",
    "resource": {
      "resourceType": "Organization",
      "id": "3a618cdc-1483-46fa-ad58-7bc6dfd02400",
      "identifier": [ {
        "value": "J82633"
      } ],
      "type": [ {
        "text": "GP Practice"
      } ],
      "name": "The Riverside Partnership ( Riverside Kelsey)",
      "telecom": [ {
        "system": "phone",
        "value": "tel:01730892412",
        "use": "work"
      } ],
      "address": [ {
        "use": "work",
        "line": [ "Riverside Kelsey Surgery", "75 Station Road", "Liss", "Hampshire" ],
        "postalCode": "GU33 7AD"
      } ]
    }
  }, {
    "fullUrl": "urn:uuid:dbf85944-695c-4faa-8a37-6db2287f4040",
    "resource": {
      "resourceType": "HealthcareService",
      "id": "dbf85944-695c-4faa-8a37-6db2287f4040",
      "active": true,
      "providedBy": {
        "reference": "urn:uuid:925f29e3-1922-4d46-af11-e9b2748b1157"
      },
      "location": [ {
        "reference": "urn:uuid:ecbdc611-7818-4ec3-834f-8dd43f68b72e"
      } ],
      "name": "Urgent Treatment Centre (GP led), Royal South Hants Hospital"
    }
  }, {
    "fullUrl": "urn:uuid:ecbdc611-7818-4ec3-834f-8dd43f68b72e",
    "resource": {
      "resourceType": "Location",
      "id": "ecbdc611-7818-4ec3-834f-8dd43f68b72e",
      "managingOrganization": {
        "reference": "urn:uuid:925f29e3-1922-4d46-af11-e9b2748b1157"
      }
    }
  }, {
    "fullUrl": "urn:uuid:925f29e3-1922-4d46-af11-e9b2748b1157",
    "resource": {
      "resourceType": "Organization",
      "id": "925f29e3-1922-4d46-af11-e9b2748b1157",
      "identifier": [ {
        "value": "RSHSO14A"
      } ],
      "type": [ {
        "coding": [ {
          "code": "PRCP",
          "display": "Urgent Treatment Centre (GP led), Royal South Hants Hospital"
        } ]
      } ],
      "name": "Urgent Treatment Centre (GP led), Royal South Hants Hospital"
    }
  }, {
    "fullUrl": "urn:uuid:ed4d75cf-7916-4f00-865f-be1ed5ba1b01",
    "resource": {
      "resourceType": "ReferralRequest",
      "id": "ed4d75cf-7916-4f00-865f-be1ed5ba1b01",
      "status": "active",
      "intent": "plan",
      "priority": "routine",
      "subject": {
        "reference": "urn:uuid:778cd5a6-2b88-4831-b529-29e22f304df8"
      },
      "context": {
        "reference": "urn:uuid:eb255316-a4d1-4005-90b4-a8b3c3c34152"
      },
      "occurrencePeriod": {
        "start": "2021-04-06T11:33:35+00:00"
      },
      "authoredOn": "2021-04-06T11:33:27+00:00",
      "requester": {
        "agent": {
          "reference": "urn:uuid:fa6ceea6-f2e3-46d2-86ba-d6b9e53c818d"
        },
        "onBehalfOf": {
          "reference": "urn:uuid:d4fe226f-8782-4f19-8967-320f3243e896"
        }
      },
      "recipient": [ {
        "reference": "urn:uuid:dbf85944-695c-4faa-8a37-6db2287f4040"
      } ],
      "reasonReference": [ {
        "reference": "urn:uuid:0227e499-7b66-4fab-bb73-5be150328f9c"
      } ],
      "supportingInfo": [ {
        "reference": "urn:uuid:a95c7072-81ee-4daf-a306-de97b41ca72b"
      } ]
    }
  }, {
    "fullUrl": "urn:uuid:a95c7072-81ee-4daf-a306-de97b41ca72b",
    "resource": {
      "resourceType": "ProcedureRequest",
      "id": "a95c7072-81ee-4daf-a306-de97b41ca72b",
      "status": "active",
      "intent": "plan",
      "priority": "routine",
      "doNotPerform": false,
      "code": {
        "coding": [ {
          "system": "2.16.840.1.113883.2.1.3.2.4.17.325",
          "code": "Dx06",
          "display": "To contact a local service within 6 hours"
        } ]
      },
      "subject": {
        "reference": "urn:uuid:778cd5a6-2b88-4831-b529-29e22f304df8"
      },
      "occurrencePeriod": {
        "start": "2021-04-06T11:33:35+00:00"
      },
      "reasonReference": [ {
        "reference": "urn:uuid:0227e499-7b66-4fab-bb73-5be150328f9c"
      } ]
    }
  }, {
    "fullUrl": "urn:uuid:9a41994e-2f3b-4a6f-97af-f2293895b9c9",
    "resource": {
      "resourceType": "Composition",
      "id": "9a41994e-2f3b-4a6f-97af-f2293895b9c9",
      "identifier": {
        "use": "usual",
        "value": "A8E3FB32-6805-4191-B071-EA540A9318CD"
      },
      "status": "final",
      "type": {
        "coding": [ {
          "system": "http://snomed.info/sct",
          "code": "371531000",
          "display": "Report of clinical encounter (record artifact)"
        } ]
      },
      "subject": {
        "reference": "urn:uuid:778cd5a6-2b88-4831-b529-29e22f304df8"
      },
      "encounter": {
        "reference": "urn:uuid:eb255316-a4d1-4005-90b4-a8b3c3c34152"
      },
      "date": "2021-04-06T11:33:35+00:00",
      "author": [ {
        "reference": "urn:uuid:0819ee3e-2d77-47fb-b070-a3dc930ffe31"
      } ],
      "title": "111 Report",
      "confidentiality": "N",
      "section": [ {
        "section": [ {
          "title": "Patient's Reported Condition",
          "text": {
            "status": "generated",
            "div": "<div xmlns=\"http://www.w3.org/1999/xhtml\">&lt;content&gt;Pharmacy ITK Testing&lt;/content&gt;\n                                                    &lt;br/&gt;</div>"
          }
        }, {
          "title": "Pathways Disposition",
          "text": {
            "status": "generated",
            "div": "<div xmlns=\"http://www.w3.org/1999/xhtml\">To contact a local service within 6 hours (Dx06)                                         &lt;br/&gt;\n                                                    &lt;br/&gt;                                         Selected service: Urgent Treatment Centre (GP led), Royal South Hant&lt;br/&gt;</div>"
          }
        }, {
          "title": "Consultation Summary",
          "text": {
            "status": "generated",
            "div": "<div xmlns=\"http://www.w3.org/1999/xhtml\">Illness&lt;br/&gt;Warm to touch&lt;br/&gt;Nausea without vomiting&lt;br/&gt;Abdominal pain also present&lt;br/&gt;Moderately severe pain&lt;br/&gt;Flank pain&lt;br/&gt;Fever at time of assessment or in last 12 hours&lt;br/&gt;</div>"
          }
        }, {
          "title": "Pathways Assessment",
          "text": {
            "status": "generated",
            "div": "<div xmlns=\"http://www.w3.org/1999/xhtml\">An injury or health problem was the reason for the contact.&lt;br/&gt;Heavy bleeding had not occurred in the previous 30 minutes.&lt;br/&gt;An illness or health problem was the main problem.&lt;br/&gt;User Comments: Pharmacy ITK Testing&lt;br/&gt;The individual was not fighting for breath.&lt;br/&gt;The main reason for the contact was not an allergic reaction, chest/upper back pain, recent fit/seizure, suicide attempt, new confusion or suspected stroke.&lt;br/&gt;The main reason for contact was not declared diabetic hypo/hyperglycaemia or ICD shock.&lt;br/&gt;The skin on the torso felt normal, warm or hot.&lt;br/&gt;Pathway selected - Vomiting and/or Nausea&lt;br/&gt;The individual had not vomited.&lt;br/&gt;The individual did not also have diarrhoea.&lt;br/&gt;The symptoms did not follow drinking alcohol.&lt;br/&gt;Abdominal pain was also present.&lt;br/&gt;The pain interfered with normal activity.&lt;br/&gt;The individual was able to carry out most or all normal activities.&lt;br/&gt;The individual had not ingested a harmful or toxic substance.&lt;br/&gt;There had been no black and tarry or red/maroon bowel motions.&lt;br/&gt;There was no new or worsening confusion.&lt;br/&gt;Breathing harder or faster when doing nothing was not described.&lt;br/&gt;There was no new shoulder tip pain or pain in the lower right abdomen.&lt;br/&gt;The individual had not been in constant pain for 4 hours or more.&lt;br/&gt;There was no previous history of diabetes.&lt;br/&gt;There was flank pain.&lt;br/&gt;There was a fever at the time of assessment or within the previous 12 hours.&lt;br/&gt;There was no new, widespread, red rash.&lt;br/&gt;Instructions given were: The individual needs to contact a local service within 6 hours.&lt;br/&gt;Directory of Services referral: Urgent Treatment Centre (GP led), Royal South Hants Hospital&lt;br/&gt;</div>"
          }
        }, {
          "title": "Advice Given",
          "text": {
            "status": "generated",
            "div": "<div xmlns=\"http://www.w3.org/1999/xhtml\">I will arrange for a clinician to contact the individual. I need to ask some further questions in order to determine the best way to do this.&lt;br/&gt;If there are any new symptoms, or if the condition gets worse, changes or you have any other concerns, call us back.&lt;br/&gt;\n                                                    &lt;br/&gt;</div>"
          }
        }, {
          "title": "Information And Advice Given"
        }, {
          "title": "Disposition",
          "text": {
            "status": "generated",
            "div": "<div xmlns=\"http://www.w3.org/1999/xhtml\">&lt;content&gt;To contact a local service within 6 hours&lt;br/&gt;\n                                                    &lt;/content&gt;\n                                                    &lt;br/&gt;\n                                                    &lt;br/&gt;</div>"
          }
        } ]
      }, {
        "title": "CarePlan",
        "entry": [ {
          "reference": "urn:uuid:31a93ab6-c5d0-4fa7-872b-764a34b14b11"
        } ]
      }, {
        "title": "ReferralRequest",
        "entry": [ {
          "reference": "urn:uuid:ed4d75cf-7916-4f00-865f-be1ed5ba1b01"
        } ]
      }, {
        "title": "QuestionnaireResponse",
        "entry": [ {
          "reference": "urn:uuid:a6541b72-25f5-4525-9e9e-790482617e09"
        } ]
      }, {
        "title": "QuestionnaireResponse",
        "entry": [ {
          "reference": "urn:uuid:8b5c377f-6d3f-4126-9862-791df57ff6ff"
        } ]
      }, {
        "title": "QuestionnaireResponse",
        "entry": [ {
          "reference": "urn:uuid:67d606bd-eb80-4483-a5e0-c1e4681e4303"
        } ]
      }, {
        "title": "QuestionnaireResponse",
        "entry": [ {
          "reference": "urn:uuid:0dc8878b-0cc4-4bd8-8c44-dd2ceb30e7ff"
        } ]
      }, {
        "title": "QuestionnaireResponse",
        "entry": [ {
          "reference": "urn:uuid:9fdf274c-f789-4329-9fb1-0677a580d663"
        } ]
      }, {
        "title": "QuestionnaireResponse",
        "entry": [ {
          "reference": "urn:uuid:d8c0cdde-c2a2-4ea0-903e-b2a1c4d34b8f"
        } ]
      }, {
        "title": "QuestionnaireResponse",
        "entry": [ {
          "reference": "urn:uuid:6ab3786b-e933-4a41-bf86-0e0310132000"
        } ]
      }, {
        "title": "QuestionnaireResponse",
        "entry": [ {
          "reference": "urn:uuid:46aab74f-93ad-4966-9b50-205e40c6beee"
        } ]
      }, {
        "title": "QuestionnaireResponse",
        "entry": [ {
          "reference": "urn:uuid:06605266-07b7-4d64-9c3e-0402339dc7ca"
        } ]
      }, {
        "title": "QuestionnaireResponse",
        "entry": [ {
          "reference": "urn:uuid:aa7632b3-4cc3-481a-ab3d-e84388a772bf"
        } ]
      }, {
        "title": "QuestionnaireResponse",
        "entry": [ {
          "reference": "urn:uuid:c268f26e-fd7d-467b-be51-e4e24f8bc845"
        } ]
      }, {
        "title": "QuestionnaireResponse",
        "entry": [ {
          "reference": "urn:uuid:ebd51f28-a1c9-42fb-b6e9-d77af8a3feb5"
        } ]
      }, {
        "title": "QuestionnaireResponse",
        "entry": [ {
          "reference": "urn:uuid:fc6494d7-07d9-4a45-a1e4-92ad34cdf95f"
        } ]
      }, {
        "title": "QuestionnaireResponse",
        "entry": [ {
          "reference": "urn:uuid:8ada8f4e-f87f-4e48-b0fa-4270ca8894d4"
        } ]
      }, {
        "title": "QuestionnaireResponse",
        "entry": [ {
          "reference": "urn:uuid:9ed841d8-e57b-4386-b3cb-0e4ddeadf3f3"
        } ]
      }, {
        "title": "QuestionnaireResponse",
        "entry": [ {
          "reference": "urn:uuid:d7bf58cd-d435-40f2-85ef-61a4d56a6758"
        } ]
      }, {
        "title": "QuestionnaireResponse",
        "entry": [ {
          "reference": "urn:uuid:cd8364b5-4861-4e70-b8ff-da4c874bd524"
        } ]
      }, {
        "title": "QuestionnaireResponse",
        "entry": [ {
          "reference": "urn:uuid:ecf74bbc-b0a8-462e-8586-35087296d355"
        } ]
      }, {
        "title": "QuestionnaireResponse",
        "entry": [ {
          "reference": "urn:uuid:bfaf50a0-5e5e-48a4-a92f-ae939f0a4979"
        } ]
      }, {
        "title": "QuestionnaireResponse",
        "entry": [ {
          "reference": "urn:uuid:f740d231-61c1-4390-96ca-9592e95a23fd"
        } ]
      }, {
        "title": "QuestionnaireResponse",
        "entry": [ {
          "reference": "urn:uuid:b806133b-a9c5-4896-add2-751d426998e2"
        } ]
      }, {
        "title": "QuestionnaireResponse",
        "entry": [ {
          "reference": "urn:uuid:0a315664-797b-48c6-8acc-435381283ad7"
        } ]
      }, {
        "title": "QuestionnaireResponse",
        "entry": [ {
          "reference": "urn:uuid:26e72631-8546-4437-a301-c63c9e0371f0"
        } ]
      }, {
        "title": "QuestionnaireResponse",
        "entry": [ {
          "reference": "urn:uuid:95360258-e8d4-4bd1-b794-22831ff25286"
        } ]
      }, {
        "title": "QuestionnaireResponse",
        "entry": [ {
          "reference": "urn:uuid:a504dcb4-de3d-449e-86c3-603d40dfcaea"
        } ]
      }, {
        "title": "QuestionnaireResponse",
        "entry": [ {
          "reference": "urn:uuid:e1a1e462-6695-4a77-a040-54c36f4e89c9"
        } ]
      }, {
        "title": "QuestionnaireResponse",
        "entry": [ {
          "reference": "urn:uuid:29971311-53bc-4e66-91a4-478fdf07dff8"
        } ]
      }, {
        "title": "QuestionnaireResponse",
        "entry": [ {
          "reference": "urn:uuid:00002bb9-c1fa-4b74-b64e-43362bae60b5"
        } ]
      }, {
        "title": "QuestionnaireResponse",
        "entry": [ {
          "reference": "urn:uuid:af6b3ff6-4b81-41f5-8fae-13766f6e5328"
        } ]
      }, {
        "title": "QuestionnaireResponse",
        "entry": [ {
          "reference": "urn:uuid:e11aa623-4e40-4b54-a3cd-902b760b2a3c"
        } ]
      }, {
        "title": "QuestionnaireResponse",
        "entry": [ {
          "reference": "urn:uuid:cdcb3165-43d6-496c-8fa5-2375a94fa67f"
        } ]
      }, {
        "title": "QuestionnaireResponse",
        "entry": [ {
          "reference": "urn:uuid:88598d07-a211-41ba-b497-3a487d5821a1"
        } ]
      }, {
        "title": "QuestionnaireResponse",
        "entry": [ {
          "reference": "urn:uuid:f9d2a094-a7fa-4456-86ee-ddc1286d0c47"
        } ]
      }, {
        "title": "QuestionnaireResponse",
        "entry": [ {
          "reference": "urn:uuid:bd2d9d99-7e40-45b2-851d-af579c4baca2"
        } ]
      }, {
        "title": "QuestionnaireResponse",
        "entry": [ {
          "reference": "urn:uuid:6e8100e2-1f9e-41cf-8b29-a9f3b29171ec"
        } ]
      }, {
        "title": "QuestionnaireResponse",
        "entry": [ {
          "reference": "urn:uuid:ea5bd0f8-07c8-4040-99b0-ead8c44e4267"
        } ]
      }, {
        "title": "QuestionnaireResponse",
        "entry": [ {
          "reference": "urn:uuid:4fc11606-4d95-41a1-b541-26fbea455641"
        } ]
      }, {
        "title": "QuestionnaireResponse",
        "entry": [ {
          "reference": "urn:uuid:77179795-4c3a-495a-a344-20a828fef156"
        } ]
      }, {
        "title": "QuestionnaireResponse",
        "entry": [ {
          "reference": "urn:uuid:d274b582-6e56-4470-9565-2ab9e7b8b7ac"
        } ]
      }, {
        "title": "QuestionnaireResponse",
        "entry": [ {
          "reference": "urn:uuid:71c19416-31a6-41d1-9e19-4a6572bee0c6"
        } ]
      }, {
        "title": "QuestionnaireResponse",
        "entry": [ {
          "reference": "urn:uuid:621c7f73-6175-4fb8-995c-c260be1bcdd8"
        } ]
      }, {
        "title": "QuestionnaireResponse",
        "entry": [ {
          "reference": "urn:uuid:d2d280b3-ef76-406e-b6d1-88fa9682bbdd"
        } ]
      }, {
        "title": "QuestionnaireResponse",
        "entry": [ {
          "reference": "urn:uuid:bca6f69c-fe8f-465d-aaca-5ed7577056c5"
        } ]
      }, {
        "title": "QuestionnaireResponse",
        "entry": [ {
          "reference": "urn:uuid:2d30c05a-9b11-4325-b858-a743e7880fe8"
        } ]
      }, {
        "title": "QuestionnaireResponse",
        "entry": [ {
          "reference": "urn:uuid:cc5d79cd-b0ce-4691-aeb8-01b2a559f135"
        } ]
      }, {
        "title": "QuestionnaireResponse",
        "entry": [ {
          "reference": "urn:uuid:7272e5a2-7873-4161-9958-4a32b0bef71a"
        } ]
      }, {
        "title": "QuestionnaireResponse",
        "entry": [ {
          "reference": "urn:uuid:071488f6-aedd-4d0d-85a3-a629c094277f"
        } ]
      }, {
        "title": "QuestionnaireResponse",
        "entry": [ {
          "reference": "urn:uuid:b32ec978-24cd-4b76-a4be-a3cb54635a01"
        } ]
      }, {
        "title": "QuestionnaireResponse",
        "entry": [ {
          "reference": "urn:uuid:6164b4d8-1aff-4907-a6d6-e4c172e33ad6"
        } ]
      }, {
        "title": "QuestionnaireResponse",
        "entry": [ {
          "reference": "urn:uuid:23576166-0948-4793-9ec0-00cf594bd176"
        } ]
      }, {
        "title": "QuestionnaireResponse",
        "entry": [ {
          "reference": "urn:uuid:ad761e38-2b03-4aaa-a8c0-23f3c8701bfa"
        } ]
      }, {
        "title": "QuestionnaireResponse",
        "entry": [ {
          "reference": "urn:uuid:e1e5e12a-90c8-4d36-bfc0-eb5866778bb3"
        } ]
      }, {
        "title": "QuestionnaireResponse",
        "entry": [ {
          "reference": "urn:uuid:32501355-e2d0-4f77-ae50-9d106d894137"
        } ]
      }, {
        "title": "QuestionnaireResponse",
        "entry": [ {
          "reference": "urn:uuid:f10939b4-52b5-46c0-ad6d-4676b6585f4c"
        } ]
      }, {
        "title": "QuestionnaireResponse",
        "entry": [ {
          "reference": "urn:uuid:90974843-409c-45c4-aca2-76e9364e80df"
        } ]
      }, {
        "title": "QuestionnaireResponse",
        "entry": [ {
          "reference": "urn:uuid:a6733483-0e36-4c9b-ba5e-1ae96ca89109"
        } ]
      }, {
        "title": "QuestionnaireResponse",
        "entry": [ {
          "reference": "urn:uuid:70ba10b2-bf7b-4780-8a9c-e9cc7eb05281"
        } ]
      }, {
        "title": "QuestionnaireResponse",
        "entry": [ {
          "reference": "urn:uuid:6e7a6bb2-e6ab-4542-96ea-5170b5f7e02d"
        } ]
      }, {
        "title": "QuestionnaireResponse",
        "entry": [ {
          "reference": "urn:uuid:9877f22e-be18-4ed6-b8a0-7d5c1e0d669f"
        } ]
      }, {
        "title": "QuestionnaireResponse",
        "entry": [ {
          "reference": "urn:uuid:0aa13525-17b8-494a-aa3c-de44863791c0"
        } ]
      }, {
        "title": "QuestionnaireResponse",
        "entry": [ {
          "reference": "urn:uuid:42dc999e-362c-4bfc-9a56-4283aae96834"
        } ]
      }, {
        "title": "QuestionnaireResponse",
        "entry": [ {
          "reference": "urn:uuid:d7a7e39b-0463-40f7-a369-f7136a7375bc"
        } ]
      }, {
        "title": "QuestionnaireResponse",
        "entry": [ {
          "reference": "urn:uuid:08f9b8a0-32b2-40a7-ab1e-8554e51f8e36"
        } ]
      }, {
        "title": "QuestionnaireResponse",
        "entry": [ {
          "reference": "urn:uuid:c018dbc4-4636-4e79-a091-7f94e4733ffe"
        } ]
      }, {
        "title": "QuestionnaireResponse",
        "entry": [ {
          "reference": "urn:uuid:4cb32a1e-04b8-44a5-bf17-cf251e0caed8"
        } ]
      }, {
        "title": "QuestionnaireResponse",
        "entry": [ {
          "reference": "urn:uuid:06f6da35-e3f0-4e1f-b04c-db131cf83b1a"
        } ]
      }, {
        "title": "QuestionnaireResponse",
        "entry": [ {
          "reference": "urn:uuid:31798b69-bddd-4ba6-a8d2-e3fc15301275"
        } ]
      }, {
        "title": "QuestionnaireResponse",
        "entry": [ {
          "reference": "urn:uuid:03a67b19-2004-408a-972c-634073c4192f"
        } ]
      }, {
        "title": "QuestionnaireResponse",
        "entry": [ {
          "reference": "urn:uuid:b5f1c290-9a12-4820-b465-5bf8f6099744"
        } ]
      }, {
        "title": "QuestionnaireResponse",
        "entry": [ {
          "reference": "urn:uuid:e86220b9-c0a8-41ff-82be-cf7eecf6988b"
        } ]
      }, {
        "title": "QuestionnaireResponse",
        "entry": [ {
          "reference": "urn:uuid:be028c86-be17-4888-bf5c-690df20f4451"
        } ]
      }, {
        "title": "QuestionnaireResponse",
        "entry": [ {
          "reference": "urn:uuid:30d46e3a-c2cd-47db-a8a2-6661f99c7c72"
        } ]
      }, {
        "title": "QuestionnaireResponse",
        "entry": [ {
          "reference": "urn:uuid:0a636973-72ac-44c7-a229-cc0301861755"
        } ]
      } ]
    }
  }, {
    "fullUrl": "urn:uuid:31a93ab6-c5d0-4fa7-872b-764a34b14b11",
    "resource": {
      "resourceType": "CarePlan",
      "id": "31a93ab6-c5d0-4fa7-872b-764a34b14b11",
      "status": "completed",
      "intent": "plan",
      "title": "Information And Advice Given",
      "subject": {
        "reference": "urn:uuid:778cd5a6-2b88-4831-b529-29e22f304df8"
      },
      "context": {
        "reference": "urn:uuid:eb255316-a4d1-4005-90b4-a8b3c3c34152"
      },
      "period": {
        "start": "2021-04-06T10:54:11+00:00",
        "end": "2021-04-06T11:33:27+00:00"
      },
      "author": [ {
        "reference": "urn:uuid:3dff46d6-00f1-42e7-a17f-478a014e490a"
      } ],
      "addresses": [ {
        "reference": "urn:uuid:0227e499-7b66-4fab-bb73-5be150328f9c"
      } ]
    }
  }, {
    "fullUrl": "urn:uuid:02f094d3-8d7c-4c51-8a00-5f004e089c48",
    "resource": {
      "resourceType": "Consent",
      "id": "02f094d3-8d7c-4c51-8a00-5f004e089c48",
      "identifier": {
        "use": "usual",
        "value": "A8E3FB32-6805-4191-B071-EA540A9318CD"
      },
      "status": "active",
      "patient": {
        "reference": "urn:uuid:778cd5a6-2b88-4831-b529-29e22f304df8"
      },
      "period": {
        "start": "2021-04-06T10:54:11+00:00",
        "end": "2021-04-06T11:33:27+00:00"
      },
      "consentingParty": [ {
        "reference": "urn:uuid:778cd5a6-2b88-4831-b529-29e22f304df8"
      } ],
      "action": [ {
        "coding": [ {
          "system": "http://snomed.info/sct",
          "code": "425691002",
          "display": "Consent given for electronic record sharing"
        } ],
        "text": "Consent given for electronic record sharing"
      } ],
      "organization": [ {
        "reference": "urn:uuid:d4fe226f-8782-4f19-8967-320f3243e896"
      } ],
      "policyRule": "http://hl7.org/fhir/ConsentPolicy/opt-out",
      "data": [ {
        "meaning": "related",
        "reference": {
          "reference": "urn:uuid:eb255316-a4d1-4005-90b4-a8b3c3c34152"
        }
      } ]
    }
  }, {
    "fullUrl": "urn:uuid:0227e499-7b66-4fab-bb73-5be150328f9c",
    "resource": {
      "resourceType": "Condition",
      "id": "0227e499-7b66-4fab-bb73-5be150328f9c",
      "clinicalStatus": "active",
      "verificationStatus": "unknown",
      "subject": {
        "reference": "urn:uuid:778cd5a6-2b88-4831-b529-29e22f304df8"
      },
      "context": {
        "reference": "urn:uuid:eb255316-a4d1-4005-90b4-a8b3c3c34152"
      },
      "evidence": [ {
        "detail": [ {
          "reference": "urn:uuid:a6541b72-25f5-4525-9e9e-790482617e09"
        } ]
      }, {
        "detail": [ {
          "reference": "urn:uuid:8b5c377f-6d3f-4126-9862-791df57ff6ff"
        } ]
      }, {
        "detail": [ {
          "reference": "urn:uuid:67d606bd-eb80-4483-a5e0-c1e4681e4303"
        } ]
      }, {
        "detail": [ {
          "reference": "urn:uuid:0dc8878b-0cc4-4bd8-8c44-dd2ceb30e7ff"
        } ]
      }, {
        "detail": [ {
          "reference": "urn:uuid:9fdf274c-f789-4329-9fb1-0677a580d663"
        } ]
      }, {
        "detail": [ {
          "reference": "urn:uuid:d8c0cdde-c2a2-4ea0-903e-b2a1c4d34b8f"
        } ]
      }, {
        "detail": [ {
          "reference": "urn:uuid:6ab3786b-e933-4a41-bf86-0e0310132000"
        } ]
      }, {
        "detail": [ {
          "reference": "urn:uuid:46aab74f-93ad-4966-9b50-205e40c6beee"
        } ]
      }, {
        "detail": [ {
          "reference": "urn:uuid:06605266-07b7-4d64-9c3e-0402339dc7ca"
        } ]
      }, {
        "detail": [ {
          "reference": "urn:uuid:aa7632b3-4cc3-481a-ab3d-e84388a772bf"
        } ]
      }, {
        "detail": [ {
          "reference": "urn:uuid:c268f26e-fd7d-467b-be51-e4e24f8bc845"
        } ]
      }, {
        "detail": [ {
          "reference": "urn:uuid:ebd51f28-a1c9-42fb-b6e9-d77af8a3feb5"
        } ]
      }, {
        "detail": [ {
          "reference": "urn:uuid:fc6494d7-07d9-4a45-a1e4-92ad34cdf95f"
        } ]
      }, {
        "detail": [ {
          "reference": "urn:uuid:8ada8f4e-f87f-4e48-b0fa-4270ca8894d4"
        } ]
      }, {
        "detail": [ {
          "reference": "urn:uuid:9ed841d8-e57b-4386-b3cb-0e4ddeadf3f3"
        } ]
      }, {
        "detail": [ {
          "reference": "urn:uuid:d7bf58cd-d435-40f2-85ef-61a4d56a6758"
        } ]
      }, {
        "detail": [ {
          "reference": "urn:uuid:cd8364b5-4861-4e70-b8ff-da4c874bd524"
        } ]
      }, {
        "detail": [ {
          "reference": "urn:uuid:ecf74bbc-b0a8-462e-8586-35087296d355"
        } ]
      }, {
        "detail": [ {
          "reference": "urn:uuid:bfaf50a0-5e5e-48a4-a92f-ae939f0a4979"
        } ]
      }, {
        "detail": [ {
          "reference": "urn:uuid:f740d231-61c1-4390-96ca-9592e95a23fd"
        } ]
      }, {
        "detail": [ {
          "reference": "urn:uuid:b806133b-a9c5-4896-add2-751d426998e2"
        } ]
      }, {
        "detail": [ {
          "reference": "urn:uuid:0a315664-797b-48c6-8acc-435381283ad7"
        } ]
      }, {
        "detail": [ {
          "reference": "urn:uuid:26e72631-8546-4437-a301-c63c9e0371f0"
        } ]
      }, {
        "detail": [ {
          "reference": "urn:uuid:95360258-e8d4-4bd1-b794-22831ff25286"
        } ]
      }, {
        "detail": [ {
          "reference": "urn:uuid:a504dcb4-de3d-449e-86c3-603d40dfcaea"
        } ]
      }, {
        "detail": [ {
          "reference": "urn:uuid:e1a1e462-6695-4a77-a040-54c36f4e89c9"
        } ]
      }, {
        "detail": [ {
          "reference": "urn:uuid:29971311-53bc-4e66-91a4-478fdf07dff8"
        } ]
      }, {
        "detail": [ {
          "reference": "urn:uuid:00002bb9-c1fa-4b74-b64e-43362bae60b5"
        } ]
      }, {
        "detail": [ {
          "reference": "urn:uuid:af6b3ff6-4b81-41f5-8fae-13766f6e5328"
        } ]
      }, {
        "detail": [ {
          "reference": "urn:uuid:e11aa623-4e40-4b54-a3cd-902b760b2a3c"
        } ]
      }, {
        "detail": [ {
          "reference": "urn:uuid:cdcb3165-43d6-496c-8fa5-2375a94fa67f"
        } ]
      }, {
        "detail": [ {
          "reference": "urn:uuid:88598d07-a211-41ba-b497-3a487d5821a1"
        } ]
      }, {
        "detail": [ {
          "reference": "urn:uuid:f9d2a094-a7fa-4456-86ee-ddc1286d0c47"
        } ]
      }, {
        "detail": [ {
          "reference": "urn:uuid:bd2d9d99-7e40-45b2-851d-af579c4baca2"
        } ]
      }, {
        "detail": [ {
          "reference": "urn:uuid:6e8100e2-1f9e-41cf-8b29-a9f3b29171ec"
        } ]
      }, {
        "detail": [ {
          "reference": "urn:uuid:ea5bd0f8-07c8-4040-99b0-ead8c44e4267"
        } ]
      }, {
        "detail": [ {
          "reference": "urn:uuid:4fc11606-4d95-41a1-b541-26fbea455641"
        } ]
      }, {
        "detail": [ {
          "reference": "urn:uuid:77179795-4c3a-495a-a344-20a828fef156"
        } ]
      }, {
        "detail": [ {
          "reference": "urn:uuid:d274b582-6e56-4470-9565-2ab9e7b8b7ac"
        } ]
      }, {
        "detail": [ {
          "reference": "urn:uuid:71c19416-31a6-41d1-9e19-4a6572bee0c6"
        } ]
      }, {
        "detail": [ {
          "reference": "urn:uuid:621c7f73-6175-4fb8-995c-c260be1bcdd8"
        } ]
      }, {
        "detail": [ {
          "reference": "urn:uuid:d2d280b3-ef76-406e-b6d1-88fa9682bbdd"
        } ]
      }, {
        "detail": [ {
          "reference": "urn:uuid:bca6f69c-fe8f-465d-aaca-5ed7577056c5"
        } ]
      }, {
        "detail": [ {
          "reference": "urn:uuid:2d30c05a-9b11-4325-b858-a743e7880fe8"
        } ]
      }, {
        "detail": [ {
          "reference": "urn:uuid:cc5d79cd-b0ce-4691-aeb8-01b2a559f135"
        } ]
      }, {
        "detail": [ {
          "reference": "urn:uuid:7272e5a2-7873-4161-9958-4a32b0bef71a"
        } ]
      }, {
        "detail": [ {
          "reference": "urn:uuid:071488f6-aedd-4d0d-85a3-a629c094277f"
        } ]
      }, {
        "detail": [ {
          "reference": "urn:uuid:b32ec978-24cd-4b76-a4be-a3cb54635a01"
        } ]
      }, {
        "detail": [ {
          "reference": "urn:uuid:6164b4d8-1aff-4907-a6d6-e4c172e33ad6"
        } ]
      }, {
        "detail": [ {
          "reference": "urn:uuid:23576166-0948-4793-9ec0-00cf594bd176"
        } ]
      }, {
        "detail": [ {
          "reference": "urn:uuid:ad761e38-2b03-4aaa-a8c0-23f3c8701bfa"
        } ]
      }, {
        "detail": [ {
          "reference": "urn:uuid:e1e5e12a-90c8-4d36-bfc0-eb5866778bb3"
        } ]
      }, {
        "detail": [ {
          "reference": "urn:uuid:32501355-e2d0-4f77-ae50-9d106d894137"
        } ]
      }, {
        "detail": [ {
          "reference": "urn:uuid:f10939b4-52b5-46c0-ad6d-4676b6585f4c"
        } ]
      }, {
        "detail": [ {
          "reference": "urn:uuid:90974843-409c-45c4-aca2-76e9364e80df"
        } ]
      }, {
        "detail": [ {
          "reference": "urn:uuid:a6733483-0e36-4c9b-ba5e-1ae96ca89109"
        } ]
      }, {
        "detail": [ {
          "reference": "urn:uuid:70ba10b2-bf7b-4780-8a9c-e9cc7eb05281"
        } ]
      }, {
        "detail": [ {
          "reference": "urn:uuid:6e7a6bb2-e6ab-4542-96ea-5170b5f7e02d"
        } ]
      }, {
        "detail": [ {
          "reference": "urn:uuid:9877f22e-be18-4ed6-b8a0-7d5c1e0d669f"
        } ]
      }, {
        "detail": [ {
          "reference": "urn:uuid:0aa13525-17b8-494a-aa3c-de44863791c0"
        } ]
      }, {
        "detail": [ {
          "reference": "urn:uuid:42dc999e-362c-4bfc-9a56-4283aae96834"
        } ]
      }, {
        "detail": [ {
          "reference": "urn:uuid:d7a7e39b-0463-40f7-a369-f7136a7375bc"
        } ]
      }, {
        "detail": [ {
          "reference": "urn:uuid:08f9b8a0-32b2-40a7-ab1e-8554e51f8e36"
        } ]
      }, {
        "detail": [ {
          "reference": "urn:uuid:c018dbc4-4636-4e79-a091-7f94e4733ffe"
        } ]
      }, {
        "detail": [ {
          "reference": "urn:uuid:4cb32a1e-04b8-44a5-bf17-cf251e0caed8"
        } ]
      }, {
        "detail": [ {
          "reference": "urn:uuid:06f6da35-e3f0-4e1f-b04c-db131cf83b1a"
        } ]
      }, {
        "detail": [ {
          "reference": "urn:uuid:31798b69-bddd-4ba6-a8d2-e3fc15301275"
        } ]
      }, {
        "detail": [ {
          "reference": "urn:uuid:03a67b19-2004-408a-972c-634073c4192f"
        } ]
      }, {
        "detail": [ {
          "reference": "urn:uuid:b5f1c290-9a12-4820-b465-5bf8f6099744"
        } ]
      }, {
        "detail": [ {
          "reference": "urn:uuid:e86220b9-c0a8-41ff-82be-cf7eecf6988b"
        } ]
      }, {
        "detail": [ {
          "reference": "urn:uuid:be028c86-be17-4888-bf5c-690df20f4451"
        } ]
      }, {
        "detail": [ {
          "reference": "urn:uuid:30d46e3a-c2cd-47db-a8a2-6661f99c7c72"
        } ]
      }, {
        "detail": [ {
          "reference": "urn:uuid:0a636973-72ac-44c7-a229-cc0301861755"
        } ]
      } ]
    }
  }, {
    "fullUrl": "urn:uuid:a6541b72-25f5-4525-9e9e-790482617e09",
    "resource": {
      "resourceType": "QuestionnaireResponse",
      "id": "a6541b72-25f5-4525-9e9e-790482617e09",
      "identifier": {
        "value": "59132"
      },
      "questionnaire": {
        "reference": "urn:uuid:61fc54b8-4143-4e2d-9b5a-0a2cb730ed4e"
      },
      "status": "completed",
      "subject": {
        "reference": "urn:uuid:778cd5a6-2b88-4831-b529-29e22f304df8"
      },
      "context": {
        "reference": "urn:uuid:eb255316-a4d1-4005-90b4-a8b3c3c34152"
      },
      "authored": "2021-04-06T11:33:34+00:00",
      "item": [ {
        "linkId": "Tx220074",
        "text": "What is the reason for the contact?",
        "answer": [ {
          "valueString": "an injury or other health problem"
        } ]
      } ]
    }
  }, {
    "fullUrl": "urn:uuid:61fc54b8-4143-4e2d-9b5a-0a2cb730ed4e",
    "resource": {
      "resourceType": "Questionnaire",
      "id": "61fc54b8-4143-4e2d-9b5a-0a2cb730ed4e",
      "identifier": [ {
        "value": "59132"
      } ],
      "version": "2021-04-06T11:33:34.963Z",
      "status": "active",
      "experimental": false,
      "date": "2021-04-06T11:33:34+00:00",
      "publisher": "User ID: 'MCDONALDD' User name: 'Denzle McDonald' User skill set: 'T3'",
      "lastReviewDate": "2021-04-06",
      "subjectType": [ "Patient" ],
      "item": [ {
        "linkId": "59132",
        "prefix": "5",
        "text": "What is the reason for the contact?",
        "type": "choice",
        "required": true,
        "repeats": false,
        "option": [ {
          "valueString": "an injury or other health problem, Selected: true"
        }, {
          "valueString": "labour or childbirth, Selected: false"
        }, {
          "valueString": "a need to access another healthcare service, Selected: false"
        }, {
          "valueString": "a healthcare professional requesting contact with another clinician, Selected: false"
        }, {
          "valueString": "a report of results or tests, Selected: false"
        }, {
          "valueString": "a possible failure of contraception, Selected: false"
        }, {
          "valueString": "more, Selected: false"
        } ]
      } ]
    }
  }, {
    "fullUrl": "urn:uuid:8b5c377f-6d3f-4126-9862-791df57ff6ff",
    "resource": {
      "resourceType": "QuestionnaireResponse",
      "id": "8b5c377f-6d3f-4126-9862-791df57ff6ff",
      "identifier": {
        "value": "59132"
      },
      "questionnaire": {
        "reference": "urn:uuid:c67bfc27-9610-4f9b-b193-c0be3881fa4c"
      },
      "status": "completed",
      "subject": {
        "reference": "urn:uuid:778cd5a6-2b88-4831-b529-29e22f304df8"
      },
      "context": {
        "reference": "urn:uuid:eb255316-a4d1-4005-90b4-a8b3c3c34152"
      },
      "authored": "2021-04-06T11:33:34+00:00",
      "item": [ {
        "linkId": "Tx221807",
        "text": "STRING:to'Immediatethreatstolife(SPA/OOHversion)'-'Majorbloodloss'stem",
        "answer": [ {
          "valueString": "\"present\""
        } ]
      } ]
    }
  }, {
    "fullUrl": "urn:uuid:c67bfc27-9610-4f9b-b193-c0be3881fa4c",
    "resource": {
      "resourceType": "Questionnaire",
      "id": "c67bfc27-9610-4f9b-b193-c0be3881fa4c",
      "identifier": [ {
        "value": "59132"
      } ],
      "version": "2021-04-06T11:33:34.963Z",
      "status": "active",
      "experimental": false,
      "date": "2021-04-06T11:33:34+00:00",
      "publisher": "User ID: 'MCDONALDD' User name: 'Denzle McDonald' User skill set: 'T3'",
      "lastReviewDate": "2021-04-06",
      "subjectType": [ "Patient" ],
      "item": [ {
        "linkId": "59132",
        "prefix": "400",
        "text": "STRING:to'Immediatethreatstolife(SPA/OOHversion)'-'Majorbloodloss'stem",
        "type": "choice",
        "required": true,
        "repeats": false,
        "option": [ {
          "valueString": "\"present\", Selected: true"
        } ]
      } ]
    }
  }, {
    "fullUrl": "urn:uuid:67d606bd-eb80-4483-a5e0-c1e4681e4303",
    "resource": {
      "resourceType": "QuestionnaireResponse",
      "id": "67d606bd-eb80-4483-a5e0-c1e4681e4303",
      "identifier": {
        "value": "59132"
      },
      "questionnaire": {
        "reference": "urn:uuid:f694b5a1-ea71-4966-ab20-31e550ae7557"
      },
      "status": "completed",
      "subject": {
        "reference": "urn:uuid:778cd5a6-2b88-4831-b529-29e22f304df8"
      },
      "context": {
        "reference": "urn:uuid:eb255316-a4d1-4005-90b4-a8b3c3c34152"
      },
      "authored": "2021-04-06T11:33:34+00:00"
    }
  }, {
    "fullUrl": "urn:uuid:f694b5a1-ea71-4966-ab20-31e550ae7557",
    "resource": {
      "resourceType": "Questionnaire",
      "id": "f694b5a1-ea71-4966-ab20-31e550ae7557",
      "identifier": [ {
        "value": "59132"
      } ],
      "version": "2021-04-06T11:33:34.963Z",
      "status": "active",
      "experimental": false,
      "date": "2021-04-06T11:33:34+00:00",
      "publisher": "User ID: 'MCDONALDD' User name: 'Denzle McDonald' User skill set: 'T3'",
      "lastReviewDate": "2021-04-06",
      "subjectType": [ "Patient" ]
    }
  }, {
    "fullUrl": "urn:uuid:0dc8878b-0cc4-4bd8-8c44-dd2ceb30e7ff",
    "resource": {
      "resourceType": "QuestionnaireResponse",
      "id": "0dc8878b-0cc4-4bd8-8c44-dd2ceb30e7ff",
      "identifier": {
        "value": "59132"
      },
      "questionnaire": {
        "reference": "urn:uuid:729ae7ff-1b79-4dbc-90ea-4e1520ae891c"
      },
      "status": "completed",
      "subject": {
        "reference": "urn:uuid:778cd5a6-2b88-4831-b529-29e22f304df8"
      },
      "context": {
        "reference": "urn:uuid:eb255316-a4d1-4005-90b4-a8b3c3c34152"
      },
      "authored": "2021-04-06T11:33:34+00:00",
      "item": [ {
        "linkId": "Tx221799",
        "text": "STRING:injury,illnessorlabourestablishedinEntryFlow",
        "answer": [ {
          "valueString": "\"present\""
        } ]
      } ]
    }
  }, {
    "fullUrl": "urn:uuid:729ae7ff-1b79-4dbc-90ea-4e1520ae891c",
    "resource": {
      "resourceType": "Questionnaire",
      "id": "729ae7ff-1b79-4dbc-90ea-4e1520ae891c",
      "identifier": [ {
        "value": "59132"
      } ],
      "version": "2021-04-06T11:33:34.963Z",
      "status": "active",
      "experimental": false,
      "date": "2021-04-06T11:33:34+00:00",
      "publisher": "User ID: 'MCDONALDD' User name: 'Denzle McDonald' User skill set: 'T3'",
      "lastReviewDate": "2021-04-06",
      "subjectType": [ "Patient" ],
      "item": [ {
        "linkId": "59132",
        "prefix": "0",
        "text": "STRING:injury,illnessorlabourestablishedinEntryFlow",
        "type": "choice",
        "required": true,
        "repeats": false,
        "option": [ {
          "valueString": "\"present\", Selected: true"
        } ]
      } ]
    }
  }, {
    "fullUrl": "urn:uuid:9fdf274c-f789-4329-9fb1-0677a580d663",
    "resource": {
      "resourceType": "QuestionnaireResponse",
      "id": "9fdf274c-f789-4329-9fb1-0677a580d663",
      "identifier": {
        "value": "59132"
      },
      "questionnaire": {
        "reference": "urn:uuid:c94d005c-eb00-44cb-8d7d-633d339280a8"
      },
      "status": "completed",
      "subject": {
        "reference": "urn:uuid:778cd5a6-2b88-4831-b529-29e22f304df8"
      },
      "context": {
        "reference": "urn:uuid:eb255316-a4d1-4005-90b4-a8b3c3c34152"
      },
      "authored": "2021-04-06T11:33:34+00:00",
      "item": [ {
        "linkId": "Tx221421",
        "text": "Have you been bleeding RED BLOOD very heavily IN THE LAST 30 MINUTES?",
        "answer": [ {
          "valueString": "no"
        } ]
      } ]
    }
  }, {
    "fullUrl": "urn:uuid:c94d005c-eb00-44cb-8d7d-633d339280a8",
    "resource": {
      "resourceType": "Questionnaire",
      "id": "c94d005c-eb00-44cb-8d7d-633d339280a8",
      "identifier": [ {
        "value": "59132"
      } ],
      "version": "2021-04-06T11:33:34.963Z",
      "status": "active",
      "experimental": false,
      "date": "2021-04-06T11:33:34+00:00",
      "publisher": "User ID: 'MCDONALDD' User name: 'Denzle McDonald' User skill set: 'T3'",
      "lastReviewDate": "2021-04-06",
      "subjectType": [ "Patient" ],
      "item": [ {
        "linkId": "59132",
        "prefix": "200",
        "text": "Have you been bleeding RED BLOOD very heavily IN THE LAST 30 MINUTES?",
        "type": "choice",
        "required": true,
        "repeats": false,
        "option": [ {
          "valueString": "yes, Selected: false"
        }, {
          "valueString": "not sure, Selected: false"
        }, {
          "valueString": "no, Selected: true"
        } ]
      } ]
    }
  }, {
    "fullUrl": "urn:uuid:d8c0cdde-c2a2-4ea0-903e-b2a1c4d34b8f",
    "resource": {
      "resourceType": "QuestionnaireResponse",
      "id": "d8c0cdde-c2a2-4ea0-903e-b2a1c4d34b8f",
      "identifier": {
        "value": "59132"
      },
      "questionnaire": {
        "reference": "urn:uuid:0ec45291-108f-49e9-80f5-0ed8a69a2d1c"
      },
      "status": "completed",
      "subject": {
        "reference": "urn:uuid:778cd5a6-2b88-4831-b529-29e22f304df8"
      },
      "context": {
        "reference": "urn:uuid:eb255316-a4d1-4005-90b4-a8b3c3c34152"
      },
      "authored": "2021-04-06T11:33:34+00:00",
      "item": [ {
        "linkId": "Tx221343",
        "text": "SocialConcernsExcluded",
        "answer": [ {
          "valueString": "*"
        } ]
      } ]
    }
  }, {
    "fullUrl": "urn:uuid:0ec45291-108f-49e9-80f5-0ed8a69a2d1c",
    "resource": {
      "resourceType": "Questionnaire",
      "id": "0ec45291-108f-49e9-80f5-0ed8a69a2d1c",
      "identifier": [ {
        "value": "59132"
      } ],
      "version": "2021-04-06T11:33:34.963Z",
      "status": "active",
      "experimental": false,
      "date": "2021-04-06T11:33:34+00:00",
      "publisher": "User ID: 'MCDONALDD' User name: 'Denzle McDonald' User skill set: 'T3'",
      "lastReviewDate": "2021-04-06",
      "subjectType": [ "Patient" ],
      "item": [ {
        "linkId": "59132",
        "prefix": "2600",
        "text": "SocialConcernsExcluded",
        "type": "choice",
        "required": true,
        "repeats": false,
        "option": [ {
          "valueString": "==\"present\", Selected: false"
        }, {
          "valueString": "*, Selected: true"
        } ]
      } ]
    }
  }, {
    "fullUrl": "urn:uuid:6ab3786b-e933-4a41-bf86-0e0310132000",
    "resource": {
      "resourceType": "QuestionnaireResponse",
      "id": "6ab3786b-e933-4a41-bf86-0e0310132000",
      "identifier": {
        "value": "59132"
      },
      "questionnaire": {
        "reference": "urn:uuid:bd879349-f92d-418e-8692-41a2fe200256"
      },
      "status": "completed",
      "subject": {
        "reference": "urn:uuid:778cd5a6-2b88-4831-b529-29e22f304df8"
      },
      "context": {
        "reference": "urn:uuid:eb255316-a4d1-4005-90b4-a8b3c3c34152"
      },
      "authored": "2021-04-06T11:33:34+00:00",
      "item": [ {
        "linkId": "Tx130011",
        "text": "What is the main problem?",
        "answer": [ {
          "valueString": "illness or other health problem (specify)"
        } ]
      } ]
    }
  }, {
    "fullUrl": "urn:uuid:bd879349-f92d-418e-8692-41a2fe200256",
    "resource": {
      "resourceType": "Questionnaire",
      "id": "bd879349-f92d-418e-8692-41a2fe200256",
      "identifier": [ {
        "value": "59132"
      } ],
      "version": "2021-04-06T11:33:34.963Z",
      "status": "active",
      "experimental": false,
      "date": "2021-04-06T11:33:34+00:00",
      "publisher": "User ID: 'MCDONALDD' User name: 'Denzle McDonald' User skill set: 'T3'",
      "lastReviewDate": "2021-04-06",
      "subjectType": [ "Patient" ],
      "item": [ {
        "linkId": "59132",
        "prefix": "2500",
        "text": "What is the main problem?",
        "type": "choice",
        "required": true,
        "repeats": false,
        "option": [ {
          "valueString": "the individual has been told to follow a particular course of action (specify), Selected: false"
        }, {
          "valueString": "the individual is an identified frequent caller, Selected: false"
        }, {
          "valueString": "injury (specify), Selected: false"
        }, {
          "valueString": "illness or other health problem (specify), Selected: true"
        }, {
          "valueString": "child protection/vulnerable adult concern, Selected: false"
        }, {
          "valueString": "social or domestic emergency, Selected: false"
        }, {
          "valueString": "the environment potentially poses an immediate threat to life (specify), Selected: false"
        } ]
      } ]
    }
  }, {
    "fullUrl": "urn:uuid:46aab74f-93ad-4966-9b50-205e40c6beee",
    "resource": {
      "resourceType": "QuestionnaireResponse",
      "id": "46aab74f-93ad-4966-9b50-205e40c6beee",
      "identifier": {
        "value": "59132"
      },
      "questionnaire": {
        "reference": "urn:uuid:f548da23-3315-452a-b1bd-f20dff525f2c"
      },
      "status": "completed",
      "subject": {
        "reference": "urn:uuid:778cd5a6-2b88-4831-b529-29e22f304df8"
      },
      "context": {
        "reference": "urn:uuid:eb255316-a4d1-4005-90b4-a8b3c3c34152"
      },
      "authored": "2021-04-06T11:33:34+00:00"
    }
  }, {
    "fullUrl": "urn:uuid:f548da23-3315-452a-b1bd-f20dff525f2c",
    "resource": {
      "resourceType": "Questionnaire",
      "id": "f548da23-3315-452a-b1bd-f20dff525f2c",
      "identifier": [ {
        "value": "59132"
      } ],
      "version": "2021-04-06T11:33:34.963Z",
      "status": "active",
      "experimental": false,
      "date": "2021-04-06T11:33:34+00:00",
      "publisher": "User ID: 'MCDONALDD' User name: 'Denzle McDonald' User skill set: 'T3'",
      "lastReviewDate": "2021-04-06",
      "subjectType": [ "Patient" ]
    }
  }, {
    "fullUrl": "urn:uuid:06605266-07b7-4d64-9c3e-0402339dc7ca",
    "resource": {
      "resourceType": "QuestionnaireResponse",
      "id": "06605266-07b7-4d64-9c3e-0402339dc7ca",
      "identifier": {
        "value": "59132"
      },
      "questionnaire": {
        "reference": "urn:uuid:f761db31-3c1a-458a-a240-9a531e7b8e93"
      },
      "status": "completed",
      "subject": {
        "reference": "urn:uuid:778cd5a6-2b88-4831-b529-29e22f304df8"
      },
      "context": {
        "reference": "urn:uuid:eb255316-a4d1-4005-90b4-a8b3c3c34152"
      },
      "authored": "2021-04-06T11:33:34+00:00",
      "item": [ {
        "linkId": "Tx61025",
        "text": "Are you so breathless that speaking more than a few words is impossible?",
        "answer": [ {
          "valueString": "no"
        } ]
      } ]
    }
  }, {
    "fullUrl": "urn:uuid:f761db31-3c1a-458a-a240-9a531e7b8e93",
    "resource": {
      "resourceType": "Questionnaire",
      "id": "f761db31-3c1a-458a-a240-9a531e7b8e93",
      "identifier": [ {
        "value": "59132"
      } ],
      "version": "2021-04-06T11:33:34.963Z",
      "status": "active",
      "experimental": false,
      "date": "2021-04-06T11:33:34+00:00",
      "publisher": "User ID: 'MCDONALDD' User name: 'Denzle McDonald' User skill set: 'T3'",
      "lastReviewDate": "2021-04-06",
      "subjectType": [ "Patient" ],
      "item": [ {
        "linkId": "59132",
        "prefix": "0",
        "text": "Are you so breathless that speaking more than a few words is impossible?",
        "type": "choice",
        "required": true,
        "repeats": false,
        "option": [ {
          "valueString": "yes, Selected: false"
        }, {
          "valueString": "not sure, Selected: false"
        }, {
          "valueString": "no, Selected: true"
        } ]
      } ]
    }
  }, {
    "fullUrl": "urn:uuid:aa7632b3-4cc3-481a-ab3d-e84388a772bf",
    "resource": {
      "resourceType": "QuestionnaireResponse",
      "id": "aa7632b3-4cc3-481a-ab3d-e84388a772bf",
      "identifier": {
        "value": "59132"
      },
      "questionnaire": {
        "reference": "urn:uuid:80c469f4-7052-4f27-a605-7e53380b8dd5"
      },
      "status": "completed",
      "subject": {
        "reference": "urn:uuid:778cd5a6-2b88-4831-b529-29e22f304df8"
      },
      "context": {
        "reference": "urn:uuid:eb255316-a4d1-4005-90b4-a8b3c3c34152"
      },
      "authored": "2021-04-06T11:33:34+00:00",
      "item": [ {
        "linkId": "Tx220845",
        "text": "SYSTEM_FLUPANDEMIC",
        "answer": [ {
          "valueString": "*"
        } ]
      } ]
    }
  }, {
    "fullUrl": "urn:uuid:80c469f4-7052-4f27-a605-7e53380b8dd5",
    "resource": {
      "resourceType": "Questionnaire",
      "id": "80c469f4-7052-4f27-a605-7e53380b8dd5",
      "identifier": [ {
        "value": "59132"
      } ],
      "version": "2021-04-06T11:33:34.963Z",
      "status": "active",
      "experimental": false,
      "date": "2021-04-06T11:33:34+00:00",
      "publisher": "User ID: 'MCDONALDD' User name: 'Denzle McDonald' User skill set: 'T3'",
      "lastReviewDate": "2021-04-06",
      "subjectType": [ "Patient" ],
      "item": [ {
        "linkId": "59132",
        "prefix": "100",
        "text": "SYSTEM_FLUPANDEMIC",
        "type": "choice",
        "required": true,
        "repeats": false,
        "option": [ {
          "valueString": "==\"pandemic\", Selected: false"
        }, {
          "valueString": "*, Selected: true"
        } ]
      } ]
    }
  }, {
    "fullUrl": "urn:uuid:c268f26e-fd7d-467b-be51-e4e24f8bc845",
    "resource": {
      "resourceType": "QuestionnaireResponse",
      "id": "c268f26e-fd7d-467b-be51-e4e24f8bc845",
      "identifier": {
        "value": "59132"
      },
      "questionnaire": {
        "reference": "urn:uuid:106c6361-d7e4-422b-ae88-05e3b3c9a40f"
      },
      "status": "completed",
      "subject": {
        "reference": "urn:uuid:778cd5a6-2b88-4831-b529-29e22f304df8"
      },
      "context": {
        "reference": "urn:uuid:eb255316-a4d1-4005-90b4-a8b3c3c34152"
      },
      "authored": "2021-04-06T11:33:34+00:00",
      "item": [ {
        "linkId": "Tx220044",
        "text": "WHAT IS SAID TO BE THE MAIN REASON FOR THIS CONTACT?",
        "answer": [ {
          "valueString": "more"
        } ]
      } ]
    }
  }, {
    "fullUrl": "urn:uuid:106c6361-d7e4-422b-ae88-05e3b3c9a40f",
    "resource": {
      "resourceType": "Questionnaire",
      "id": "106c6361-d7e4-422b-ae88-05e3b3c9a40f",
      "identifier": [ {
        "value": "59132"
      } ],
      "version": "2021-04-06T11:33:34.963Z",
      "status": "active",
      "experimental": false,
      "date": "2021-04-06T11:33:34+00:00",
      "publisher": "User ID: 'MCDONALDD' User name: 'Denzle McDonald' User skill set: 'T3'",
      "lastReviewDate": "2021-04-06",
      "subjectType": [ "Patient" ],
      "item": [ {
        "linkId": "59132",
        "prefix": "5000",
        "text": "WHAT IS SAID TO BE THE MAIN REASON FOR THIS CONTACT?",
        "type": "choice",
        "required": true,
        "repeats": false,
        "option": [ {
          "valueString": "a probable allergic reaction now, Selected: false"
        }, {
          "valueString": "chest or upper back pain, Selected: false"
        }, {
          "valueString": "a probable fit or seizure within the last 12 hours, Selected: false"
        }, {
          "valueString": "a suicide attempt, Selected: false"
        }, {
          "valueString": "new confusion now, Selected: false"
        }, {
          "valueString": "a probable stroke or mini stroke, Selected: false"
        }, {
          "valueString": "more, Selected: true"
        } ]
      } ]
    }
  }, {
    "fullUrl": "urn:uuid:ebd51f28-a1c9-42fb-b6e9-d77af8a3feb5",
    "resource": {
      "resourceType": "QuestionnaireResponse",
      "id": "ebd51f28-a1c9-42fb-b6e9-d77af8a3feb5",
      "identifier": {
        "value": "59132"
      },
      "questionnaire": {
        "reference": "urn:uuid:cc59571f-4263-47d3-b0a4-9e44e7fa31c9"
      },
      "status": "completed",
      "subject": {
        "reference": "urn:uuid:778cd5a6-2b88-4831-b529-29e22f304df8"
      },
      "context": {
        "reference": "urn:uuid:eb255316-a4d1-4005-90b4-a8b3c3c34152"
      },
      "authored": "2021-04-06T11:33:34+00:00",
      "item": [ {
        "linkId": "Tx223029",
        "text": "WHAT IS SAID TO BE THE MAIN REASON FOR THIS CONTACT?",
        "answer": [ {
          "valueString": "none of the above"
        } ]
      } ]
    }
  }, {
    "fullUrl": "urn:uuid:cc59571f-4263-47d3-b0a4-9e44e7fa31c9",
    "resource": {
      "resourceType": "Questionnaire",
      "id": "cc59571f-4263-47d3-b0a4-9e44e7fa31c9",
      "identifier": [ {
        "value": "59132"
      } ],
      "version": "2021-04-06T11:33:34.963Z",
      "status": "active",
      "experimental": false,
      "date": "2021-04-06T11:33:34+00:00",
      "publisher": "User ID: 'MCDONALDD' User name: 'Denzle McDonald' User skill set: 'T3'",
      "lastReviewDate": "2021-04-06",
      "subjectType": [ "Patient" ],
      "item": [ {
        "linkId": "59132",
        "prefix": "4100",
        "text": "WHAT IS SAID TO BE THE MAIN REASON FOR THIS CONTACT?",
        "type": "choice",
        "required": true,
        "repeats": false,
        "option": [ {
          "valueString": "a diabetic hypo (low blood sugar) or a diabetic hyper (high blood sugar), Selected: false"
        }, {
          "valueString": "recovery from an ICD (implanted cardioverter defibrillator) shock, Selected: false"
        }, {
          "valueString": "none of the above, Selected: true"
        } ]
      } ]
    }
  }, {
    "fullUrl": "urn:uuid:fc6494d7-07d9-4a45-a1e4-92ad34cdf95f",
    "resource": {
      "resourceType": "QuestionnaireResponse",
      "id": "fc6494d7-07d9-4a45-a1e4-92ad34cdf95f",
      "identifier": {
        "value": "59132"
      },
      "questionnaire": {
        "reference": "urn:uuid:6b8daa80-0265-4a53-bf46-b73dccca1e0b"
      },
      "status": "completed",
      "subject": {
        "reference": "urn:uuid:778cd5a6-2b88-4831-b529-29e22f304df8"
      },
      "context": {
        "reference": "urn:uuid:eb255316-a4d1-4005-90b4-a8b3c3c34152"
      },
      "authored": "2021-04-06T11:33:34+00:00",
      "item": [ {
        "linkId": "Tx223142",
        "text": "Does the skin on the chest, back or abdomen feel a normal temperature?",
        "answer": [ {
          "valueString": "yes - normal, warm or hot"
        } ]
      } ]
    }
  }, {
    "fullUrl": "urn:uuid:6b8daa80-0265-4a53-bf46-b73dccca1e0b",
    "resource": {
      "resourceType": "Questionnaire",
      "id": "6b8daa80-0265-4a53-bf46-b73dccca1e0b",
      "identifier": [ {
        "value": "59132"
      } ],
      "version": "2021-04-06T11:33:34.963Z",
      "status": "active",
      "experimental": false,
      "date": "2021-04-06T11:33:34+00:00",
      "publisher": "User ID: 'MCDONALDD' User name: 'Denzle McDonald' User skill set: 'T3'",
      "lastReviewDate": "2021-04-06",
      "subjectType": [ "Patient" ],
      "item": [ {
        "linkId": "59132",
        "prefix": "4400",
        "text": "Does the skin on the chest, back or abdomen feel a normal temperature?",
        "type": "choice",
        "required": true,
        "repeats": false,
        "option": [ {
          "valueString": "yes - normal, warm or hot, Selected: true"
        }, {
          "valueString": "not sure, Selected: false"
        }, {
          "valueString": "no - cool OR cold, Selected: false"
        }, {
          "valueString": "not safe to touch, Selected: false"
        } ]
      } ]
    }
  }, {
    "fullUrl": "urn:uuid:8ada8f4e-f87f-4e48-b0fa-4270ca8894d4",
    "resource": {
      "resourceType": "QuestionnaireResponse",
      "id": "8ada8f4e-f87f-4e48-b0fa-4270ca8894d4",
      "identifier": {
        "value": "59132"
      },
      "questionnaire": {
        "reference": "urn:uuid:fd2fd9bc-c16b-4334-896e-f5f123786d5b"
      },
      "status": "completed",
      "subject": {
        "reference": "urn:uuid:778cd5a6-2b88-4831-b529-29e22f304df8"
      },
      "context": {
        "reference": "urn:uuid:eb255316-a4d1-4005-90b4-a8b3c3c34152"
      },
      "authored": "2021-04-06T11:33:34+00:00",
      "item": [ {
        "linkId": "Tx221724",
        "text": "STRING:ShockAsked",
        "answer": [ {
          "valueString": "\"present\""
        } ]
      } ]
    }
  }, {
    "fullUrl": "urn:uuid:fd2fd9bc-c16b-4334-896e-f5f123786d5b",
    "resource": {
      "resourceType": "Questionnaire",
      "id": "fd2fd9bc-c16b-4334-896e-f5f123786d5b",
      "identifier": [ {
        "value": "59132"
      } ],
      "version": "2021-04-06T11:33:34.963Z",
      "status": "active",
      "experimental": false,
      "date": "2021-04-06T11:33:34+00:00",
      "publisher": "User ID: 'MCDONALDD' User name: 'Denzle McDonald' User skill set: 'T3'",
      "lastReviewDate": "2021-04-06",
      "subjectType": [ "Patient" ],
      "item": [ {
        "linkId": "59132",
        "prefix": "3300",
        "text": "STRING:ShockAsked",
        "type": "choice",
        "required": true,
        "repeats": false,
        "option": [ {
          "valueString": "\"present\", Selected: true"
        } ]
      } ]
    }
  }, {
    "fullUrl": "urn:uuid:9ed841d8-e57b-4386-b3cb-0e4ddeadf3f3",
    "resource": {
      "resourceType": "QuestionnaireResponse",
      "id": "9ed841d8-e57b-4386-b3cb-0e4ddeadf3f3",
      "identifier": {
        "value": "59132"
      },
      "questionnaire": {
        "reference": "urn:uuid:2fec7bab-7904-4e43-b7a9-9ed22bc5cad1"
      },
      "status": "completed",
      "subject": {
        "reference": "urn:uuid:778cd5a6-2b88-4831-b529-29e22f304df8"
      },
      "context": {
        "reference": "urn:uuid:eb255316-a4d1-4005-90b4-a8b3c3c34152"
      },
      "authored": "2021-04-06T11:33:34+00:00"
    }
  }, {
    "fullUrl": "urn:uuid:2fec7bab-7904-4e43-b7a9-9ed22bc5cad1",
    "resource": {
      "resourceType": "Questionnaire",
      "id": "2fec7bab-7904-4e43-b7a9-9ed22bc5cad1",
      "identifier": [ {
        "value": "59132"
      } ],
      "version": "2021-04-06T11:33:34.963Z",
      "status": "active",
      "experimental": false,
      "date": "2021-04-06T11:33:34+00:00",
      "publisher": "User ID: 'MCDONALDD' User name: 'Denzle McDonald' User skill set: 'T3'",
      "lastReviewDate": "2021-04-06",
      "subjectType": [ "Patient" ]
    }
  }, {
    "fullUrl": "urn:uuid:d7bf58cd-d435-40f2-85ef-61a4d56a6758",
    "resource": {
      "resourceType": "QuestionnaireResponse",
      "id": "d7bf58cd-d435-40f2-85ef-61a4d56a6758",
      "identifier": {
        "value": "59132"
      },
      "questionnaire": {
        "reference": "urn:uuid:86a2bbfd-a32b-40aa-b066-bdd906e79fef"
      },
      "status": "completed",
      "subject": {
        "reference": "urn:uuid:778cd5a6-2b88-4831-b529-29e22f304df8"
      },
      "context": {
        "reference": "urn:uuid:eb255316-a4d1-4005-90b4-a8b3c3c34152"
      },
      "authored": "2021-04-06T11:33:34+00:00",
      "item": [ {
        "linkId": "Tx223272",
        "text": "SYSTEM_VHF",
        "answer": [ {
          "valueString": "*"
        } ]
      } ]
    }
  }, {
    "fullUrl": "urn:uuid:86a2bbfd-a32b-40aa-b066-bdd906e79fef",
    "resource": {
      "resourceType": "Questionnaire",
      "id": "86a2bbfd-a32b-40aa-b066-bdd906e79fef",
      "identifier": [ {
        "value": "59132"
      } ],
      "version": "2021-04-06T11:33:34.963Z",
      "status": "active",
      "experimental": false,
      "date": "2021-04-06T11:33:34+00:00",
      "publisher": "User ID: 'MCDONALDD' User name: 'Denzle McDonald' User skill set: 'T3'",
      "lastReviewDate": "2021-04-06",
      "subjectType": [ "Patient" ],
      "item": [ {
        "linkId": "59132",
        "prefix": "0",
        "text": "SYSTEM_VHF",
        "type": "choice",
        "required": true,
        "repeats": false,
        "option": [ {
          "valueString": "==\"vhf\", Selected: false"
        }, {
          "valueString": "*, Selected: true"
        } ]
      } ]
    }
  }, {
    "fullUrl": "urn:uuid:cd8364b5-4861-4e70-b8ff-da4c874bd524",
    "resource": {
      "resourceType": "QuestionnaireResponse",
      "id": "cd8364b5-4861-4e70-b8ff-da4c874bd524",
      "identifier": {
        "value": "59132"
      },
      "questionnaire": {
        "reference": "urn:uuid:f1ee8809-2ef7-4a45-9964-fc1cf07f6a78"
      },
      "status": "completed",
      "subject": {
        "reference": "urn:uuid:778cd5a6-2b88-4831-b529-29e22f304df8"
      },
      "context": {
        "reference": "urn:uuid:eb255316-a4d1-4005-90b4-a8b3c3c34152"
      },
      "authored": "2021-04-06T11:33:34+00:00",
      "item": [ {
        "linkId": "Tx222416",
        "text": "Have you actually vomited?",
        "answer": [ {
          "valueString": "no"
        } ]
      } ]
    }
  }, {
    "fullUrl": "urn:uuid:f1ee8809-2ef7-4a45-9964-fc1cf07f6a78",
    "resource": {
      "resourceType": "Questionnaire",
      "id": "f1ee8809-2ef7-4a45-9964-fc1cf07f6a78",
      "identifier": [ {
        "value": "59132"
      } ],
      "version": "2021-04-06T11:33:34.963Z",
      "status": "active",
      "experimental": false,
      "date": "2021-04-06T11:33:34+00:00",
      "publisher": "User ID: 'MCDONALDD' User name: 'Denzle McDonald' User skill set: 'T3'",
      "lastReviewDate": "2021-04-06",
      "subjectType": [ "Patient" ],
      "item": [ {
        "linkId": "59132",
        "prefix": "30400",
        "text": "Have you actually vomited?",
        "type": "choice",
        "required": true,
        "repeats": false,
        "option": [ {
          "valueString": "yes, Selected: false"
        }, {
          "valueString": "not sure, Selected: false"
        }, {
          "valueString": "no, Selected: true"
        } ]
      } ]
    }
  }, {
    "fullUrl": "urn:uuid:ecf74bbc-b0a8-462e-8586-35087296d355",
    "resource": {
      "resourceType": "QuestionnaireResponse",
      "id": "ecf74bbc-b0a8-462e-8586-35087296d355",
      "identifier": {
        "value": "59132"
      },
      "questionnaire": {
        "reference": "urn:uuid:e14312fa-fe8b-4318-a984-3debd75e4e37"
      },
      "status": "completed",
      "subject": {
        "reference": "urn:uuid:778cd5a6-2b88-4831-b529-29e22f304df8"
      },
      "context": {
        "reference": "urn:uuid:eb255316-a4d1-4005-90b4-a8b3c3c34152"
      },
      "authored": "2021-04-06T11:33:34+00:00",
      "item": [ {
        "linkId": "Tx220964",
        "text": "Have you got diarrhoea as well?",
        "answer": [ {
          "valueString": "no"
        } ]
      } ]
    }
  }, {
    "fullUrl": "urn:uuid:e14312fa-fe8b-4318-a984-3debd75e4e37",
    "resource": {
      "resourceType": "Questionnaire",
      "id": "e14312fa-fe8b-4318-a984-3debd75e4e37",
      "identifier": [ {
        "value": "59132"
      } ],
      "version": "2021-04-06T11:33:34.963Z",
      "status": "active",
      "experimental": false,
      "date": "2021-04-06T11:33:34+00:00",
      "publisher": "User ID: 'MCDONALDD' User name: 'Denzle McDonald' User skill set: 'T3'",
      "lastReviewDate": "2021-04-06",
      "subjectType": [ "Patient" ],
      "item": [ {
        "linkId": "59132",
        "prefix": "100",
        "text": "Have you got diarrhoea as well?",
        "type": "choice",
        "required": true,
        "repeats": false,
        "option": [ {
          "valueString": "yes, Selected: false"
        }, {
          "valueString": "not sure, Selected: false"
        }, {
          "valueString": "no, Selected: true"
        } ]
      } ]
    }
  }, {
    "fullUrl": "urn:uuid:bfaf50a0-5e5e-48a4-a92f-ae939f0a4979",
    "resource": {
      "resourceType": "QuestionnaireResponse",
      "id": "bfaf50a0-5e5e-48a4-a92f-ae939f0a4979",
      "identifier": {
        "value": "59132"
      },
      "questionnaire": {
        "reference": "urn:uuid:21abc344-db0e-4fce-ad81-42fef218c54c"
      },
      "status": "completed",
      "subject": {
        "reference": "urn:uuid:778cd5a6-2b88-4831-b529-29e22f304df8"
      },
      "context": {
        "reference": "urn:uuid:eb255316-a4d1-4005-90b4-a8b3c3c34152"
      },
      "authored": "2021-04-06T11:33:34+00:00",
      "item": [ {
        "linkId": "Tx221277",
        "text": "Vomiting",
        "answer": [ {
          "valueString": "*"
        } ]
      } ]
    }
  }, {
    "fullUrl": "urn:uuid:21abc344-db0e-4fce-ad81-42fef218c54c",
    "resource": {
      "resourceType": "Questionnaire",
      "id": "21abc344-db0e-4fce-ad81-42fef218c54c",
      "identifier": [ {
        "value": "59132"
      } ],
      "version": "2021-04-06T11:33:34.963Z",
      "status": "active",
      "experimental": false,
      "date": "2021-04-06T11:33:34+00:00",
      "publisher": "User ID: 'MCDONALDD' User name: 'Denzle McDonald' User skill set: 'T3'",
      "lastReviewDate": "2021-04-06",
      "subjectType": [ "Patient" ],
      "item": [ {
        "linkId": "59132",
        "prefix": "400",
        "text": "Vomiting",
        "type": "choice",
        "required": true,
        "repeats": false,
        "option": [ {
          "valueString": "==\"present\", Selected: false"
        }, {
          "valueString": "*, Selected: true"
        } ]
      } ]
    }
  }, {
    "fullUrl": "urn:uuid:f740d231-61c1-4390-96ca-9592e95a23fd",
    "resource": {
      "resourceType": "QuestionnaireResponse",
      "id": "f740d231-61c1-4390-96ca-9592e95a23fd",
      "identifier": {
        "value": "59132"
      },
      "questionnaire": {
        "reference": "urn:uuid:64830fb2-dbc4-4e0c-a48d-9fccd9c038bc"
      },
      "status": "completed",
      "subject": {
        "reference": "urn:uuid:778cd5a6-2b88-4831-b529-29e22f304df8"
      },
      "context": {
        "reference": "urn:uuid:eb255316-a4d1-4005-90b4-a8b3c3c34152"
      },
      "authored": "2021-04-06T11:33:34+00:00",
      "item": [ {
        "linkId": "Tx221183",
        "text": "Did the symptoms come on after drinking alcohol?",
        "answer": [ {
          "valueString": "no"
        } ]
      } ]
    }
  }, {
    "fullUrl": "urn:uuid:64830fb2-dbc4-4e0c-a48d-9fccd9c038bc",
    "resource": {
      "resourceType": "Questionnaire",
      "id": "64830fb2-dbc4-4e0c-a48d-9fccd9c038bc",
      "identifier": [ {
        "value": "59132"
      } ],
      "version": "2021-04-06T11:33:34.963Z",
      "status": "active",
      "experimental": false,
      "date": "2021-04-06T11:33:34+00:00",
      "publisher": "User ID: 'MCDONALDD' User name: 'Denzle McDonald' User skill set: 'T3'",
      "lastReviewDate": "2021-04-06",
      "subjectType": [ "Patient" ],
      "item": [ {
        "linkId": "59132",
        "prefix": "300",
        "text": "Did the symptoms come on after drinking alcohol?",
        "type": "choice",
        "required": true,
        "repeats": false,
        "option": [ {
          "valueString": "yes, Selected: false"
        }, {
          "valueString": "not sure, Selected: false"
        }, {
          "valueString": "no, Selected: true"
        } ]
      } ]
    }
  }, {
    "fullUrl": "urn:uuid:b806133b-a9c5-4896-add2-751d426998e2",
    "resource": {
      "resourceType": "QuestionnaireResponse",
      "id": "b806133b-a9c5-4896-add2-751d426998e2",
      "identifier": {
        "value": "59132"
      },
      "questionnaire": {
        "reference": "urn:uuid:8b326d18-f0e7-4d11-b570-dcdcc8ac944f"
      },
      "status": "completed",
      "subject": {
        "reference": "urn:uuid:778cd5a6-2b88-4831-b529-29e22f304df8"
      },
      "context": {
        "reference": "urn:uuid:eb255316-a4d1-4005-90b4-a8b3c3c34152"
      },
      "authored": "2021-04-06T11:33:34+00:00",
      "item": [ {
        "linkId": "Tx221277",
        "text": "Vomiting",
        "answer": [ {
          "valueString": "*"
        } ]
      } ]
    }
  }, {
    "fullUrl": "urn:uuid:8b326d18-f0e7-4d11-b570-dcdcc8ac944f",
    "resource": {
      "resourceType": "Questionnaire",
      "id": "8b326d18-f0e7-4d11-b570-dcdcc8ac944f",
      "identifier": [ {
        "value": "59132"
      } ],
      "version": "2021-04-06T11:33:34.963Z",
      "status": "active",
      "experimental": false,
      "date": "2021-04-06T11:33:34+00:00",
      "publisher": "User ID: 'MCDONALDD' User name: 'Denzle McDonald' User skill set: 'T3'",
      "lastReviewDate": "2021-04-06",
      "subjectType": [ "Patient" ],
      "item": [ {
        "linkId": "59132",
        "prefix": "1000",
        "text": "Vomiting",
        "type": "choice",
        "required": true,
        "repeats": false,
        "option": [ {
          "valueString": "==\"present\", Selected: false"
        }, {
          "valueString": "*, Selected: true"
        } ]
      } ]
    }
  }, {
    "fullUrl": "urn:uuid:0a315664-797b-48c6-8acc-435381283ad7",
    "resource": {
      "resourceType": "QuestionnaireResponse",
      "id": "0a315664-797b-48c6-8acc-435381283ad7",
      "identifier": {
        "value": "59132"
      },
      "questionnaire": {
        "reference": "urn:uuid:c8abd165-3e49-471e-9b4e-e1f3409695e9"
      },
      "status": "completed",
      "subject": {
        "reference": "urn:uuid:778cd5a6-2b88-4831-b529-29e22f304df8"
      },
      "context": {
        "reference": "urn:uuid:eb255316-a4d1-4005-90b4-a8b3c3c34152"
      },
      "authored": "2021-04-06T11:33:34+00:00",
      "item": [ {
        "linkId": "Tx220825",
        "text": "Have you also got any pain in the abdomen?",
        "answer": [ {
          "valueString": "yes"
        } ]
      } ]
    }
  }, {
    "fullUrl": "urn:uuid:c8abd165-3e49-471e-9b4e-e1f3409695e9",
    "resource": {
      "resourceType": "Questionnaire",
      "id": "c8abd165-3e49-471e-9b4e-e1f3409695e9",
      "identifier": [ {
        "value": "59132"
      } ],
      "version": "2021-04-06T11:33:34.963Z",
      "status": "active",
      "experimental": false,
      "date": "2021-04-06T11:33:34+00:00",
      "publisher": "User ID: 'MCDONALDD' User name: 'Denzle McDonald' User skill set: 'T3'",
      "lastReviewDate": "2021-04-06",
      "subjectType": [ "Patient" ],
      "item": [ {
        "linkId": "59132",
        "prefix": "1500",
        "text": "Have you also got any pain in the abdomen?",
        "type": "choice",
        "required": true,
        "repeats": false,
        "option": [ {
          "valueString": "yes, Selected: true"
        }, {
          "valueString": "not sure, Selected: false"
        }, {
          "valueString": "no, Selected: false"
        } ]
      } ]
    }
  }, {
    "fullUrl": "urn:uuid:26e72631-8546-4437-a301-c63c9e0371f0",
    "resource": {
      "resourceType": "QuestionnaireResponse",
      "id": "26e72631-8546-4437-a301-c63c9e0371f0",
      "identifier": {
        "value": "59132"
      },
      "questionnaire": {
        "reference": "urn:uuid:e0dd8b17-42b7-4933-9a46-f61482ac0335"
      },
      "status": "completed",
      "subject": {
        "reference": "urn:uuid:778cd5a6-2b88-4831-b529-29e22f304df8"
      },
      "context": {
        "reference": "urn:uuid:eb255316-a4d1-4005-90b4-a8b3c3c34152"
      },
      "authored": "2021-04-06T11:33:34+00:00",
      "item": [ {
        "linkId": "Tx224927",
        "text": "STRING:VomitingAnd/OrNauseaWithAbdominalPainPW",
        "answer": [ {
          "valueString": "\"present\""
        } ]
      } ]
    }
  }, {
    "fullUrl": "urn:uuid:e0dd8b17-42b7-4933-9a46-f61482ac0335",
    "resource": {
      "resourceType": "Questionnaire",
      "id": "e0dd8b17-42b7-4933-9a46-f61482ac0335",
      "identifier": [ {
        "value": "59132"
      } ],
      "version": "2021-04-06T11:33:34.963Z",
      "status": "active",
      "experimental": false,
      "date": "2021-04-06T11:33:34+00:00",
      "publisher": "User ID: 'MCDONALDD' User name: 'Denzle McDonald' User skill set: 'T3'",
      "lastReviewDate": "2021-04-06",
      "subjectType": [ "Patient" ],
      "item": [ {
        "linkId": "59132",
        "prefix": "64600",
        "text": "STRING:VomitingAnd/OrNauseaWithAbdominalPainPW",
        "type": "choice",
        "required": true,
        "repeats": false,
        "option": [ {
          "valueString": "\"present\", Selected: true"
        } ]
      } ]
    }
  }, {
    "fullUrl": "urn:uuid:95360258-e8d4-4bd1-b794-22831ff25286",
    "resource": {
      "resourceType": "QuestionnaireResponse",
      "id": "95360258-e8d4-4bd1-b794-22831ff25286",
      "identifier": {
        "value": "59132"
      },
      "questionnaire": {
        "reference": "urn:uuid:147df8d1-d676-4ebf-b0d7-f2a995c6efc6"
      },
      "status": "completed",
      "subject": {
        "reference": "urn:uuid:778cd5a6-2b88-4831-b529-29e22f304df8"
      },
      "context": {
        "reference": "urn:uuid:eb255316-a4d1-4005-90b4-a8b3c3c34152"
      },
      "authored": "2021-04-06T11:33:34+00:00",
      "item": [ {
        "linkId": "Tx224907",
        "text": "STRING:GITSymptomWithAbdominalPain",
        "answer": [ {
          "valueString": "\"present\""
        } ]
      } ]
    }
  }, {
    "fullUrl": "urn:uuid:147df8d1-d676-4ebf-b0d7-f2a995c6efc6",
    "resource": {
      "resourceType": "Questionnaire",
      "id": "147df8d1-d676-4ebf-b0d7-f2a995c6efc6",
      "identifier": [ {
        "value": "59132"
      } ],
      "version": "2021-04-06T11:33:34.963Z",
      "status": "active",
      "experimental": false,
      "date": "2021-04-06T11:33:34+00:00",
      "publisher": "User ID: 'MCDONALDD' User name: 'Denzle McDonald' User skill set: 'T3'",
      "lastReviewDate": "2021-04-06",
      "subjectType": [ "Patient" ],
      "item": [ {
        "linkId": "59132",
        "prefix": "64700",
        "text": "STRING:GITSymptomWithAbdominalPain",
        "type": "choice",
        "required": true,
        "repeats": false,
        "option": [ {
          "valueString": "\"present\", Selected: true"
        } ]
      } ]
    }
  }, {
    "fullUrl": "urn:uuid:a504dcb4-de3d-449e-86c3-603d40dfcaea",
    "resource": {
      "resourceType": "QuestionnaireResponse",
      "id": "a504dcb4-de3d-449e-86c3-603d40dfcaea",
      "identifier": {
        "value": "59132"
      },
      "questionnaire": {
        "reference": "urn:uuid:85b87260-837f-419b-a424-40ffb8bc52d4"
      },
      "status": "completed",
      "subject": {
        "reference": "urn:uuid:778cd5a6-2b88-4831-b529-29e22f304df8"
      },
      "context": {
        "reference": "urn:uuid:eb255316-a4d1-4005-90b4-a8b3c3c34152"
      },
      "authored": "2021-04-06T11:33:34+00:00"
    }
  }, {
    "fullUrl": "urn:uuid:85b87260-837f-419b-a424-40ffb8bc52d4",
    "resource": {
      "resourceType": "Questionnaire",
      "id": "85b87260-837f-419b-a424-40ffb8bc52d4",
      "identifier": [ {
        "value": "59132"
      } ],
      "version": "2021-04-06T11:33:34.963Z",
      "status": "active",
      "experimental": false,
      "date": "2021-04-06T11:33:34+00:00",
      "publisher": "User ID: 'MCDONALDD' User name: 'Denzle McDonald' User skill set: 'T3'",
      "lastReviewDate": "2021-04-06",
      "subjectType": [ "Patient" ]
    }
  }, {
    "fullUrl": "urn:uuid:e1a1e462-6695-4a77-a040-54c36f4e89c9",
    "resource": {
      "resourceType": "QuestionnaireResponse",
      "id": "e1a1e462-6695-4a77-a040-54c36f4e89c9",
      "identifier": {
        "value": "59132"
      },
      "questionnaire": {
        "reference": "urn:uuid:dae97a64-e20f-406b-9e09-c758a571c52f"
      },
      "status": "completed",
      "subject": {
        "reference": "urn:uuid:778cd5a6-2b88-4831-b529-29e22f304df8"
      },
      "context": {
        "reference": "urn:uuid:eb255316-a4d1-4005-90b4-a8b3c3c34152"
      },
      "authored": "2021-04-06T11:33:34+00:00",
      "item": [ {
        "linkId": "Tx221039",
        "text": "PATIENT_AGEGROUP",
        "answer": [ {
          "valueString": "==\"CHILD\""
        } ]
      } ]
    }
  }, {
    "fullUrl": "urn:uuid:dae97a64-e20f-406b-9e09-c758a571c52f",
    "resource": {
      "resourceType": "Questionnaire",
      "id": "dae97a64-e20f-406b-9e09-c758a571c52f",
      "identifier": [ {
        "value": "59132"
      } ],
      "version": "2021-04-06T11:33:34.963Z",
      "status": "active",
      "experimental": false,
      "date": "2021-04-06T11:33:34+00:00",
      "publisher": "User ID: 'MCDONALDD' User name: 'Denzle McDonald' User skill set: 'T3'",
      "lastReviewDate": "2021-04-06",
      "subjectType": [ "Patient" ],
      "item": [ {
        "linkId": "59132",
        "prefix": "0",
        "text": "PATIENT_AGEGROUP",
        "type": "choice",
        "required": true,
        "repeats": false,
        "option": [ {
          "valueString": "==\"ADULT\", Selected: false"
        }, {
          "valueString": "==\"CHILD\", Selected: true"
        }, {
          "valueString": "==\"TODDLER\", Selected: false"
        }, {
          "valueString": "==\"INFANT\", Selected: false"
        }, {
          "valueString": "==\"NEONATE\", Selected: false"
        }, {
          "valueString": "*, Selected: false"
        } ]
      } ]
    }
  }, {
    "fullUrl": "urn:uuid:29971311-53bc-4e66-91a4-478fdf07dff8",
    "resource": {
      "resourceType": "QuestionnaireResponse",
      "id": "29971311-53bc-4e66-91a4-478fdf07dff8",
      "identifier": {
        "value": "59132"
      },
      "questionnaire": {
        "reference": "urn:uuid:9ba7373e-fefb-4441-8767-89ec63170479"
      },
      "status": "completed",
      "subject": {
        "reference": "urn:uuid:778cd5a6-2b88-4831-b529-29e22f304df8"
      },
      "context": {
        "reference": "urn:uuid:eb255316-a4d1-4005-90b4-a8b3c3c34152"
      },
      "authored": "2021-04-06T11:33:34+00:00",
      "item": [ {
        "linkId": "Tx224919",
        "text": "PATIENT_AGE",
        "answer": [ {
          "valueString": "<11"
        } ]
      } ]
    }
  }, {
    "fullUrl": "urn:uuid:9ba7373e-fefb-4441-8767-89ec63170479",
    "resource": {
      "resourceType": "Questionnaire",
      "id": "9ba7373e-fefb-4441-8767-89ec63170479",
      "identifier": [ {
        "value": "59132"
      } ],
      "version": "2021-04-06T11:33:34.963Z",
      "status": "active",
      "experimental": false,
      "date": "2021-04-06T11:33:34+00:00",
      "publisher": "User ID: 'MCDONALDD' User name: 'Denzle McDonald' User skill set: 'T3'",
      "lastReviewDate": "2021-04-06",
      "subjectType": [ "Patient" ],
      "item": [ {
        "linkId": "59132",
        "prefix": "15300",
        "text": "PATIENT_AGE",
        "type": "choice",
        "required": true,
        "repeats": false,
        "option": [ {
          "valueString": "<11, Selected: true"
        }, {
          "valueString": "<13, Selected: false"
        }, {
          "valueString": ">=13, Selected: false"
        }, {
          "valueString": "*, Selected: false"
        } ]
      } ]
    }
  }, {
    "fullUrl": "urn:uuid:00002bb9-c1fa-4b74-b64e-43362bae60b5",
    "resource": {
      "resourceType": "QuestionnaireResponse",
      "id": "00002bb9-c1fa-4b74-b64e-43362bae60b5",
      "identifier": {
        "value": "59132"
      },
      "questionnaire": {
        "reference": "urn:uuid:a21ccaf5-9113-4275-a78e-ce5bfd7be4be"
      },
      "status": "completed",
      "subject": {
        "reference": "urn:uuid:778cd5a6-2b88-4831-b529-29e22f304df8"
      },
      "context": {
        "reference": "urn:uuid:eb255316-a4d1-4005-90b4-a8b3c3c34152"
      },
      "authored": "2021-04-06T11:33:34+00:00",
      "item": [ {
        "linkId": "Tx224498",
        "text": "STRING:Under11",
        "answer": [ {
          "valueString": "\"present\""
        } ]
      } ]
    }
  }, {
    "fullUrl": "urn:uuid:a21ccaf5-9113-4275-a78e-ce5bfd7be4be",
    "resource": {
      "resourceType": "Questionnaire",
      "id": "a21ccaf5-9113-4275-a78e-ce5bfd7be4be",
      "identifier": [ {
        "value": "59132"
      } ],
      "version": "2021-04-06T11:33:34.963Z",
      "status": "active",
      "experimental": false,
      "date": "2021-04-06T11:33:34+00:00",
      "publisher": "User ID: 'MCDONALDD' User name: 'Denzle McDonald' User skill set: 'T3'",
      "lastReviewDate": "2021-04-06",
      "subjectType": [ "Patient" ],
      "item": [ {
        "linkId": "59132",
        "prefix": "14800",
        "text": "STRING:Under11",
        "type": "choice",
        "required": true,
        "repeats": false,
        "option": [ {
          "valueString": "\"present\", Selected: true"
        } ]
      } ]
    }
  }, {
    "fullUrl": "urn:uuid:af6b3ff6-4b81-41f5-8fae-13766f6e5328",
    "resource": {
      "resourceType": "QuestionnaireResponse",
      "id": "af6b3ff6-4b81-41f5-8fae-13766f6e5328",
      "identifier": {
        "value": "59132"
      },
      "questionnaire": {
        "reference": "urn:uuid:2a3ed95f-6701-480d-85f1-ca3b47406472"
      },
      "status": "completed",
      "subject": {
        "reference": "urn:uuid:778cd5a6-2b88-4831-b529-29e22f304df8"
      },
      "context": {
        "reference": "urn:uuid:eb255316-a4d1-4005-90b4-a8b3c3c34152"
      },
      "authored": "2021-04-06T11:33:34+00:00",
      "item": [ {
        "linkId": "Tx224906",
        "text": "AbdominalPainPW",
        "answer": [ {
          "valueString": "*"
        } ]
      } ]
    }
  }, {
    "fullUrl": "urn:uuid:2a3ed95f-6701-480d-85f1-ca3b47406472",
    "resource": {
      "resourceType": "Questionnaire",
      "id": "2a3ed95f-6701-480d-85f1-ca3b47406472",
      "identifier": [ {
        "value": "59132"
      } ],
      "version": "2021-04-06T11:33:34.963Z",
      "status": "active",
      "experimental": false,
      "date": "2021-04-06T11:33:34+00:00",
      "publisher": "User ID: 'MCDONALDD' User name: 'Denzle McDonald' User skill set: 'T3'",
      "lastReviewDate": "2021-04-06",
      "subjectType": [ "Patient" ],
      "item": [ {
        "linkId": "59132",
        "prefix": "15600",
        "text": "AbdominalPainPW",
        "type": "choice",
        "required": true,
        "repeats": false,
        "option": [ {
          "valueString": "==\"present\", Selected: false"
        }, {
          "valueString": "*, Selected: true"
        } ]
      } ]
    }
  }, {
    "fullUrl": "urn:uuid:e11aa623-4e40-4b54-a3cd-902b760b2a3c",
    "resource": {
      "resourceType": "QuestionnaireResponse",
      "id": "e11aa623-4e40-4b54-a3cd-902b760b2a3c",
      "identifier": {
        "value": "59132"
      },
      "questionnaire": {
        "reference": "urn:uuid:2056acf1-8cea-4c94-88a2-3b091b297602"
      },
      "status": "completed",
      "subject": {
        "reference": "urn:uuid:778cd5a6-2b88-4831-b529-29e22f304df8"
      },
      "context": {
        "reference": "urn:uuid:eb255316-a4d1-4005-90b4-a8b3c3c34152"
      },
      "authored": "2021-04-06T11:33:34+00:00",
      "item": [ {
        "linkId": "Tx225151",
        "text": "RectalBleedingwithAbdominalPainPW",
        "answer": [ {
          "valueString": "*"
        } ]
      } ]
    }
  }, {
    "fullUrl": "urn:uuid:2056acf1-8cea-4c94-88a2-3b091b297602",
    "resource": {
      "resourceType": "Questionnaire",
      "id": "2056acf1-8cea-4c94-88a2-3b091b297602",
      "identifier": [ {
        "value": "59132"
      } ],
      "version": "2021-04-06T11:33:34.963Z",
      "status": "active",
      "experimental": false,
      "date": "2021-04-06T11:33:34+00:00",
      "publisher": "User ID: 'MCDONALDD' User name: 'Denzle McDonald' User skill set: 'T3'",
      "lastReviewDate": "2021-04-06",
      "subjectType": [ "Patient" ],
      "item": [ {
        "linkId": "59132",
        "prefix": "21300",
        "text": "RectalBleedingwithAbdominalPainPW",
        "type": "choice",
        "required": true,
        "repeats": false,
        "option": [ {
          "valueString": "==\"present\", Selected: false"
        }, {
          "valueString": "*, Selected: true"
        } ]
      } ]
    }
  }, {
    "fullUrl": "urn:uuid:cdcb3165-43d6-496c-8fa5-2375a94fa67f",
    "resource": {
      "resourceType": "QuestionnaireResponse",
      "id": "cdcb3165-43d6-496c-8fa5-2375a94fa67f",
      "identifier": {
        "value": "59132"
      },
      "questionnaire": {
        "reference": "urn:uuid:390959f9-9604-4668-9971-db88dfe6e51b"
      },
      "status": "completed",
      "subject": {
        "reference": "urn:uuid:778cd5a6-2b88-4831-b529-29e22f304df8"
      },
      "context": {
        "reference": "urn:uuid:eb255316-a4d1-4005-90b4-a8b3c3c34152"
      },
      "authored": "2021-04-06T11:33:34+00:00",
      "item": [ {
        "linkId": "Tx224908",
        "text": "GITSymptomWithAbdominalPain",
        "answer": [ {
          "valueString": "==\"present\""
        } ]
      } ]
    }
  }, {
    "fullUrl": "urn:uuid:390959f9-9604-4668-9971-db88dfe6e51b",
    "resource": {
      "resourceType": "Questionnaire",
      "id": "390959f9-9604-4668-9971-db88dfe6e51b",
      "identifier": [ {
        "value": "59132"
      } ],
      "version": "2021-04-06T11:33:34.963Z",
      "status": "active",
      "experimental": false,
      "date": "2021-04-06T11:33:34+00:00",
      "publisher": "User ID: 'MCDONALDD' User name: 'Denzle McDonald' User skill set: 'T3'",
      "lastReviewDate": "2021-04-06",
      "subjectType": [ "Patient" ],
      "item": [ {
        "linkId": "59132",
        "prefix": "15700",
        "text": "GITSymptomWithAbdominalPain",
        "type": "choice",
        "required": true,
        "repeats": false,
        "option": [ {
          "valueString": "==\"present\", Selected: true"
        }, {
          "valueString": "*, Selected: false"
        } ]
      } ]
    }
  }, {
    "fullUrl": "urn:uuid:88598d07-a211-41ba-b497-3a487d5821a1",
    "resource": {
      "resourceType": "QuestionnaireResponse",
      "id": "88598d07-a211-41ba-b497-3a487d5821a1",
      "identifier": {
        "value": "59132"
      },
      "questionnaire": {
        "reference": "urn:uuid:cad8b724-9580-4a52-a9fe-a2cee7f80e99"
      },
      "status": "completed",
      "subject": {
        "reference": "urn:uuid:778cd5a6-2b88-4831-b529-29e22f304df8"
      },
      "context": {
        "reference": "urn:uuid:eb255316-a4d1-4005-90b4-a8b3c3c34152"
      },
      "authored": "2021-04-06T11:33:34+00:00"
    }
  }, {
    "fullUrl": "urn:uuid:cad8b724-9580-4a52-a9fe-a2cee7f80e99",
    "resource": {
      "resourceType": "Questionnaire",
      "id": "cad8b724-9580-4a52-a9fe-a2cee7f80e99",
      "identifier": [ {
        "value": "59132"
      } ],
      "version": "2021-04-06T11:33:34.963Z",
      "status": "active",
      "experimental": false,
      "date": "2021-04-06T11:33:34+00:00",
      "publisher": "User ID: 'MCDONALDD' User name: 'Denzle McDonald' User skill set: 'T3'",
      "lastReviewDate": "2021-04-06",
      "subjectType": [ "Patient" ]
    }
  }, {
    "fullUrl": "urn:uuid:f9d2a094-a7fa-4456-86ee-ddc1286d0c47",
    "resource": {
      "resourceType": "QuestionnaireResponse",
      "id": "f9d2a094-a7fa-4456-86ee-ddc1286d0c47",
      "identifier": {
        "value": "59132"
      },
      "questionnaire": {
        "reference": "urn:uuid:f83edecd-880d-4709-a36e-de828648d599"
      },
      "status": "completed",
      "subject": {
        "reference": "urn:uuid:778cd5a6-2b88-4831-b529-29e22f304df8"
      },
      "context": {
        "reference": "urn:uuid:eb255316-a4d1-4005-90b4-a8b3c3c34152"
      },
      "authored": "2021-04-06T11:33:34+00:00",
      "item": [ {
        "linkId": "Tx221039",
        "text": "PATIENT_AGEGROUP",
        "answer": [ {
          "valueString": "==\"CHILD\""
        } ]
      } ]
    }
  }, {
    "fullUrl": "urn:uuid:f83edecd-880d-4709-a36e-de828648d599",
    "resource": {
      "resourceType": "Questionnaire",
      "id": "f83edecd-880d-4709-a36e-de828648d599",
      "identifier": [ {
        "value": "59132"
      } ],
      "version": "2021-04-06T11:33:34.963Z",
      "status": "active",
      "experimental": false,
      "date": "2021-04-06T11:33:34+00:00",
      "publisher": "User ID: 'MCDONALDD' User name: 'Denzle McDonald' User skill set: 'T3'",
      "lastReviewDate": "2021-04-06",
      "subjectType": [ "Patient" ],
      "item": [ {
        "linkId": "59132",
        "prefix": "0",
        "text": "PATIENT_AGEGROUP",
        "type": "choice",
        "required": true,
        "repeats": false,
        "option": [ {
          "valueString": "==\"ADULT\", Selected: false"
        }, {
          "valueString": "==\"CHILD\", Selected: true"
        }, {
          "valueString": "==\"TODDLER\", Selected: false"
        }, {
          "valueString": "==\"INFANT\", Selected: false"
        }, {
          "valueString": "==\"NEONATE\", Selected: false"
        }, {
          "valueString": "*, Selected: false"
        } ]
      } ]
    }
  }, {
    "fullUrl": "urn:uuid:bd2d9d99-7e40-45b2-851d-af579c4baca2",
    "resource": {
      "resourceType": "QuestionnaireResponse",
      "id": "bd2d9d99-7e40-45b2-851d-af579c4baca2",
      "identifier": {
        "value": "59132"
      },
      "questionnaire": {
        "reference": "urn:uuid:406ec465-84da-4f64-996c-072f12a780af"
      },
      "status": "completed",
      "subject": {
        "reference": "urn:uuid:778cd5a6-2b88-4831-b529-29e22f304df8"
      },
      "context": {
        "reference": "urn:uuid:eb255316-a4d1-4005-90b4-a8b3c3c34152"
      },
      "authored": "2021-04-06T11:33:34+00:00",
      "item": [ {
        "linkId": "Tx220156",
        "text": "How bad is the pain?",
        "answer": [ {
          "valueString": "bad enough to interfere with normal activity"
        } ]
      } ]
    }
  }, {
    "fullUrl": "urn:uuid:406ec465-84da-4f64-996c-072f12a780af",
    "resource": {
      "resourceType": "Questionnaire",
      "id": "406ec465-84da-4f64-996c-072f12a780af",
      "identifier": [ {
        "value": "59132"
      } ],
      "version": "2021-04-06T11:33:34.963Z",
      "status": "active",
      "experimental": false,
      "date": "2021-04-06T11:33:34+00:00",
      "publisher": "User ID: 'MCDONALDD' User name: 'Denzle McDonald' User skill set: 'T3'",
      "lastReviewDate": "2021-04-06",
      "subjectType": [ "Patient" ],
      "item": [ {
        "linkId": "59132",
        "prefix": "6500",
        "text": "How bad is the pain?",
        "type": "choice",
        "required": true,
        "repeats": false,
        "option": [ {
          "valueString": "so bad that doing anything is impossible, Selected: false"
        }, {
          "valueString": "bad enough to interfere with normal activity, Selected: true"
        }, {
          "valueString": "neither of the above, Selected: false"
        } ]
      } ]
    }
  }, {
    "fullUrl": "urn:uuid:6e8100e2-1f9e-41cf-8b29-a9f3b29171ec",
    "resource": {
      "resourceType": "QuestionnaireResponse",
      "id": "6e8100e2-1f9e-41cf-8b29-a9f3b29171ec",
      "identifier": {
        "value": "59132"
      },
      "questionnaire": {
        "reference": "urn:uuid:66558a71-64c9-4ca7-915a-bfeec5ab8f6b"
      },
      "status": "completed",
      "subject": {
        "reference": "urn:uuid:778cd5a6-2b88-4831-b529-29e22f304df8"
      },
      "context": {
        "reference": "urn:uuid:eb255316-a4d1-4005-90b4-a8b3c3c34152"
      },
      "authored": "2021-04-06T11:33:34+00:00",
      "item": [ {
        "linkId": "Tx224664",
        "text": "STRING:ModeratePain",
        "answer": [ {
          "valueString": "\"present\""
        } ]
      } ]
    }
  }, {
    "fullUrl": "urn:uuid:66558a71-64c9-4ca7-915a-bfeec5ab8f6b",
    "resource": {
      "resourceType": "Questionnaire",
      "id": "66558a71-64c9-4ca7-915a-bfeec5ab8f6b",
      "identifier": [ {
        "value": "59132"
      } ],
      "version": "2021-04-06T11:33:34.963Z",
      "status": "active",
      "experimental": false,
      "date": "2021-04-06T11:33:34+00:00",
      "publisher": "User ID: 'MCDONALDD' User name: 'Denzle McDonald' User skill set: 'T3'",
      "lastReviewDate": "2021-04-06",
      "subjectType": [ "Patient" ],
      "item": [ {
        "linkId": "59132",
        "prefix": "6600",
        "text": "STRING:ModeratePain",
        "type": "choice",
        "required": true,
        "repeats": false,
        "option": [ {
          "valueString": "\"present\", Selected: true"
        } ]
      } ]
    }
  }, {
    "fullUrl": "urn:uuid:ea5bd0f8-07c8-4040-99b0-ead8c44e4267",
    "resource": {
      "resourceType": "QuestionnaireResponse",
      "id": "ea5bd0f8-07c8-4040-99b0-ead8c44e4267",
      "identifier": {
        "value": "59132"
      },
      "questionnaire": {
        "reference": "urn:uuid:6974e7ce-4578-42e3-bd0a-e42d81c9e5f6"
      },
      "status": "completed",
      "subject": {
        "reference": "urn:uuid:778cd5a6-2b88-4831-b529-29e22f304df8"
      },
      "context": {
        "reference": "urn:uuid:eb255316-a4d1-4005-90b4-a8b3c3c34152"
      },
      "authored": "2021-04-06T11:33:34+00:00",
      "item": [ {
        "linkId": "Tx170003",
        "text": "PATIENT_PARTY",
        "answer": [ {
          "valueString": "==1"
        } ]
      } ]
    }
  }, {
    "fullUrl": "urn:uuid:6974e7ce-4578-42e3-bd0a-e42d81c9e5f6",
    "resource": {
      "resourceType": "Questionnaire",
      "id": "6974e7ce-4578-42e3-bd0a-e42d81c9e5f6",
      "identifier": [ {
        "value": "59132"
      } ],
      "version": "2021-04-06T11:33:34.963Z",
      "status": "active",
      "experimental": false,
      "date": "2021-04-06T11:33:34+00:00",
      "publisher": "User ID: 'MCDONALDD' User name: 'Denzle McDonald' User skill set: 'T3'",
      "lastReviewDate": "2021-04-06",
      "subjectType": [ "Patient" ],
      "item": [ {
        "linkId": "59132",
        "prefix": "6800",
        "text": "PATIENT_PARTY",
        "type": "choice",
        "required": true,
        "repeats": false,
        "option": [ {
          "valueString": "==1, Selected: true"
        }, {
          "valueString": "==3, Selected: false"
        }, {
          "valueString": "*, Selected: false"
        } ]
      } ]
    }
  }, {
    "fullUrl": "urn:uuid:4fc11606-4d95-41a1-b541-26fbea455641",
    "resource": {
      "resourceType": "QuestionnaireResponse",
      "id": "4fc11606-4d95-41a1-b541-26fbea455641",
      "identifier": {
        "value": "59132"
      },
      "questionnaire": {
        "reference": "urn:uuid:54193c70-db30-4e53-aa72-f68c79d38638"
      },
      "status": "completed",
      "subject": {
        "reference": "urn:uuid:778cd5a6-2b88-4831-b529-29e22f304df8"
      },
      "context": {
        "reference": "urn:uuid:eb255316-a4d1-4005-90b4-a8b3c3c34152"
      },
      "authored": "2021-04-06T11:33:34+00:00",
      "item": [ {
        "linkId": "Tx224190",
        "text": "Are you so ill that you have stopped doing ALL of your usual activities?",
        "answer": [ {
          "valueString": "no - well enough to do MOST or all activities"
        } ]
      } ]
    }
  }, {
    "fullUrl": "urn:uuid:54193c70-db30-4e53-aa72-f68c79d38638",
    "resource": {
      "resourceType": "Questionnaire",
      "id": "54193c70-db30-4e53-aa72-f68c79d38638",
      "identifier": [ {
        "value": "59132"
      } ],
      "version": "2021-04-06T11:33:34.963Z",
      "status": "active",
      "experimental": false,
      "date": "2021-04-06T11:33:34+00:00",
      "publisher": "User ID: 'MCDONALDD' User name: 'Denzle McDonald' User skill set: 'T3'",
      "lastReviewDate": "2021-04-06",
      "subjectType": [ "Patient" ],
      "item": [ {
        "linkId": "59132",
        "prefix": "6900",
        "text": "Are you so ill that you have stopped doing ALL of your usual activities?",
        "type": "choice",
        "required": true,
        "repeats": false,
        "option": [ {
          "valueString": "yes - so ill they have stopped doing ALL normal activities, Selected: false"
        }, {
          "valueString": "no - unwell but able to do SOME normal activities, Selected: false"
        }, {
          "valueString": "no - well enough to do MOST or all activities, Selected: true"
        } ]
      } ]
    }
  }, {
    "fullUrl": "urn:uuid:77179795-4c3a-495a-a344-20a828fef156",
    "resource": {
      "resourceType": "QuestionnaireResponse",
      "id": "77179795-4c3a-495a-a344-20a828fef156",
      "identifier": {
        "value": "59132"
      },
      "questionnaire": {
        "reference": "urn:uuid:90ecd570-d7c7-40e7-accb-68ba14eb903a"
      },
      "status": "completed",
      "subject": {
        "reference": "urn:uuid:778cd5a6-2b88-4831-b529-29e22f304df8"
      },
      "context": {
        "reference": "urn:uuid:eb255316-a4d1-4005-90b4-a8b3c3c34152"
      },
      "authored": "2021-04-06T11:33:34+00:00",
      "item": [ {
        "linkId": "Tx224916",
        "text": "FlankPainPW",
        "answer": [ {
          "valueString": "*"
        } ]
      } ]
    }
  }, {
    "fullUrl": "urn:uuid:90ecd570-d7c7-40e7-accb-68ba14eb903a",
    "resource": {
      "resourceType": "Questionnaire",
      "id": "90ecd570-d7c7-40e7-accb-68ba14eb903a",
      "identifier": [ {
        "value": "59132"
      } ],
      "version": "2021-04-06T11:33:34.963Z",
      "status": "active",
      "experimental": false,
      "date": "2021-04-06T11:33:34+00:00",
      "publisher": "User ID: 'MCDONALDD' User name: 'Denzle McDonald' User skill set: 'T3'",
      "lastReviewDate": "2021-04-06",
      "subjectType": [ "Patient" ],
      "item": [ {
        "linkId": "59132",
        "prefix": "26500",
        "text": "FlankPainPW",
        "type": "choice",
        "required": true,
        "repeats": false,
        "option": [ {
          "valueString": "==\"present\", Selected: false"
        }, {
          "valueString": "*, Selected: true"
        } ]
      } ]
    }
  }, {
    "fullUrl": "urn:uuid:d274b582-6e56-4470-9565-2ab9e7b8b7ac",
    "resource": {
      "resourceType": "QuestionnaireResponse",
      "id": "d274b582-6e56-4470-9565-2ab9e7b8b7ac",
      "identifier": {
        "value": "59132"
      },
      "questionnaire": {
        "reference": "urn:uuid:0b1f4d6e-4216-4a73-9691-4ea354b87a1b"
      },
      "status": "completed",
      "subject": {
        "reference": "urn:uuid:778cd5a6-2b88-4831-b529-29e22f304df8"
      },
      "context": {
        "reference": "urn:uuid:eb255316-a4d1-4005-90b4-a8b3c3c34152"
      },
      "authored": "2021-04-06T11:33:34+00:00",
      "item": [ {
        "linkId": "Tx222766",
        "text": "PregnancyOver20Weeks",
        "answer": [ {
          "valueString": "*"
        } ]
      } ]
    }
  }, {
    "fullUrl": "urn:uuid:0b1f4d6e-4216-4a73-9691-4ea354b87a1b",
    "resource": {
      "resourceType": "Questionnaire",
      "id": "0b1f4d6e-4216-4a73-9691-4ea354b87a1b",
      "identifier": [ {
        "value": "59132"
      } ],
      "version": "2021-04-06T11:33:34.963Z",
      "status": "active",
      "experimental": false,
      "date": "2021-04-06T11:33:34+00:00",
      "publisher": "User ID: 'MCDONALDD' User name: 'Denzle McDonald' User skill set: 'T3'",
      "lastReviewDate": "2021-04-06",
      "subjectType": [ "Patient" ],
      "item": [ {
        "linkId": "59132",
        "prefix": "16100",
        "text": "PregnancyOver20Weeks",
        "type": "choice",
        "required": true,
        "repeats": false,
        "option": [ {
          "valueString": "==\"present\", Selected: false"
        }, {
          "valueString": "*, Selected: true"
        } ]
      } ]
    }
  }, {
    "fullUrl": "urn:uuid:71c19416-31a6-41d1-9e19-4a6572bee0c6",
    "resource": {
      "resourceType": "QuestionnaireResponse",
      "id": "71c19416-31a6-41d1-9e19-4a6572bee0c6",
      "identifier": {
        "value": "59132"
      },
      "questionnaire": {
        "reference": "urn:uuid:ebd6895f-d391-4967-b2cb-25860cdf8cb3"
      },
      "status": "completed",
      "subject": {
        "reference": "urn:uuid:778cd5a6-2b88-4831-b529-29e22f304df8"
      },
      "context": {
        "reference": "urn:uuid:eb255316-a4d1-4005-90b4-a8b3c3c34152"
      },
      "authored": "2021-04-06T11:33:34+00:00",
      "item": [ {
        "linkId": "Tx225151",
        "text": "RectalBleedingwithAbdominalPainPW",
        "answer": [ {
          "valueString": "*"
        } ]
      } ]
    }
  }, {
    "fullUrl": "urn:uuid:ebd6895f-d391-4967-b2cb-25860cdf8cb3",
    "resource": {
      "resourceType": "Questionnaire",
      "id": "ebd6895f-d391-4967-b2cb-25860cdf8cb3",
      "identifier": [ {
        "value": "59132"
      } ],
      "version": "2021-04-06T11:33:34.963Z",
      "status": "active",
      "experimental": false,
      "date": "2021-04-06T11:33:34+00:00",
      "publisher": "User ID: 'MCDONALDD' User name: 'Denzle McDonald' User skill set: 'T3'",
      "lastReviewDate": "2021-04-06",
      "subjectType": [ "Patient" ],
      "item": [ {
        "linkId": "59132",
        "prefix": "26200",
        "text": "RectalBleedingwithAbdominalPainPW",
        "type": "choice",
        "required": true,
        "repeats": false,
        "option": [ {
          "valueString": "==\"present\", Selected: false"
        }, {
          "valueString": "*, Selected: true"
        } ]
      } ]
    }
  }, {
    "fullUrl": "urn:uuid:621c7f73-6175-4fb8-995c-c260be1bcdd8",
    "resource": {
      "resourceType": "QuestionnaireResponse",
      "id": "621c7f73-6175-4fb8-995c-c260be1bcdd8",
      "identifier": {
        "value": "59132"
      },
      "questionnaire": {
        "reference": "urn:uuid:92580ea8-01e8-4789-bfea-60fc0f0c3d35"
      },
      "status": "completed",
      "subject": {
        "reference": "urn:uuid:778cd5a6-2b88-4831-b529-29e22f304df8"
      },
      "context": {
        "reference": "urn:uuid:eb255316-a4d1-4005-90b4-a8b3c3c34152"
      },
      "authored": "2021-04-06T11:33:34+00:00",
      "item": [ {
        "linkId": "Tx221119",
        "text": "SeverelyIll",
        "answer": [ {
          "valueString": "*"
        } ]
      } ]
    }
  }, {
    "fullUrl": "urn:uuid:92580ea8-01e8-4789-bfea-60fc0f0c3d35",
    "resource": {
      "resourceType": "Questionnaire",
      "id": "92580ea8-01e8-4789-bfea-60fc0f0c3d35",
      "identifier": [ {
        "value": "59132"
      } ],
      "version": "2021-04-06T11:33:34.963Z",
      "status": "active",
      "experimental": false,
      "date": "2021-04-06T11:33:34+00:00",
      "publisher": "User ID: 'MCDONALDD' User name: 'Denzle McDonald' User skill set: 'T3'",
      "lastReviewDate": "2021-04-06",
      "subjectType": [ "Patient" ],
      "item": [ {
        "linkId": "59132",
        "prefix": "7500",
        "text": "SeverelyIll",
        "type": "choice",
        "required": true,
        "repeats": false,
        "option": [ {
          "valueString": "==\"present\", Selected: false"
        }, {
          "valueString": "*, Selected: true"
        } ]
      } ]
    }
  }, {
    "fullUrl": "urn:uuid:d2d280b3-ef76-406e-b6d1-88fa9682bbdd",
    "resource": {
      "resourceType": "QuestionnaireResponse",
      "id": "d2d280b3-ef76-406e-b6d1-88fa9682bbdd",
      "identifier": {
        "value": "59132"
      },
      "questionnaire": {
        "reference": "urn:uuid:0d189c58-2140-42e5-a3e8-c22e7662a34e"
      },
      "status": "completed",
      "subject": {
        "reference": "urn:uuid:778cd5a6-2b88-4831-b529-29e22f304df8"
      },
      "context": {
        "reference": "urn:uuid:eb255316-a4d1-4005-90b4-a8b3c3c34152"
      },
      "authored": "2021-04-06T11:33:34+00:00",
      "item": [ {
        "linkId": "Tx224934",
        "text": "GroinPainOrSwellingPWAbdominalPainPW",
        "answer": [ {
          "valueString": "*"
        } ]
      } ]
    }
  }, {
    "fullUrl": "urn:uuid:0d189c58-2140-42e5-a3e8-c22e7662a34e",
    "resource": {
      "resourceType": "Questionnaire",
      "id": "0d189c58-2140-42e5-a3e8-c22e7662a34e",
      "identifier": [ {
        "value": "59132"
      } ],
      "version": "2021-04-06T11:33:34.963Z",
      "status": "active",
      "experimental": false,
      "date": "2021-04-06T11:33:34+00:00",
      "publisher": "User ID: 'MCDONALDD' User name: 'Denzle McDonald' User skill set: 'T3'",
      "lastReviewDate": "2021-04-06",
      "subjectType": [ "Patient" ],
      "item": [ {
        "linkId": "59132",
        "prefix": "23300",
        "text": "GroinPainOrSwellingPWAbdominalPainPW",
        "type": "choice",
        "required": true,
        "repeats": false,
        "option": [ {
          "valueString": "==\"present\", Selected: false"
        }, {
          "valueString": "*, Selected: true"
        } ]
      } ]
    }
  }, {
    "fullUrl": "urn:uuid:bca6f69c-fe8f-465d-aaca-5ed7577056c5",
    "resource": {
      "resourceType": "QuestionnaireResponse",
      "id": "bca6f69c-fe8f-465d-aaca-5ed7577056c5",
      "identifier": {
        "value": "59132"
      },
      "questionnaire": {
        "reference": "urn:uuid:2062789d-e0ea-45c9-8450-a58c5a9aaca5"
      },
      "status": "completed",
      "subject": {
        "reference": "urn:uuid:778cd5a6-2b88-4831-b529-29e22f304df8"
      },
      "context": {
        "reference": "urn:uuid:eb255316-a4d1-4005-90b4-a8b3c3c34152"
      },
      "authored": "2021-04-06T11:33:34+00:00",
      "item": [ {
        "linkId": "Tx224906",
        "text": "AbdominalPainPW",
        "answer": [ {
          "valueString": "*"
        } ]
      } ]
    }
  }, {
    "fullUrl": "urn:uuid:2062789d-e0ea-45c9-8450-a58c5a9aaca5",
    "resource": {
      "resourceType": "Questionnaire",
      "id": "2062789d-e0ea-45c9-8450-a58c5a9aaca5",
      "identifier": [ {
        "value": "59132"
      } ],
      "version": "2021-04-06T11:33:34.963Z",
      "status": "active",
      "experimental": false,
      "date": "2021-04-06T11:33:34+00:00",
      "publisher": "User ID: 'MCDONALDD' User name: 'Denzle McDonald' User skill set: 'T3'",
      "lastReviewDate": "2021-04-06",
      "subjectType": [ "Patient" ],
      "item": [ {
        "linkId": "59132",
        "prefix": "23400",
        "text": "AbdominalPainPW",
        "type": "choice",
        "required": true,
        "repeats": false,
        "option": [ {
          "valueString": "==\"present\", Selected: false"
        }, {
          "valueString": "*, Selected: true"
        } ]
      } ]
    }
  }, {
    "fullUrl": "urn:uuid:2d30c05a-9b11-4325-b858-a743e7880fe8",
    "resource": {
      "resourceType": "QuestionnaireResponse",
      "id": "2d30c05a-9b11-4325-b858-a743e7880fe8",
      "identifier": {
        "value": "59132"
      },
      "questionnaire": {
        "reference": "urn:uuid:7e75cff6-c5f2-4592-befd-98c627bba783"
      },
      "status": "completed",
      "subject": {
        "reference": "urn:uuid:778cd5a6-2b88-4831-b529-29e22f304df8"
      },
      "context": {
        "reference": "urn:uuid:eb255316-a4d1-4005-90b4-a8b3c3c34152"
      },
      "authored": "2021-04-06T11:33:34+00:00",
      "item": [ {
        "linkId": "Tx224928",
        "text": "VomitingAnd/OrNauseaWithAbdominalPainPW",
        "answer": [ {
          "valueString": "==\"present\""
        } ]
      } ]
    }
  }, {
    "fullUrl": "urn:uuid:7e75cff6-c5f2-4592-befd-98c627bba783",
    "resource": {
      "resourceType": "Questionnaire",
      "id": "7e75cff6-c5f2-4592-befd-98c627bba783",
      "identifier": [ {
        "value": "59132"
      } ],
      "version": "2021-04-06T11:33:34.963Z",
      "status": "active",
      "experimental": false,
      "date": "2021-04-06T11:33:34+00:00",
      "publisher": "User ID: 'MCDONALDD' User name: 'Denzle McDonald' User skill set: 'T3'",
      "lastReviewDate": "2021-04-06",
      "subjectType": [ "Patient" ],
      "item": [ {
        "linkId": "59132",
        "prefix": "23500",
        "text": "VomitingAnd/OrNauseaWithAbdominalPainPW",
        "type": "choice",
        "required": true,
        "repeats": false,
        "option": [ {
          "valueString": "==\"present\", Selected: true"
        }, {
          "valueString": "*, Selected: false"
        } ]
      } ]
    }
  }, {
    "fullUrl": "urn:uuid:cc5d79cd-b0ce-4691-aeb8-01b2a559f135",
    "resource": {
      "resourceType": "QuestionnaireResponse",
      "id": "cc5d79cd-b0ce-4691-aeb8-01b2a559f135",
      "identifier": {
        "value": "59132"
      },
      "questionnaire": {
        "reference": "urn:uuid:b405d209-aec6-4654-abb7-110aedaf185a"
      },
      "status": "completed",
      "subject": {
        "reference": "urn:uuid:778cd5a6-2b88-4831-b529-29e22f304df8"
      },
      "context": {
        "reference": "urn:uuid:eb255316-a4d1-4005-90b4-a8b3c3c34152"
      },
      "authored": "2021-04-06T11:33:34+00:00",
      "item": [ {
        "linkId": "Tx221017",
        "text": "PATIENT_GENDER",
        "answer": [ {
          "valueString": "==\"F\""
        } ]
      } ]
    }
  }, {
    "fullUrl": "urn:uuid:b405d209-aec6-4654-abb7-110aedaf185a",
    "resource": {
      "resourceType": "Questionnaire",
      "id": "b405d209-aec6-4654-abb7-110aedaf185a",
      "identifier": [ {
        "value": "59132"
      } ],
      "version": "2021-04-06T11:33:34.963Z",
      "status": "active",
      "experimental": false,
      "date": "2021-04-06T11:33:34+00:00",
      "publisher": "User ID: 'MCDONALDD' User name: 'Denzle McDonald' User skill set: 'T3'",
      "lastReviewDate": "2021-04-06",
      "subjectType": [ "Patient" ],
      "item": [ {
        "linkId": "59132",
        "prefix": "9000",
        "text": "PATIENT_GENDER",
        "type": "choice",
        "required": true,
        "repeats": false,
        "option": [ {
          "valueString": "==\"M\", Selected: false"
        }, {
          "valueString": "==\"F\", Selected: true"
        }, {
          "valueString": "==\"U\", Selected: false"
        }, {
          "valueString": "*, Selected: false"
        } ]
      } ]
    }
  }, {
    "fullUrl": "urn:uuid:7272e5a2-7873-4161-9958-4a32b0bef71a",
    "resource": {
      "resourceType": "QuestionnaireResponse",
      "id": "7272e5a2-7873-4161-9958-4a32b0bef71a",
      "identifier": {
        "value": "59132"
      },
      "questionnaire": {
        "reference": "urn:uuid:2e906dcb-f619-4254-9ade-d41b4b9811cc"
      },
      "status": "completed",
      "subject": {
        "reference": "urn:uuid:778cd5a6-2b88-4831-b529-29e22f304df8"
      },
      "context": {
        "reference": "urn:uuid:eb255316-a4d1-4005-90b4-a8b3c3c34152"
      },
      "authored": "2021-04-06T11:33:34+00:00"
    }
  }, {
    "fullUrl": "urn:uuid:2e906dcb-f619-4254-9ade-d41b4b9811cc",
    "resource": {
      "resourceType": "Questionnaire",
      "id": "2e906dcb-f619-4254-9ade-d41b4b9811cc",
      "identifier": [ {
        "value": "59132"
      } ],
      "version": "2021-04-06T11:33:34.963Z",
      "status": "active",
      "experimental": false,
      "date": "2021-04-06T11:33:34+00:00",
      "publisher": "User ID: 'MCDONALDD' User name: 'Denzle McDonald' User skill set: 'T3'",
      "lastReviewDate": "2021-04-06",
      "subjectType": [ "Patient" ]
    }
  }, {
    "fullUrl": "urn:uuid:071488f6-aedd-4d0d-85a3-a629c094277f",
    "resource": {
      "resourceType": "QuestionnaireResponse",
      "id": "071488f6-aedd-4d0d-85a3-a629c094277f",
      "identifier": {
        "value": "59132"
      },
      "questionnaire": {
        "reference": "urn:uuid:9a744ac4-47ba-4016-922e-d5033891cbb6"
      },
      "status": "completed",
      "subject": {
        "reference": "urn:uuid:778cd5a6-2b88-4831-b529-29e22f304df8"
      },
      "context": {
        "reference": "urn:uuid:eb255316-a4d1-4005-90b4-a8b3c3c34152"
      },
      "authored": "2021-04-06T11:33:34+00:00",
      "item": [ {
        "linkId": "Tx221114",
        "text": "Pregnancy",
        "answer": [ {
          "valueString": "*"
        } ]
      } ]
    }
  }, {
    "fullUrl": "urn:uuid:9a744ac4-47ba-4016-922e-d5033891cbb6",
    "resource": {
      "resourceType": "Questionnaire",
      "id": "9a744ac4-47ba-4016-922e-d5033891cbb6",
      "identifier": [ {
        "value": "59132"
      } ],
      "version": "2021-04-06T11:33:34.963Z",
      "status": "active",
      "experimental": false,
      "date": "2021-04-06T11:33:34+00:00",
      "publisher": "User ID: 'MCDONALDD' User name: 'Denzle McDonald' User skill set: 'T3'",
      "lastReviewDate": "2021-04-06",
      "subjectType": [ "Patient" ],
      "item": [ {
        "linkId": "59132",
        "prefix": "64500",
        "text": "Pregnancy",
        "type": "choice",
        "required": true,
        "repeats": false,
        "option": [ {
          "valueString": "==\"present\", Selected: false"
        }, {
          "valueString": "*, Selected: true"
        } ]
      } ]
    }
  }, {
    "fullUrl": "urn:uuid:b32ec978-24cd-4b76-a4be-a3cb54635a01",
    "resource": {
      "resourceType": "QuestionnaireResponse",
      "id": "b32ec978-24cd-4b76-a4be-a3cb54635a01",
      "identifier": {
        "value": "59132"
      },
      "questionnaire": {
        "reference": "urn:uuid:77ef44ec-d5f1-4945-8004-a81d31dc5734"
      },
      "status": "completed",
      "subject": {
        "reference": "urn:uuid:778cd5a6-2b88-4831-b529-29e22f304df8"
      },
      "context": {
        "reference": "urn:uuid:eb255316-a4d1-4005-90b4-a8b3c3c34152"
      },
      "authored": "2021-04-06T11:33:34+00:00",
      "item": [ {
        "linkId": "Tx221338",
        "text": ">=11yearsConfirmed",
        "answer": [ {
          "valueString": "*"
        } ]
      } ]
    }
  }, {
    "fullUrl": "urn:uuid:77ef44ec-d5f1-4945-8004-a81d31dc5734",
    "resource": {
      "resourceType": "Questionnaire",
      "id": "77ef44ec-d5f1-4945-8004-a81d31dc5734",
      "identifier": [ {
        "value": "59132"
      } ],
      "version": "2021-04-06T11:33:34.963Z",
      "status": "active",
      "experimental": false,
      "date": "2021-04-06T11:33:34+00:00",
      "publisher": "User ID: 'MCDONALDD' User name: 'Denzle McDonald' User skill set: 'T3'",
      "lastReviewDate": "2021-04-06",
      "subjectType": [ "Patient" ],
      "item": [ {
        "linkId": "59132",
        "prefix": "65600",
        "text": ">=11yearsConfirmed",
        "type": "choice",
        "required": true,
        "repeats": false,
        "option": [ {
          "valueString": "==\"present\", Selected: false"
        }, {
          "valueString": "*, Selected: true"
        } ]
      } ]
    }
  }, {
    "fullUrl": "urn:uuid:6164b4d8-1aff-4907-a6d6-e4c172e33ad6",
    "resource": {
      "resourceType": "QuestionnaireResponse",
      "id": "6164b4d8-1aff-4907-a6d6-e4c172e33ad6",
      "identifier": {
        "value": "59132"
      },
      "questionnaire": {
        "reference": "urn:uuid:4ea07bf6-8ebd-4c64-b792-31349dcb14d0"
      },
      "status": "completed",
      "subject": {
        "reference": "urn:uuid:778cd5a6-2b88-4831-b529-29e22f304df8"
      },
      "context": {
        "reference": "urn:uuid:eb255316-a4d1-4005-90b4-a8b3c3c34152"
      },
      "authored": "2021-04-06T11:33:34+00:00",
      "item": [ {
        "linkId": "Tx221119",
        "text": "SeverelyIll",
        "answer": [ {
          "valueString": "*"
        } ]
      } ]
    }
  }, {
    "fullUrl": "urn:uuid:4ea07bf6-8ebd-4c64-b792-31349dcb14d0",
    "resource": {
      "resourceType": "Questionnaire",
      "id": "4ea07bf6-8ebd-4c64-b792-31349dcb14d0",
      "identifier": [ {
        "value": "59132"
      } ],
      "version": "2021-04-06T11:33:34.963Z",
      "status": "active",
      "experimental": false,
      "date": "2021-04-06T11:33:34+00:00",
      "publisher": "User ID: 'MCDONALDD' User name: 'Denzle McDonald' User skill set: 'T3'",
      "lastReviewDate": "2021-04-06",
      "subjectType": [ "Patient" ],
      "item": [ {
        "linkId": "59132",
        "prefix": "46200",
        "text": "SeverelyIll",
        "type": "choice",
        "required": true,
        "repeats": false,
        "option": [ {
          "valueString": "==\"present\", Selected: false"
        }, {
          "valueString": "*, Selected: true"
        } ]
      } ]
    }
  }, {
    "fullUrl": "urn:uuid:23576166-0948-4793-9ec0-00cf594bd176",
    "resource": {
      "resourceType": "QuestionnaireResponse",
      "id": "23576166-0948-4793-9ec0-00cf594bd176",
      "identifier": {
        "value": "59132"
      },
      "questionnaire": {
        "reference": "urn:uuid:dd591eca-cb1c-401d-aa1c-9844b8be1345"
      },
      "status": "completed",
      "subject": {
        "reference": "urn:uuid:778cd5a6-2b88-4831-b529-29e22f304df8"
      },
      "context": {
        "reference": "urn:uuid:eb255316-a4d1-4005-90b4-a8b3c3c34152"
      },
      "authored": "2021-04-06T11:33:34+00:00",
      "item": [ {
        "linkId": "Tx220947",
        "text": "SeverePain",
        "answer": [ {
          "valueString": "*"
        } ]
      } ]
    }
  }, {
    "fullUrl": "urn:uuid:dd591eca-cb1c-401d-aa1c-9844b8be1345",
    "resource": {
      "resourceType": "Questionnaire",
      "id": "dd591eca-cb1c-401d-aa1c-9844b8be1345",
      "identifier": [ {
        "value": "59132"
      } ],
      "version": "2021-04-06T11:33:34.963Z",
      "status": "active",
      "experimental": false,
      "date": "2021-04-06T11:33:34+00:00",
      "publisher": "User ID: 'MCDONALDD' User name: 'Denzle McDonald' User skill set: 'T3'",
      "lastReviewDate": "2021-04-06",
      "subjectType": [ "Patient" ],
      "item": [ {
        "linkId": "59132",
        "prefix": "64600",
        "text": "SeverePain",
        "type": "choice",
        "required": true,
        "repeats": false,
        "option": [ {
          "valueString": "==\"present\", Selected: false"
        }, {
          "valueString": "*, Selected: true"
        } ]
      } ]
    }
  }, {
    "fullUrl": "urn:uuid:ad761e38-2b03-4aaa-a8c0-23f3c8701bfa",
    "resource": {
      "resourceType": "QuestionnaireResponse",
      "id": "ad761e38-2b03-4aaa-a8c0-23f3c8701bfa",
      "identifier": {
        "value": "59132"
      },
      "questionnaire": {
        "reference": "urn:uuid:cf6a44d1-02b2-42ad-a783-7aa1355ba4ad"
      },
      "status": "completed",
      "subject": {
        "reference": "urn:uuid:778cd5a6-2b88-4831-b529-29e22f304df8"
      },
      "context": {
        "reference": "urn:uuid:eb255316-a4d1-4005-90b4-a8b3c3c34152"
      },
      "authored": "2021-04-06T11:33:34+00:00",
      "item": [ {
        "linkId": "Tx220114",
        "text": "Have you taken anything that might be harmful or poisonous?",
        "answer": [ {
          "valueString": "no"
        } ]
      } ]
    }
  }, {
    "fullUrl": "urn:uuid:cf6a44d1-02b2-42ad-a783-7aa1355ba4ad",
    "resource": {
      "resourceType": "Questionnaire",
      "id": "cf6a44d1-02b2-42ad-a783-7aa1355ba4ad",
      "identifier": [ {
        "value": "59132"
      } ],
      "version": "2021-04-06T11:33:34.963Z",
      "status": "active",
      "experimental": false,
      "date": "2021-04-06T11:33:34+00:00",
      "publisher": "User ID: 'MCDONALDD' User name: 'Denzle McDonald' User skill set: 'T3'",
      "lastReviewDate": "2021-04-06",
      "subjectType": [ "Patient" ],
      "item": [ {
        "linkId": "59132",
        "prefix": "30300",
        "text": "Have you taken anything that might be harmful or poisonous?",
        "type": "choice",
        "required": true,
        "repeats": false,
        "option": [ {
          "valueString": "yes (specify substance if known), Selected: false"
        }, {
          "valueString": "not sure, Selected: false"
        }, {
          "valueString": "no, Selected: true"
        } ]
      } ]
    }
  }, {
    "fullUrl": "urn:uuid:e1e5e12a-90c8-4d36-bfc0-eb5866778bb3",
    "resource": {
      "resourceType": "QuestionnaireResponse",
      "id": "e1e5e12a-90c8-4d36-bfc0-eb5866778bb3",
      "identifier": {
        "value": "59132"
      },
      "questionnaire": {
        "reference": "urn:uuid:1b52b9d8-ded7-4432-90a6-a152ea9e711d"
      },
      "status": "completed",
      "subject": {
        "reference": "urn:uuid:778cd5a6-2b88-4831-b529-29e22f304df8"
      },
      "context": {
        "reference": "urn:uuid:eb255316-a4d1-4005-90b4-a8b3c3c34152"
      },
      "authored": "2021-04-06T11:33:34+00:00",
      "item": [ {
        "linkId": "Tx221176",
        "text": "PregnancyUnder20Weeks",
        "answer": [ {
          "valueString": "*"
        } ]
      } ]
    }
  }, {
    "fullUrl": "urn:uuid:1b52b9d8-ded7-4432-90a6-a152ea9e711d",
    "resource": {
      "resourceType": "Questionnaire",
      "id": "1b52b9d8-ded7-4432-90a6-a152ea9e711d",
      "identifier": [ {
        "value": "59132"
      } ],
      "version": "2021-04-06T11:33:34.963Z",
      "status": "active",
      "experimental": false,
      "date": "2021-04-06T11:33:34+00:00",
      "publisher": "User ID: 'MCDONALDD' User name: 'Denzle McDonald' User skill set: 'T3'",
      "lastReviewDate": "2021-04-06",
      "subjectType": [ "Patient" ],
      "item": [ {
        "linkId": "59132",
        "prefix": "7700",
        "text": "PregnancyUnder20Weeks",
        "type": "choice",
        "required": true,
        "repeats": false,
        "option": [ {
          "valueString": "==\"present\", Selected: false"
        }, {
          "valueString": "*, Selected: true"
        } ]
      } ]
    }
  }, {
    "fullUrl": "urn:uuid:32501355-e2d0-4f77-ae50-9d106d894137",
    "resource": {
      "resourceType": "QuestionnaireResponse",
      "id": "32501355-e2d0-4f77-ae50-9d106d894137",
      "identifier": {
        "value": "59132"
      },
      "questionnaire": {
        "reference": "urn:uuid:2c143c12-763d-49c8-a001-4f9133a2d19d"
      },
      "status": "completed",
      "subject": {
        "reference": "urn:uuid:778cd5a6-2b88-4831-b529-29e22f304df8"
      },
      "context": {
        "reference": "urn:uuid:eb255316-a4d1-4005-90b4-a8b3c3c34152"
      },
      "authored": "2021-04-06T11:33:34+00:00",
      "item": [ {
        "linkId": "Tx221338",
        "text": ">=11yearsConfirmed",
        "answer": [ {
          "valueString": "*"
        } ]
      } ]
    }
  }, {
    "fullUrl": "urn:uuid:2c143c12-763d-49c8-a001-4f9133a2d19d",
    "resource": {
      "resourceType": "Questionnaire",
      "id": "2c143c12-763d-49c8-a001-4f9133a2d19d",
      "identifier": [ {
        "value": "59132"
      } ],
      "version": "2021-04-06T11:33:34.963Z",
      "status": "active",
      "experimental": false,
      "date": "2021-04-06T11:33:34+00:00",
      "publisher": "User ID: 'MCDONALDD' User name: 'Denzle McDonald' User skill set: 'T3'",
      "lastReviewDate": "2021-04-06",
      "subjectType": [ "Patient" ],
      "item": [ {
        "linkId": "59132",
        "prefix": "8200",
        "text": ">=11yearsConfirmed",
        "type": "choice",
        "required": true,
        "repeats": false,
        "option": [ {
          "valueString": "==\"present\", Selected: false"
        }, {
          "valueString": "*, Selected: true"
        } ]
      } ]
    }
  }, {
    "fullUrl": "urn:uuid:f10939b4-52b5-46c0-ad6d-4676b6585f4c",
    "resource": {
      "resourceType": "QuestionnaireResponse",
      "id": "f10939b4-52b5-46c0-ad6d-4676b6585f4c",
      "identifier": {
        "value": "59132"
      },
      "questionnaire": {
        "reference": "urn:uuid:eb0b3fb3-6095-48c8-a8d8-4725ebdd7cca"
      },
      "status": "completed",
      "subject": {
        "reference": "urn:uuid:778cd5a6-2b88-4831-b529-29e22f304df8"
      },
      "context": {
        "reference": "urn:uuid:eb255316-a4d1-4005-90b4-a8b3c3c34152"
      },
      "authored": "2021-04-06T11:33:34+00:00",
      "item": [ {
        "linkId": "Tx1033",
        "text": "Have you passed a bowel motion that looks like either of the following?",
        "answer": [ {
          "valueString": "no"
        } ]
      } ]
    }
  }, {
    "fullUrl": "urn:uuid:eb0b3fb3-6095-48c8-a8d8-4725ebdd7cca",
    "resource": {
      "resourceType": "Questionnaire",
      "id": "eb0b3fb3-6095-48c8-a8d8-4725ebdd7cca",
      "identifier": [ {
        "value": "59132"
      } ],
      "version": "2021-04-06T11:33:34.963Z",
      "status": "active",
      "experimental": false,
      "date": "2021-04-06T11:33:34+00:00",
      "publisher": "User ID: 'MCDONALDD' User name: 'Denzle McDonald' User skill set: 'T3'",
      "lastReviewDate": "2021-04-06",
      "subjectType": [ "Patient" ],
      "item": [ {
        "linkId": "59132",
        "prefix": "65200",
        "text": "Have you passed a bowel motion that looks like either of the following?",
        "type": "choice",
        "required": true,
        "repeats": false,
        "option": [ {
          "valueString": "black and tarry, Selected: false"
        }, {
          "valueString": "red or maroon, Selected: false"
        }, {
          "valueString": "not sure, Selected: false"
        }, {
          "valueString": "no, Selected: true"
        } ]
      } ]
    }
  }, {
    "fullUrl": "urn:uuid:90974843-409c-45c4-aca2-76e9364e80df",
    "resource": {
      "resourceType": "QuestionnaireResponse",
      "id": "90974843-409c-45c4-aca2-76e9364e80df",
      "identifier": {
        "value": "59132"
      },
      "questionnaire": {
        "reference": "urn:uuid:d4e4e88b-4783-4f02-bbd1-dadb73a88ee2"
      },
      "status": "completed",
      "subject": {
        "reference": "urn:uuid:778cd5a6-2b88-4831-b529-29e22f304df8"
      },
      "context": {
        "reference": "urn:uuid:eb255316-a4d1-4005-90b4-a8b3c3c34152"
      },
      "authored": "2021-04-06T11:33:34+00:00",
      "item": [ {
        "linkId": "Tx223274",
        "text": "VHFSymptom",
        "answer": [ {
          "valueString": "*"
        } ]
      } ]
    }
  }, {
    "fullUrl": "urn:uuid:d4e4e88b-4783-4f02-bbd1-dadb73a88ee2",
    "resource": {
      "resourceType": "Questionnaire",
      "id": "d4e4e88b-4783-4f02-bbd1-dadb73a88ee2",
      "identifier": [ {
        "value": "59132"
      } ],
      "version": "2021-04-06T11:33:34.963Z",
      "status": "active",
      "experimental": false,
      "date": "2021-04-06T11:33:34+00:00",
      "publisher": "User ID: 'MCDONALDD' User name: 'Denzle McDonald' User skill set: 'T3'",
      "lastReviewDate": "2021-04-06",
      "subjectType": [ "Patient" ],
      "item": [ {
        "linkId": "59132",
        "prefix": "34000",
        "text": "VHFSymptom",
        "type": "choice",
        "required": true,
        "repeats": false,
        "option": [ {
          "valueString": "==\"present\", Selected: false"
        }, {
          "valueString": "*, Selected: true"
        } ]
      } ]
    }
  }, {
    "fullUrl": "urn:uuid:a6733483-0e36-4c9b-ba5e-1ae96ca89109",
    "resource": {
      "resourceType": "QuestionnaireResponse",
      "id": "a6733483-0e36-4c9b-ba5e-1ae96ca89109",
      "identifier": {
        "value": "59132"
      },
      "questionnaire": {
        "reference": "urn:uuid:bf5322b8-2f55-4efe-898f-c1cd54a66c7d"
      },
      "status": "completed",
      "subject": {
        "reference": "urn:uuid:778cd5a6-2b88-4831-b529-29e22f304df8"
      },
      "context": {
        "reference": "urn:uuid:eb255316-a4d1-4005-90b4-a8b3c3c34152"
      },
      "authored": "2021-04-06T11:33:34+00:00",
      "item": [ {
        "linkId": "Tx224075",
        "text": "SeverelyIllandConfused",
        "answer": [ {
          "valueString": "*"
        } ]
      } ]
    }
  }, {
    "fullUrl": "urn:uuid:bf5322b8-2f55-4efe-898f-c1cd54a66c7d",
    "resource": {
      "resourceType": "Questionnaire",
      "id": "bf5322b8-2f55-4efe-898f-c1cd54a66c7d",
      "identifier": [ {
        "value": "59132"
      } ],
      "version": "2021-04-06T11:33:34.963Z",
      "status": "active",
      "experimental": false,
      "date": "2021-04-06T11:33:34+00:00",
      "publisher": "User ID: 'MCDONALDD' User name: 'Denzle McDonald' User skill set: 'T3'",
      "lastReviewDate": "2021-04-06",
      "subjectType": [ "Patient" ],
      "item": [ {
        "linkId": "59132",
        "prefix": "47300",
        "text": "SeverelyIllandConfused",
        "type": "choice",
        "required": true,
        "repeats": false,
        "option": [ {
          "valueString": "==\"present\", Selected: false"
        }, {
          "valueString": "*, Selected: true"
        } ]
      } ]
    }
  }, {
    "fullUrl": "urn:uuid:70ba10b2-bf7b-4780-8a9c-e9cc7eb05281",
    "resource": {
      "resourceType": "QuestionnaireResponse",
      "id": "70ba10b2-bf7b-4780-8a9c-e9cc7eb05281",
      "identifier": {
        "value": "59132"
      },
      "questionnaire": {
        "reference": "urn:uuid:368fbec6-bb33-48cf-b655-09429be09581"
      },
      "status": "completed",
      "subject": {
        "reference": "urn:uuid:778cd5a6-2b88-4831-b529-29e22f304df8"
      },
      "context": {
        "reference": "urn:uuid:eb255316-a4d1-4005-90b4-a8b3c3c34152"
      },
      "authored": "2021-04-06T11:33:34+00:00",
      "item": [ {
        "linkId": "Tx221119",
        "text": "SeverelyIll",
        "answer": [ {
          "valueString": "*"
        } ]
      } ]
    }
  }, {
    "fullUrl": "urn:uuid:368fbec6-bb33-48cf-b655-09429be09581",
    "resource": {
      "resourceType": "Questionnaire",
      "id": "368fbec6-bb33-48cf-b655-09429be09581",
      "identifier": [ {
        "value": "59132"
      } ],
      "version": "2021-04-06T11:33:34.963Z",
      "status": "active",
      "experimental": false,
      "date": "2021-04-06T11:33:34+00:00",
      "publisher": "User ID: 'MCDONALDD' User name: 'Denzle McDonald' User skill set: 'T3'",
      "lastReviewDate": "2021-04-06",
      "subjectType": [ "Patient" ],
      "item": [ {
        "linkId": "59132",
        "prefix": "55200",
        "text": "SeverelyIll",
        "type": "choice",
        "required": true,
        "repeats": false,
        "option": [ {
          "valueString": "==\"present\", Selected: false"
        }, {
          "valueString": "*, Selected: true"
        } ]
      } ]
    }
  }, {
    "fullUrl": "urn:uuid:6e7a6bb2-e6ab-4542-96ea-5170b5f7e02d",
    "resource": {
      "resourceType": "QuestionnaireResponse",
      "id": "6e7a6bb2-e6ab-4542-96ea-5170b5f7e02d",
      "identifier": {
        "value": "59132"
      },
      "questionnaire": {
        "reference": "urn:uuid:65dfbae8-ee6b-41ae-9180-0a967ebca338"
      },
      "status": "completed",
      "subject": {
        "reference": "urn:uuid:778cd5a6-2b88-4831-b529-29e22f304df8"
      },
      "context": {
        "reference": "urn:uuid:eb255316-a4d1-4005-90b4-a8b3c3c34152"
      },
      "authored": "2021-04-06T11:33:34+00:00",
      "item": [ {
        "linkId": "Tx223485",
        "text": "ConfusionDeclared",
        "answer": [ {
          "valueString": "*"
        } ]
      } ]
    }
  }, {
    "fullUrl": "urn:uuid:65dfbae8-ee6b-41ae-9180-0a967ebca338",
    "resource": {
      "resourceType": "Questionnaire",
      "id": "65dfbae8-ee6b-41ae-9180-0a967ebca338",
      "identifier": [ {
        "value": "59132"
      } ],
      "version": "2021-04-06T11:33:34.963Z",
      "status": "active",
      "experimental": false,
      "date": "2021-04-06T11:33:34+00:00",
      "publisher": "User ID: 'MCDONALDD' User name: 'Denzle McDonald' User skill set: 'T3'",
      "lastReviewDate": "2021-04-06",
      "subjectType": [ "Patient" ],
      "item": [ {
        "linkId": "59132",
        "prefix": "55600",
        "text": "ConfusionDeclared",
        "type": "choice",
        "required": true,
        "repeats": false,
        "option": [ {
          "valueString": "==\"present\", Selected: false"
        }, {
          "valueString": "*, Selected: true"
        } ]
      } ]
    }
  }, {
    "fullUrl": "urn:uuid:9877f22e-be18-4ed6-b8a0-7d5c1e0d669f",
    "resource": {
      "resourceType": "QuestionnaireResponse",
      "id": "9877f22e-be18-4ed6-b8a0-7d5c1e0d669f",
      "identifier": {
        "value": "59132"
      },
      "questionnaire": {
        "reference": "urn:uuid:dd444838-50a1-4f70-86ba-f16fba8e7b3e"
      },
      "status": "completed",
      "subject": {
        "reference": "urn:uuid:778cd5a6-2b88-4831-b529-29e22f304df8"
      },
      "context": {
        "reference": "urn:uuid:eb255316-a4d1-4005-90b4-a8b3c3c34152"
      },
      "authored": "2021-04-06T11:33:34+00:00",
      "item": [ {
        "linkId": "Tx1213",
        "text": "Have you suddenly become confused OR more confused than usual?",
        "answer": [ {
          "valueString": "no"
        } ]
      } ]
    }
  }, {
    "fullUrl": "urn:uuid:dd444838-50a1-4f70-86ba-f16fba8e7b3e",
    "resource": {
      "resourceType": "Questionnaire",
      "id": "dd444838-50a1-4f70-86ba-f16fba8e7b3e",
      "identifier": [ {
        "value": "59132"
      } ],
      "version": "2021-04-06T11:33:34.963Z",
      "status": "active",
      "experimental": false,
      "date": "2021-04-06T11:33:34+00:00",
      "publisher": "User ID: 'MCDONALDD' User name: 'Denzle McDonald' User skill set: 'T3'",
      "lastReviewDate": "2021-04-06",
      "subjectType": [ "Patient" ],
      "item": [ {
        "linkId": "59132",
        "prefix": "55500",
        "text": "Have you suddenly become confused OR more confused than usual?",
        "type": "choice",
        "required": true,
        "repeats": false,
        "option": [ {
          "valueString": "yes, Selected: false"
        }, {
          "valueString": "not sure, Selected: false"
        }, {
          "valueString": "no, Selected: true"
        } ]
      } ]
    }
  }, {
    "fullUrl": "urn:uuid:0aa13525-17b8-494a-aa3c-de44863791c0",
    "resource": {
      "resourceType": "QuestionnaireResponse",
      "id": "0aa13525-17b8-494a-aa3c-de44863791c0",
      "identifier": {
        "value": "59132"
      },
      "questionnaire": {
        "reference": "urn:uuid:04b1df34-4a44-4669-a1ee-9ca6760e3304"
      },
      "status": "completed",
      "subject": {
        "reference": "urn:uuid:778cd5a6-2b88-4831-b529-29e22f304df8"
      },
      "context": {
        "reference": "urn:uuid:eb255316-a4d1-4005-90b4-a8b3c3c34152"
      },
      "authored": "2021-04-06T11:33:34+00:00",
      "item": [ {
        "linkId": "Tx220164",
        "text": "Are you breathing faster or harder when doing nothing at all?",
        "answer": [ {
          "valueString": "no"
        } ]
      } ]
    }
  }, {
    "fullUrl": "urn:uuid:04b1df34-4a44-4669-a1ee-9ca6760e3304",
    "resource": {
      "resourceType": "Questionnaire",
      "id": "04b1df34-4a44-4669-a1ee-9ca6760e3304",
      "identifier": [ {
        "value": "59132"
      } ],
      "version": "2021-04-06T11:33:34.963Z",
      "status": "active",
      "experimental": false,
      "date": "2021-04-06T11:33:34+00:00",
      "publisher": "User ID: 'MCDONALDD' User name: 'Denzle McDonald' User skill set: 'T3'",
      "lastReviewDate": "2021-04-06",
      "subjectType": [ "Patient" ],
      "item": [ {
        "linkId": "59132",
        "prefix": "55400",
        "text": "Are you breathing faster or harder when doing nothing at all?",
        "type": "choice",
        "required": true,
        "repeats": false,
        "option": [ {
          "valueString": "yes, Selected: false"
        }, {
          "valueString": "not sure, Selected: false"
        }, {
          "valueString": "no, Selected: true"
        } ]
      } ]
    }
  }, {
    "fullUrl": "urn:uuid:42dc999e-362c-4bfc-9a56-4283aae96834",
    "resource": {
      "resourceType": "QuestionnaireResponse",
      "id": "42dc999e-362c-4bfc-9a56-4283aae96834",
      "identifier": {
        "value": "59132"
      },
      "questionnaire": {
        "reference": "urn:uuid:f471cdbd-3f0b-44c7-9989-bcab37b3fd9e"
      },
      "status": "completed",
      "subject": {
        "reference": "urn:uuid:778cd5a6-2b88-4831-b529-29e22f304df8"
      },
      "context": {
        "reference": "urn:uuid:eb255316-a4d1-4005-90b4-a8b3c3c34152"
      },
      "authored": "2021-04-06T11:33:34+00:00",
      "item": [ {
        "linkId": "Tx224697",
        "text": "ShoulderTipPainAsked",
        "answer": [ {
          "valueString": "*"
        } ]
      } ]
    }
  }, {
    "fullUrl": "urn:uuid:f471cdbd-3f0b-44c7-9989-bcab37b3fd9e",
    "resource": {
      "resourceType": "Questionnaire",
      "id": "f471cdbd-3f0b-44c7-9989-bcab37b3fd9e",
      "identifier": [ {
        "value": "59132"
      } ],
      "version": "2021-04-06T11:33:34.963Z",
      "status": "active",
      "experimental": false,
      "date": "2021-04-06T11:33:34+00:00",
      "publisher": "User ID: 'MCDONALDD' User name: 'Denzle McDonald' User skill set: 'T3'",
      "lastReviewDate": "2021-04-06",
      "subjectType": [ "Patient" ],
      "item": [ {
        "linkId": "59132",
        "prefix": "59300",
        "text": "ShoulderTipPainAsked",
        "type": "choice",
        "required": true,
        "repeats": false,
        "option": [ {
          "valueString": "==\"present\", Selected: false"
        }, {
          "valueString": "*, Selected: true"
        } ]
      } ]
    }
  }, {
    "fullUrl": "urn:uuid:d7a7e39b-0463-40f7-a369-f7136a7375bc",
    "resource": {
      "resourceType": "QuestionnaireResponse",
      "id": "d7a7e39b-0463-40f7-a369-f7136a7375bc",
      "identifier": {
        "value": "59132"
      },
      "questionnaire": {
        "reference": "urn:uuid:e0101743-099e-4ed7-b805-efad898bd393"
      },
      "status": "completed",
      "subject": {
        "reference": "urn:uuid:778cd5a6-2b88-4831-b529-29e22f304df8"
      },
      "context": {
        "reference": "urn:uuid:eb255316-a4d1-4005-90b4-a8b3c3c34152"
      },
      "authored": "2021-04-06T11:33:34+00:00",
      "item": [ {
        "linkId": "Tx1513",
        "text": "Have you got either of the following problems?",
        "answer": [ {
          "valueString": "no"
        } ]
      } ]
    }
  }, {
    "fullUrl": "urn:uuid:e0101743-099e-4ed7-b805-efad898bd393",
    "resource": {
      "resourceType": "Questionnaire",
      "id": "e0101743-099e-4ed7-b805-efad898bd393",
      "identifier": [ {
        "value": "59132"
      } ],
      "version": "2021-04-06T11:33:34.963Z",
      "status": "active",
      "experimental": false,
      "date": "2021-04-06T11:33:34+00:00",
      "publisher": "User ID: 'MCDONALDD' User name: 'Denzle McDonald' User skill set: 'T3'",
      "lastReviewDate": "2021-04-06",
      "subjectType": [ "Patient" ],
      "item": [ {
        "linkId": "59132",
        "prefix": "11000",
        "text": "Have you got either of the following problems?",
        "type": "choice",
        "required": true,
        "repeats": false,
        "option": [ {
          "valueString": "new pain in the TIP of a shoulder as well, Selected: false"
        }, {
          "valueString": "pain in the lower right side of the abdomen, Selected: false"
        }, {
          "valueString": "not sure, Selected: false"
        }, {
          "valueString": "no, Selected: true"
        } ]
      } ]
    }
  }, {
    "fullUrl": "urn:uuid:08f9b8a0-32b2-40a7-ab1e-8554e51f8e36",
    "resource": {
      "resourceType": "QuestionnaireResponse",
      "id": "08f9b8a0-32b2-40a7-ab1e-8554e51f8e36",
      "identifier": {
        "value": "59132"
      },
      "questionnaire": {
        "reference": "urn:uuid:a5d31365-1517-475e-85a0-deb59327d794"
      },
      "status": "completed",
      "subject": {
        "reference": "urn:uuid:778cd5a6-2b88-4831-b529-29e22f304df8"
      },
      "context": {
        "reference": "urn:uuid:eb255316-a4d1-4005-90b4-a8b3c3c34152"
      },
      "authored": "2021-04-06T11:33:34+00:00",
      "item": [ {
        "linkId": "Tx3481",
        "text": "Has the pain been there ALL THE TIME for MORE THAN 4 HOURS?",
        "answer": [ {
          "valueString": "no (LESS THAN 4 hours)"
        } ]
      } ]
    }
  }, {
    "fullUrl": "urn:uuid:a5d31365-1517-475e-85a0-deb59327d794",
    "resource": {
      "resourceType": "Questionnaire",
      "id": "a5d31365-1517-475e-85a0-deb59327d794",
      "identifier": [ {
        "value": "59132"
      } ],
      "version": "2021-04-06T11:33:34.963Z",
      "status": "active",
      "experimental": false,
      "date": "2021-04-06T11:33:34+00:00",
      "publisher": "User ID: 'MCDONALDD' User name: 'Denzle McDonald' User skill set: 'T3'",
      "lastReviewDate": "2021-04-06",
      "subjectType": [ "Patient" ],
      "item": [ {
        "linkId": "59132",
        "prefix": "13000",
        "text": "Has the pain been there ALL THE TIME for MORE THAN 4 HOURS?",
        "type": "choice",
        "required": true,
        "repeats": false,
        "option": [ {
          "valueString": "yes (4 hours or MORE), Selected: false"
        }, {
          "valueString": "not sure, Selected: false"
        }, {
          "valueString": "no (LESS THAN 4 hours), Selected: true"
        } ]
      } ]
    }
  }, {
    "fullUrl": "urn:uuid:c018dbc4-4636-4e79-a091-7f94e4733ffe",
    "resource": {
      "resourceType": "QuestionnaireResponse",
      "id": "c018dbc4-4636-4e79-a091-7f94e4733ffe",
      "identifier": {
        "value": "59132"
      },
      "questionnaire": {
        "reference": "urn:uuid:19c8c041-8f48-4f73-89b9-6edeb8e05e73"
      },
      "status": "completed",
      "subject": {
        "reference": "urn:uuid:778cd5a6-2b88-4831-b529-29e22f304df8"
      },
      "context": {
        "reference": "urn:uuid:eb255316-a4d1-4005-90b4-a8b3c3c34152"
      },
      "authored": "2021-04-06T11:33:34+00:00",
      "item": [ {
        "linkId": "Tx1178",
        "text": "Have you been diagnosed with diabetes?",
        "answer": [ {
          "valueString": "no"
        } ]
      } ]
    }
  }, {
    "fullUrl": "urn:uuid:19c8c041-8f48-4f73-89b9-6edeb8e05e73",
    "resource": {
      "resourceType": "Questionnaire",
      "id": "19c8c041-8f48-4f73-89b9-6edeb8e05e73",
      "identifier": [ {
        "value": "59132"
      } ],
      "version": "2021-04-06T11:33:34.963Z",
      "status": "active",
      "experimental": false,
      "date": "2021-04-06T11:33:34+00:00",
      "publisher": "User ID: 'MCDONALDD' User name: 'Denzle McDonald' User skill set: 'T3'",
      "lastReviewDate": "2021-04-06",
      "subjectType": [ "Patient" ],
      "item": [ {
        "linkId": "59132",
        "prefix": "13700",
        "text": "Have you been diagnosed with diabetes?",
        "type": "choice",
        "required": true,
        "repeats": false,
        "option": [ {
          "valueString": "yes, Selected: false"
        }, {
          "valueString": "not sure, Selected: false"
        }, {
          "valueString": "no, Selected: true"
        } ]
      } ]
    }
  }, {
    "fullUrl": "urn:uuid:4cb32a1e-04b8-44a5-bf17-cf251e0caed8",
    "resource": {
      "resourceType": "QuestionnaireResponse",
      "id": "4cb32a1e-04b8-44a5-bf17-cf251e0caed8",
      "identifier": {
        "value": "59132"
      },
      "questionnaire": {
        "reference": "urn:uuid:60813518-e989-4522-9ecc-5cee25020c0d"
      },
      "status": "completed",
      "subject": {
        "reference": "urn:uuid:778cd5a6-2b88-4831-b529-29e22f304df8"
      },
      "context": {
        "reference": "urn:uuid:eb255316-a4d1-4005-90b4-a8b3c3c34152"
      },
      "authored": "2021-04-06T11:33:34+00:00",
      "item": [ {
        "linkId": "Tx220906",
        "text": "Have you got pain in the back or side between the ribs and hips?",
        "answer": [ {
          "valueString": "yes"
        } ]
      } ]
    }
  }, {
    "fullUrl": "urn:uuid:60813518-e989-4522-9ecc-5cee25020c0d",
    "resource": {
      "resourceType": "Questionnaire",
      "id": "60813518-e989-4522-9ecc-5cee25020c0d",
      "identifier": [ {
        "value": "59132"
      } ],
      "version": "2021-04-06T11:33:34.963Z",
      "status": "active",
      "experimental": false,
      "date": "2021-04-06T11:33:34+00:00",
      "publisher": "User ID: 'MCDONALDD' User name: 'Denzle McDonald' User skill set: 'T3'",
      "lastReviewDate": "2021-04-06",
      "subjectType": [ "Patient" ],
      "item": [ {
        "linkId": "59132",
        "prefix": "14400",
        "text": "Have you got pain in the back or side between the ribs and hips?",
        "type": "choice",
        "required": true,
        "repeats": false,
        "option": [ {
          "valueString": "yes, Selected: true"
        }, {
          "valueString": "not sure, Selected: false"
        }, {
          "valueString": "no, Selected: false"
        } ]
      } ]
    }
  }, {
    "fullUrl": "urn:uuid:06f6da35-e3f0-4e1f-b04c-db131cf83b1a",
    "resource": {
      "resourceType": "QuestionnaireResponse",
      "id": "06f6da35-e3f0-4e1f-b04c-db131cf83b1a",
      "identifier": {
        "value": "59132"
      },
      "questionnaire": {
        "reference": "urn:uuid:825da658-70c1-43b6-bd9e-9e7ff1dcf4f0"
      },
      "status": "completed",
      "subject": {
        "reference": "urn:uuid:778cd5a6-2b88-4831-b529-29e22f304df8"
      },
      "context": {
        "reference": "urn:uuid:eb255316-a4d1-4005-90b4-a8b3c3c34152"
      },
      "authored": "2021-04-06T11:33:34+00:00",
      "item": [ {
        "linkId": "Tx1122",
        "text": "Have you felt hot or feverish at any time in the last 12 hours?",
        "answer": [ {
          "valueString": "yes - temperature not taken"
        } ]
      } ]
    }
  }, {
    "fullUrl": "urn:uuid:825da658-70c1-43b6-bd9e-9e7ff1dcf4f0",
    "resource": {
      "resourceType": "Questionnaire",
      "id": "825da658-70c1-43b6-bd9e-9e7ff1dcf4f0",
      "identifier": [ {
        "value": "59132"
      } ],
      "version": "2021-04-06T11:33:34.963Z",
      "status": "active",
      "experimental": false,
      "date": "2021-04-06T11:33:34+00:00",
      "publisher": "User ID: 'MCDONALDD' User name: 'Denzle McDonald' User skill set: 'T3'",
      "lastReviewDate": "2021-04-06",
      "subjectType": [ "Patient" ],
      "item": [ {
        "linkId": "59132",
        "prefix": "14700",
        "text": "Have you felt hot or feverish at any time in the last 12 hours?",
        "type": "choice",
        "required": true,
        "repeats": false,
        "option": [ {
          "valueString": "yes - temperature not taken, Selected: true"
        }, {
          "valueString": "yes - temperature taken (specify), Selected: false"
        }, {
          "valueString": "not sure, Selected: false"
        }, {
          "valueString": "no, Selected: false"
        } ]
      } ]
    }
  }, {
    "fullUrl": "urn:uuid:31798b69-bddd-4ba6-a8d2-e3fc15301275",
    "resource": {
      "resourceType": "QuestionnaireResponse",
      "id": "31798b69-bddd-4ba6-a8d2-e3fc15301275",
      "identifier": {
        "value": "59132"
      },
      "questionnaire": {
        "reference": "urn:uuid:48a1ea0f-2778-41a6-a867-f339aa3f4ecf"
      },
      "status": "completed",
      "subject": {
        "reference": "urn:uuid:778cd5a6-2b88-4831-b529-29e22f304df8"
      },
      "context": {
        "reference": "urn:uuid:eb255316-a4d1-4005-90b4-a8b3c3c34152"
      },
      "authored": "2021-04-06T11:33:34+00:00",
      "item": [ {
        "linkId": "Tx1320",
        "text": "Have you got a new red rash all over, like sunburn?",
        "answer": [ {
          "valueString": "no"
        } ]
      } ]
    }
  }, {
    "fullUrl": "urn:uuid:48a1ea0f-2778-41a6-a867-f339aa3f4ecf",
    "resource": {
      "resourceType": "Questionnaire",
      "id": "48a1ea0f-2778-41a6-a867-f339aa3f4ecf",
      "identifier": [ {
        "value": "59132"
      } ],
      "version": "2021-04-06T11:33:34.963Z",
      "status": "active",
      "experimental": false,
      "date": "2021-04-06T11:33:34+00:00",
      "publisher": "User ID: 'MCDONALDD' User name: 'Denzle McDonald' User skill set: 'T3'",
      "lastReviewDate": "2021-04-06",
      "subjectType": [ "Patient" ],
      "item": [ {
        "linkId": "59132",
        "prefix": "14800",
        "text": "Have you got a new red rash all over, like sunburn?",
        "type": "choice",
        "required": true,
        "repeats": false,
        "option": [ {
          "valueString": "yes, Selected: false"
        }, {
          "valueString": "not sure, Selected: false"
        }, {
          "valueString": "no, Selected: true"
        } ]
      } ]
    }
  }, {
    "fullUrl": "urn:uuid:03a67b19-2004-408a-972c-634073c4192f",
    "resource": {
      "resourceType": "QuestionnaireResponse",
      "id": "03a67b19-2004-408a-972c-634073c4192f",
      "identifier": {
        "value": "59132"
      },
      "questionnaire": {
        "reference": "urn:uuid:d1c3627f-1051-4061-9fe0-ad38dedaaca7"
      },
      "status": "completed",
      "subject": {
        "reference": "urn:uuid:778cd5a6-2b88-4831-b529-29e22f304df8"
      },
      "context": {
        "reference": "urn:uuid:eb255316-a4d1-4005-90b4-a8b3c3c34152"
      },
      "authored": "2021-04-06T11:33:34+00:00",
      "item": [ {
        "linkId": "Tx221449",
        "text": "STRING:SDPCFullPrimaryCareassessmentandprescribingcapability",
        "answer": [ {
          "valueString": "\"PC full Primary Care assessment and prescribing capability\""
        } ]
      } ]
    }
  }, {
    "fullUrl": "urn:uuid:d1c3627f-1051-4061-9fe0-ad38dedaaca7",
    "resource": {
      "resourceType": "Questionnaire",
      "id": "d1c3627f-1051-4061-9fe0-ad38dedaaca7",
      "identifier": [ {
        "value": "59132"
      } ],
      "version": "2021-04-06T11:33:34.963Z",
      "status": "active",
      "experimental": false,
      "date": "2021-04-06T11:33:34+00:00",
      "publisher": "User ID: 'MCDONALDD' User name: 'Denzle McDonald' User skill set: 'T3'",
      "lastReviewDate": "2021-04-06",
      "subjectType": [ "Patient" ],
      "item": [ {
        "linkId": "59132",
        "prefix": "14900",
        "text": "STRING:SDPCFullPrimaryCareassessmentandprescribingcapability",
        "type": "choice",
        "required": true,
        "repeats": false,
        "option": [ {
          "valueString": "\"PC full Primary Care assessment and prescribing capability\", Selected: true"
        } ]
      } ]
    }
  }, {
    "fullUrl": "urn:uuid:b5f1c290-9a12-4820-b465-5bf8f6099744",
    "resource": {
      "resourceType": "QuestionnaireResponse",
      "id": "b5f1c290-9a12-4820-b465-5bf8f6099744",
      "identifier": {
        "value": "59132"
      },
      "questionnaire": {
        "reference": "urn:uuid:a7ed3692-868a-413c-bc94-5df59414d2eb"
      },
      "status": "completed",
      "subject": {
        "reference": "urn:uuid:778cd5a6-2b88-4831-b529-29e22f304df8"
      },
      "context": {
        "reference": "urn:uuid:eb255316-a4d1-4005-90b4-a8b3c3c34152"
      },
      "authored": "2021-04-06T11:33:34+00:00"
    }
  }, {
    "fullUrl": "urn:uuid:a7ed3692-868a-413c-bc94-5df59414d2eb",
    "resource": {
      "resourceType": "Questionnaire",
      "id": "a7ed3692-868a-413c-bc94-5df59414d2eb",
      "identifier": [ {
        "value": "59132"
      } ],
      "version": "2021-04-06T11:33:34.963Z",
      "status": "active",
      "experimental": false,
      "date": "2021-04-06T11:33:34+00:00",
      "publisher": "User ID: 'MCDONALDD' User name: 'Denzle McDonald' User skill set: 'T3'",
      "lastReviewDate": "2021-04-06",
      "subjectType": [ "Patient" ]
    }
  }, {
    "fullUrl": "urn:uuid:e86220b9-c0a8-41ff-82be-cf7eecf6988b",
    "resource": {
      "resourceType": "QuestionnaireResponse",
      "id": "e86220b9-c0a8-41ff-82be-cf7eecf6988b",
      "identifier": {
        "value": "59132"
      },
      "questionnaire": {
        "reference": "urn:uuid:5a4ed92f-cb69-4534-917d-533a9fc107be"
      },
      "status": "completed",
      "subject": {
        "reference": "urn:uuid:778cd5a6-2b88-4831-b529-29e22f304df8"
      },
      "context": {
        "reference": "urn:uuid:eb255316-a4d1-4005-90b4-a8b3c3c34152"
      },
      "authored": "2021-04-06T11:33:34+00:00"
    }
  }, {
    "fullUrl": "urn:uuid:5a4ed92f-cb69-4534-917d-533a9fc107be",
    "resource": {
      "resourceType": "Questionnaire",
      "id": "5a4ed92f-cb69-4534-917d-533a9fc107be",
      "identifier": [ {
        "value": "59132"
      } ],
      "version": "2021-04-06T11:33:34.963Z",
      "status": "active",
      "experimental": false,
      "date": "2021-04-06T11:33:34+00:00",
      "publisher": "User ID: 'MCDONALDD' User name: 'Denzle McDonald' User skill set: 'T3'",
      "lastReviewDate": "2021-04-06",
      "subjectType": [ "Patient" ]
    }
  }, {
    "fullUrl": "urn:uuid:be028c86-be17-4888-bf5c-690df20f4451",
    "resource": {
      "resourceType": "QuestionnaireResponse",
      "id": "be028c86-be17-4888-bf5c-690df20f4451",
      "identifier": {
        "value": "59132"
      },
      "questionnaire": {
        "reference": "urn:uuid:f63ee536-8945-4a2a-94e4-80b78223d65a"
      },
      "status": "completed",
      "subject": {
        "reference": "urn:uuid:778cd5a6-2b88-4831-b529-29e22f304df8"
      },
      "context": {
        "reference": "urn:uuid:eb255316-a4d1-4005-90b4-a8b3c3c34152"
      },
      "authored": "2021-04-06T11:33:34+00:00"
    }
  }, {
    "fullUrl": "urn:uuid:f63ee536-8945-4a2a-94e4-80b78223d65a",
    "resource": {
      "resourceType": "Questionnaire",
      "id": "f63ee536-8945-4a2a-94e4-80b78223d65a",
      "identifier": [ {
        "value": "59132"
      } ],
      "version": "2021-04-06T11:33:34.963Z",
      "status": "active",
      "experimental": false,
      "date": "2021-04-06T11:33:34+00:00",
      "publisher": "User ID: 'MCDONALDD' User name: 'Denzle McDonald' User skill set: 'T3'",
      "lastReviewDate": "2021-04-06",
      "subjectType": [ "Patient" ]
    }
  }, {
    "fullUrl": "urn:uuid:30d46e3a-c2cd-47db-a8a2-6661f99c7c72",
    "resource": {
      "resourceType": "QuestionnaireResponse",
      "id": "30d46e3a-c2cd-47db-a8a2-6661f99c7c72",
      "identifier": {
        "value": "59132"
      },
      "questionnaire": {
        "reference": "urn:uuid:947f58f8-fc38-40ff-958e-3c716965f9ee"
      },
      "status": "completed",
      "subject": {
        "reference": "urn:uuid:778cd5a6-2b88-4831-b529-29e22f304df8"
      },
      "context": {
        "reference": "urn:uuid:eb255316-a4d1-4005-90b4-a8b3c3c34152"
      },
      "authored": "2021-04-06T11:33:34+00:00"
    }
  }, {
    "fullUrl": "urn:uuid:947f58f8-fc38-40ff-958e-3c716965f9ee",
    "resource": {
      "resourceType": "Questionnaire",
      "id": "947f58f8-fc38-40ff-958e-3c716965f9ee",
      "identifier": [ {
        "value": "59132"
      } ],
      "version": "2021-04-06T11:33:34.963Z",
      "status": "active",
      "experimental": false,
      "date": "2021-04-06T11:33:34+00:00",
      "publisher": "User ID: 'MCDONALDD' User name: 'Denzle McDonald' User skill set: 'T3'",
      "lastReviewDate": "2021-04-06",
      "subjectType": [ "Patient" ]
    }
  }, {
    "fullUrl": "urn:uuid:0a636973-72ac-44c7-a229-cc0301861755",
    "resource": {
      "resourceType": "QuestionnaireResponse",
      "id": "0a636973-72ac-44c7-a229-cc0301861755",
      "identifier": {
        "value": "59132"
      },
      "questionnaire": {
        "reference": "urn:uuid:25be7270-2809-4f76-9e2c-3a0c70c23f3e"
      },
      "status": "completed",
      "subject": {
        "reference": "urn:uuid:778cd5a6-2b88-4831-b529-29e22f304df8"
      },
      "context": {
        "reference": "urn:uuid:eb255316-a4d1-4005-90b4-a8b3c3c34152"
      },
      "authored": "2021-04-06T11:33:34+00:00"
    }
  }, {
    "fullUrl": "urn:uuid:25be7270-2809-4f76-9e2c-3a0c70c23f3e",
    "resource": {
      "resourceType": "Questionnaire",
      "id": "25be7270-2809-4f76-9e2c-3a0c70c23f3e",
      "identifier": [ {
        "value": "59132"
      } ],
      "version": "2021-04-06T11:33:34.963Z",
      "status": "active",
      "experimental": false,
      "date": "2021-04-06T11:33:34+00:00",
      "publisher": "User ID: 'MCDONALDD' User name: 'Denzle McDonald' User skill set: 'T3'",
      "lastReviewDate": "2021-04-06",
      "subjectType": [ "Patient" ]
    }
  }, {
    "fullUrl": "urn:uuid:e316a26d-00ad-4e87-a953-705b3d564db2",
    "resource": {
      "resourceType": "Observation",
      "id": "e316a26d-00ad-4e87-a953-705b3d564db2",
      "status": "final",
      "code": {
        "coding": [ {
          "system": "http://snomed.info/sct",
          "code": "33962009",
          "display": "Presenting complaint"
        } ]
      },
      "subject": {
        "reference": "urn:uuid:778cd5a6-2b88-4831-b529-29e22f304df8"
      },
      "context": {
        "reference": "urn:uuid:eb255316-a4d1-4005-90b4-a8b3c3c34152"
      },
      "valueString": "Pharmacy ITK Testing"
    }
  }, {
    "fullUrl": "urn:uuid:dac78f08-721b-4284-abb3-8abe3d1f1cee",
    "resource": {
      "resourceType": "PractitionerRole",
      "id": "dac78f08-721b-4284-abb3-8abe3d1f1cee",
      "practitioner": {
        "reference": "urn:uuid:0819ee3e-2d77-47fb-b070-a3dc930ffe31"
      },
      "organization": {
        "reference": "urn:uuid:85f1c189-322c-458e-a1de-3d69d56297f3"
      },
      "code": [ {
        "coding": [ {
          "system": "2.16.840.1.113883.2.1.3.2.4.17.339",
          "code": "DOCTOR",
          "display": "Doctor"
        } ]
      } ]
    }
  }, {
    "fullUrl": "urn:uuid:85f1c189-322c-458e-a1de-3d69d56297f3",
    "resource": {
      "resourceType": "Organization",
      "id": "85f1c189-322c-458e-a1de-3d69d56297f3",
      "identifier": [ {
        "value": "RYE"
      } ],
      "name": "1.SCAS Administrator (SCAS111)"
    }
  }, {
    "fullUrl": "urn:uuid:0ae4b8e0-dc5f-4fc0-a1c5-4c5efedba08e",
    "resource": {
      "resourceType": "PractitionerRole",
      "id": "0ae4b8e0-dc5f-4fc0-a1c5-4c5efedba08e",
      "practitioner": {
        "reference": "urn:uuid:38f45052-c6de-4abc-9a68-245b95796499"
      },
      "organization": {
        "reference": "urn:uuid:d1c567f7-3257-4bab-b4a3-a62137002230"
      },
      "code": [ {
        "coding": [ {
          "system": "2.16.840.1.113883.2.1.3.2.4.17.196",
          "code": "R0010",
          "display": "Medical Director"
        } ]
      } ]
    }
  }, {
    "fullUrl": "urn:uuid:d1c567f7-3257-4bab-b4a3-a62137002230",
    "resource": {
      "resourceType": "Organization",
      "id": "d1c567f7-3257-4bab-b4a3-a62137002230",
      "identifier": [ {
        "value": "RYE"
      } ],
      "name": "SCAS111"
    }
  }, {
    "fullUrl": "urn:uuid:50efe5f8-f68d-4d70-8a0c-0c40b54d7984",
    "resource": {
      "resourceType": "RelatedPerson",
      "id": "50efe5f8-f68d-4d70-8a0c-0c40b54d7984",
      "patient": {
        "reference": "urn:uuid:778cd5a6-2b88-4831-b529-29e22f304df8"
      },
      "relationship": {
        "coding": [ {
          "system": "http://hl7.org/fhir/v2/0131",
          "code": "C",
          "display": "Emergency Contact"
        } ]
      },
      "telecom": [ {
        "system": "phone",
        "value": "tel:07948625625"
      } ]
    }
  }, {
    "fullUrl": "urn:uuid:fa6ceea6-f2e3-46d2-86ba-d6b9e53c818d",
    "resource": {
      "resourceType": "Device",
      "id": "fa6ceea6-f2e3-46d2-86ba-d6b9e53c818d",
      "model": "111 Adaptor",
      "version": "1.0.1"
    }
  }, {
    "fullUrl": "urn:uuid:6b260eec-8dba-4720-934e-0e3deb6f002f",
    "resource": {
      "resourceType": "List",
      "id": "6b260eec-8dba-4720-934e-0e3deb6f002f",
      "status": "current",
      "mode": "working",
      "title": "111 Report List",
      "code": {
        "coding": [ {
          "system": "http://snomed.info/sct",
          "code": "225390008",
          "display": "Triage"
        } ]
      },
      "subject": {
        "reference": "urn:uuid:778cd5a6-2b88-4831-b529-29e22f304df8"
      },
      "encounter": {
        "reference": "urn:uuid:eb255316-a4d1-4005-90b4-a8b3c3c34152"
      },
      "date": "2021-04-06T11:33:35+00:00",
      "source": {
        "reference": "urn:uuid:fa6ceea6-f2e3-46d2-86ba-d6b9e53c818d"
      },
      "orderedBy": {
        "coding": [ {
          "system": "http://hl7.org/fhir/list-order",
          "code": "event-date",
          "display": "Sorted by Event Date"
        } ]
      },
      "entry": [ {
        "item": {
          "reference": "urn:uuid:3dff46d6-00f1-42e7-a17f-478a014e490a"
        }
      }, {
        "item": {
          "reference": "urn:uuid:50efe5f8-f68d-4d70-8a0c-0c40b54d7984"
        }
      }, {
        "item": {
          "reference": "urn:uuid:85f1c189-322c-458e-a1de-3d69d56297f3"
        }
      }, {
        "item": {
          "reference": "urn:uuid:d4fe226f-8782-4f19-8967-320f3243e896"
        }
      }, {
        "item": {
          "reference": "urn:uuid:3a618cdc-1483-46fa-ad58-7bc6dfd02400"
        }
      }, {
        "item": {
          "reference": "urn:uuid:d1c567f7-3257-4bab-b4a3-a62137002230"
        }
      }, {
        "item": {
          "reference": "urn:uuid:38f45052-c6de-4abc-9a68-245b95796499"
        }
      }, {
        "item": {
          "reference": "urn:uuid:0819ee3e-2d77-47fb-b070-a3dc930ffe31"
        }
      }, {
        "item": {
          "reference": "urn:uuid:925f29e3-1922-4d46-af11-e9b2748b1157"
        }
      }, {
        "item": {
          "reference": "urn:uuid:0227e499-7b66-4fab-bb73-5be150328f9c"
        }
      }, {
        "item": {
          "reference": "urn:uuid:e316a26d-00ad-4e87-a953-705b3d564db2"
        }
      }, {
        "item": {
          "reference": "urn:uuid:6ab3786b-e933-4a41-bf86-0e0310132000"
        }
      }, {
        "item": {
          "reference": "urn:uuid:bd2d9d99-7e40-45b2-851d-af579c4baca2"
        }
      }, {
        "item": {
          "reference": "urn:uuid:0ec45291-108f-49e9-80f5-0ed8a69a2d1c"
        }
      }, {
        "item": {
          "reference": "urn:uuid:cdcb3165-43d6-496c-8fa5-2375a94fa67f"
        }
      }, {
        "item": {
          "reference": "urn:uuid:95360258-e8d4-4bd1-b794-22831ff25286"
        }
      }, {
        "item": {
          "reference": "urn:uuid:7272e5a2-7873-4161-9958-4a32b0bef71a"
        }
      }, {
        "item": {
          "reference": "urn:uuid:65dfbae8-ee6b-41ae-9180-0a967ebca338"
        }
      }, {
        "item": {
          "reference": "urn:uuid:f761db31-3c1a-458a-a240-9a531e7b8e93"
        }
      }, {
        "item": {
          "reference": "urn:uuid:54193c70-db30-4e53-aa72-f68c79d38638"
        }
      }, {
        "item": {
          "reference": "urn:uuid:071488f6-aedd-4d0d-85a3-a629c094277f"
        }
      }, {
        "item": {
          "reference": "urn:uuid:0d189c58-2140-42e5-a3e8-c22e7662a34e"
        }
      }, {
        "item": {
          "reference": "urn:uuid:cd8364b5-4861-4e70-b8ff-da4c874bd524"
        }
      }, {
        "item": {
          "reference": "urn:uuid:60813518-e989-4522-9ecc-5cee25020c0d"
        }
      }, {
        "item": {
          "reference": "urn:uuid:66558a71-64c9-4ca7-915a-bfeec5ab8f6b"
        }
      }, {
        "item": {
          "reference": "urn:uuid:c018dbc4-4636-4e79-a091-7f94e4733ffe"
        }
      }, {
        "item": {
          "reference": "urn:uuid:390959f9-9604-4668-9971-db88dfe6e51b"
        }
      }, {
        "item": {
          "reference": "urn:uuid:947f58f8-fc38-40ff-958e-3c716965f9ee"
        }
      }, {
        "item": {
          "reference": "urn:uuid:6e7a6bb2-e6ab-4542-96ea-5170b5f7e02d"
        }
      }, {
        "item": {
          "reference": "urn:uuid:06605266-07b7-4d64-9c3e-0402339dc7ca"
        }
      }, {
        "item": {
          "reference": "urn:uuid:b405d209-aec6-4654-abb7-110aedaf185a"
        }
      }, {
        "item": {
          "reference": "urn:uuid:729ae7ff-1b79-4dbc-90ea-4e1520ae891c"
        }
      }, {
        "item": {
          "reference": "urn:uuid:86a2bbfd-a32b-40aa-b066-bdd906e79fef"
        }
      }, {
        "item": {
          "reference": "urn:uuid:b806133b-a9c5-4896-add2-751d426998e2"
        }
      }, {
        "item": {
          "reference": "urn:uuid:dae97a64-e20f-406b-9e09-c758a571c52f"
        }
      }, {
        "item": {
          "reference": "urn:uuid:9ba7373e-fefb-4441-8767-89ec63170479"
        }
      }, {
        "item": {
          "reference": "urn:uuid:cad8b724-9580-4a52-a9fe-a2cee7f80e99"
        }
      }, {
        "item": {
          "reference": "urn:uuid:30d46e3a-c2cd-47db-a8a2-6661f99c7c72"
        }
      }, {
        "item": {
          "reference": "urn:uuid:e14312fa-fe8b-4318-a984-3debd75e4e37"
        }
      }, {
        "item": {
          "reference": "urn:uuid:e1e5e12a-90c8-4d36-bfc0-eb5866778bb3"
        }
      }, {
        "item": {
          "reference": "urn:uuid:2d30c05a-9b11-4325-b858-a743e7880fe8"
        }
      }, {
        "item": {
          "reference": "urn:uuid:26e72631-8546-4437-a301-c63c9e0371f0"
        }
      }, {
        "item": {
          "reference": "urn:uuid:00002bb9-c1fa-4b74-b64e-43362bae60b5"
        }
      }, {
        "item": {
          "reference": "urn:uuid:2a3ed95f-6701-480d-85f1-ca3b47406472"
        }
      }, {
        "item": {
          "reference": "urn:uuid:dd444838-50a1-4f70-86ba-f16fba8e7b3e"
        }
      }, {
        "item": {
          "reference": "urn:uuid:d1c3627f-1051-4061-9fe0-ad38dedaaca7"
        }
      }, {
        "item": {
          "reference": "urn:uuid:0a636973-72ac-44c7-a229-cc0301861755"
        }
      }, {
        "item": {
          "reference": "urn:uuid:d274b582-6e56-4470-9565-2ab9e7b8b7ac"
        }
      }, {
        "item": {
          "reference": "urn:uuid:21abc344-db0e-4fce-ad81-42fef218c54c"
        }
      }, {
        "item": {
          "reference": "urn:uuid:77179795-4c3a-495a-a344-20a828fef156"
        }
      }, {
        "item": {
          "reference": "urn:uuid:e0dd8b17-42b7-4933-9a46-f61482ac0335"
        }
      }, {
        "item": {
          "reference": "urn:uuid:2fec7bab-7904-4e43-b7a9-9ed22bc5cad1"
        }
      }, {
        "item": {
          "reference": "urn:uuid:6974e7ce-4578-42e3-bd0a-e42d81c9e5f6"
        }
      }, {
        "item": {
          "reference": "urn:uuid:4fc11606-4d95-41a1-b541-26fbea455641"
        }
      }, {
        "item": {
          "reference": "urn:uuid:cf6a44d1-02b2-42ad-a783-7aa1355ba4ad"
        }
      }, {
        "item": {
          "reference": "urn:uuid:0b1f4d6e-4216-4a73-9691-4ea354b87a1b"
        }
      }, {
        "item": {
          "reference": "urn:uuid:08f9b8a0-32b2-40a7-ab1e-8554e51f8e36"
        }
      }, {
        "item": {
          "reference": "urn:uuid:be028c86-be17-4888-bf5c-690df20f4451"
        }
      }, {
        "item": {
          "reference": "urn:uuid:f63ee536-8945-4a2a-94e4-80b78223d65a"
        }
      }, {
        "item": {
          "reference": "urn:uuid:ecf74bbc-b0a8-462e-8586-35087296d355"
        }
      }, {
        "item": {
          "reference": "urn:uuid:88598d07-a211-41ba-b497-3a487d5821a1"
        }
      }, {
        "item": {
          "reference": "urn:uuid:9877f22e-be18-4ed6-b8a0-7d5c1e0d669f"
        }
      }, {
        "item": {
          "reference": "urn:uuid:29971311-53bc-4e66-91a4-478fdf07dff8"
        }
      }, {
        "item": {
          "reference": "urn:uuid:8b5c377f-6d3f-4126-9862-791df57ff6ff"
        }
      }, {
        "item": {
          "reference": "urn:uuid:64830fb2-dbc4-4e0c-a48d-9fccd9c038bc"
        }
      }, {
        "item": {
          "reference": "urn:uuid:b32ec978-24cd-4b76-a4be-a3cb54635a01"
        }
      }, {
        "item": {
          "reference": "urn:uuid:bd879349-f92d-418e-8692-41a2fe200256"
        }
      }, {
        "item": {
          "reference": "urn:uuid:19c8c041-8f48-4f73-89b9-6edeb8e05e73"
        }
      }, {
        "item": {
          "reference": "urn:uuid:e1a1e462-6695-4a77-a040-54c36f4e89c9"
        }
      }, {
        "item": {
          "reference": "urn:uuid:e0101743-099e-4ed7-b805-efad898bd393"
        }
      }, {
        "item": {
          "reference": "urn:uuid:4cb32a1e-04b8-44a5-bf17-cf251e0caed8"
        }
      }, {
        "item": {
          "reference": "urn:uuid:621c7f73-6175-4fb8-995c-c260be1bcdd8"
        }
      }, {
        "item": {
          "reference": "urn:uuid:2e906dcb-f619-4254-9ade-d41b4b9811cc"
        }
      }, {
        "item": {
          "reference": "urn:uuid:106c6361-d7e4-422b-ae88-05e3b3c9a40f"
        }
      }, {
        "item": {
          "reference": "urn:uuid:23576166-0948-4793-9ec0-00cf594bd176"
        }
      }, {
        "item": {
          "reference": "urn:uuid:cc59571f-4263-47d3-b0a4-9e44e7fa31c9"
        }
      }, {
        "item": {
          "reference": "urn:uuid:c268f26e-fd7d-467b-be51-e4e24f8bc845"
        }
      }, {
        "item": {
          "reference": "urn:uuid:06f6da35-e3f0-4e1f-b04c-db131cf83b1a"
        }
      }, {
        "item": {
          "reference": "urn:uuid:d7a7e39b-0463-40f7-a369-f7136a7375bc"
        }
      }, {
        "item": {
          "reference": "urn:uuid:42dc999e-362c-4bfc-9a56-4283aae96834"
        }
      }, {
        "item": {
          "reference": "urn:uuid:31798b69-bddd-4ba6-a8d2-e3fc15301275"
        }
      }, {
        "item": {
          "reference": "urn:uuid:e11aa623-4e40-4b54-a3cd-902b760b2a3c"
        }
      }, {
        "item": {
          "reference": "urn:uuid:8b326d18-f0e7-4d11-b570-dcdcc8ac944f"
        }
      }, {
        "item": {
          "reference": "urn:uuid:2062789d-e0ea-45c9-8450-a58c5a9aaca5"
        }
      }, {
        "item": {
          "reference": "urn:uuid:2056acf1-8cea-4c94-88a2-3b091b297602"
        }
      }, {
        "item": {
          "reference": "urn:uuid:a6733483-0e36-4c9b-ba5e-1ae96ca89109"
        }
      }, {
        "item": {
          "reference": "urn:uuid:a5d31365-1517-475e-85a0-deb59327d794"
        }
      }, {
        "item": {
          "reference": "urn:uuid:147df8d1-d676-4ebf-b0d7-f2a995c6efc6"
        }
      }, {
        "item": {
          "reference": "urn:uuid:9fdf274c-f789-4329-9fb1-0677a580d663"
        }
      }, {
        "item": {
          "reference": "urn:uuid:80c469f4-7052-4f27-a605-7e53380b8dd5"
        }
      }, {
        "item": {
          "reference": "urn:uuid:8ada8f4e-f87f-4e48-b0fa-4270ca8894d4"
        }
      }, {
        "item": {
          "reference": "urn:uuid:bfaf50a0-5e5e-48a4-a92f-ae939f0a4979"
        }
      }, {
        "item": {
          "reference": "urn:uuid:0aa13525-17b8-494a-aa3c-de44863791c0"
        }
      }, {
        "item": {
          "reference": "urn:uuid:03a67b19-2004-408a-972c-634073c4192f"
        }
      }, {
        "item": {
          "reference": "urn:uuid:bca6f69c-fe8f-465d-aaca-5ed7577056c5"
        }
      }, {
        "item": {
          "reference": "urn:uuid:6b8daa80-0265-4a53-bf46-b73dccca1e0b"
        }
      }, {
        "item": {
          "reference": "urn:uuid:6e8100e2-1f9e-41cf-8b29-a9f3b29171ec"
        }
      }, {
        "item": {
          "reference": "urn:uuid:67d606bd-eb80-4483-a5e0-c1e4681e4303"
        }
      }, {
        "item": {
          "reference": "urn:uuid:9ed841d8-e57b-4386-b3cb-0e4ddeadf3f3"
        }
      }, {
        "item": {
          "reference": "urn:uuid:46aab74f-93ad-4966-9b50-205e40c6beee"
        }
      }, {
        "item": {
          "reference": "urn:uuid:a6541b72-25f5-4525-9e9e-790482617e09"
        }
      }, {
        "item": {
          "reference": "urn:uuid:48a1ea0f-2778-41a6-a867-f339aa3f4ecf"
        }
      }, {
        "item": {
          "reference": "urn:uuid:d8c0cdde-c2a2-4ea0-903e-b2a1c4d34b8f"
        }
      }, {
        "item": {
          "reference": "urn:uuid:ad761e38-2b03-4aaa-a8c0-23f3c8701bfa"
        }
      }, {
        "item": {
          "reference": "urn:uuid:dd591eca-cb1c-401d-aa1c-9844b8be1345"
        }
      }, {
        "item": {
          "reference": "urn:uuid:ebd51f28-a1c9-42fb-b6e9-d77af8a3feb5"
        }
      }, {
        "item": {
          "reference": "urn:uuid:5a4ed92f-cb69-4534-917d-533a9fc107be"
        }
      }, {
        "item": {
          "reference": "urn:uuid:d7bf58cd-d435-40f2-85ef-61a4d56a6758"
        }
      }, {
        "item": {
          "reference": "urn:uuid:af6b3ff6-4b81-41f5-8fae-13766f6e5328"
        }
      }, {
        "item": {
          "reference": "urn:uuid:aa7632b3-4cc3-481a-ab3d-e84388a772bf"
        }
      }, {
        "item": {
          "reference": "urn:uuid:7e75cff6-c5f2-4592-befd-98c627bba783"
        }
      }, {
        "item": {
          "reference": "urn:uuid:fd2fd9bc-c16b-4334-896e-f5f123786d5b"
        }
      }, {
        "item": {
          "reference": "urn:uuid:a7ed3692-868a-413c-bc94-5df59414d2eb"
        }
      }, {
        "item": {
          "reference": "urn:uuid:e86220b9-c0a8-41ff-82be-cf7eecf6988b"
        }
      }, {
        "item": {
          "reference": "urn:uuid:fc6494d7-07d9-4a45-a1e4-92ad34cdf95f"
        }
      }, {
        "item": {
          "reference": "urn:uuid:ebd6895f-d391-4967-b2cb-25860cdf8cb3"
        }
      }, {
        "item": {
          "reference": "urn:uuid:f740d231-61c1-4390-96ca-9592e95a23fd"
        }
      }, {
        "item": {
          "reference": "urn:uuid:92580ea8-01e8-4789-bfea-60fc0f0c3d35"
        }
      }, {
        "item": {
          "reference": "urn:uuid:2c143c12-763d-49c8-a001-4f9133a2d19d"
        }
      }, {
        "item": {
          "reference": "urn:uuid:406ec465-84da-4f64-996c-072f12a780af"
        }
      }, {
        "item": {
          "reference": "urn:uuid:a21ccaf5-9113-4275-a78e-ce5bfd7be4be"
        }
      }, {
        "item": {
          "reference": "urn:uuid:ea5bd0f8-07c8-4040-99b0-ead8c44e4267"
        }
      }, {
        "item": {
          "reference": "urn:uuid:9a744ac4-47ba-4016-922e-d5033891cbb6"
        }
      }, {
        "item": {
          "reference": "urn:uuid:c67bfc27-9610-4f9b-b193-c0be3881fa4c"
        }
      }, {
        "item": {
          "reference": "urn:uuid:32501355-e2d0-4f77-ae50-9d106d894137"
        }
      }, {
        "item": {
          "reference": "urn:uuid:0dc8878b-0cc4-4bd8-8c44-dd2ceb30e7ff"
        }
      }, {
        "item": {
          "reference": "urn:uuid:90974843-409c-45c4-aca2-76e9364e80df"
        }
      }, {
        "item": {
          "reference": "urn:uuid:25be7270-2809-4f76-9e2c-3a0c70c23f3e"
        }
      }, {
        "item": {
          "reference": "urn:uuid:b5f1c290-9a12-4820-b465-5bf8f6099744"
        }
      }, {
        "item": {
          "reference": "urn:uuid:61fc54b8-4143-4e2d-9b5a-0a2cb730ed4e"
        }
      }, {
        "item": {
          "reference": "urn:uuid:825da658-70c1-43b6-bd9e-9e7ff1dcf4f0"
        }
      }, {
        "item": {
          "reference": "urn:uuid:f694b5a1-ea71-4966-ab20-31e550ae7557"
        }
      }, {
        "item": {
          "reference": "urn:uuid:f548da23-3315-452a-b1bd-f20dff525f2c"
        }
      }, {
        "item": {
          "reference": "urn:uuid:a504dcb4-de3d-449e-86c3-603d40dfcaea"
        }
      }, {
        "item": {
          "reference": "urn:uuid:f83edecd-880d-4709-a36e-de828648d599"
        }
      }, {
        "item": {
          "reference": "urn:uuid:cc5d79cd-b0ce-4691-aeb8-01b2a559f135"
        }
      }, {
        "item": {
          "reference": "urn:uuid:85b87260-837f-419b-a424-40ffb8bc52d4"
        }
      }, {
        "item": {
          "reference": "urn:uuid:4ea07bf6-8ebd-4c64-b792-31349dcb14d0"
        }
      }, {
        "item": {
          "reference": "urn:uuid:f1ee8809-2ef7-4a45-9964-fc1cf07f6a78"
        }
      }, {
        "item": {
          "reference": "urn:uuid:04b1df34-4a44-4669-a1ee-9ca6760e3304"
        }
      }, {
        "item": {
          "reference": "urn:uuid:eb0b3fb3-6095-48c8-a8d8-4725ebdd7cca"
        }
      }, {
        "item": {
          "reference": "urn:uuid:c94d005c-eb00-44cb-8d7d-633d339280a8"
        }
      }, {
        "item": {
          "reference": "urn:uuid:f471cdbd-3f0b-44c7-9989-bcab37b3fd9e"
        }
      }, {
        "item": {
          "reference": "urn:uuid:71c19416-31a6-41d1-9e19-4a6572bee0c6"
        }
      }, {
        "item": {
          "reference": "urn:uuid:0a315664-797b-48c6-8acc-435381283ad7"
        }
      }, {
        "item": {
          "reference": "urn:uuid:bf5322b8-2f55-4efe-898f-c1cd54a66c7d"
        }
      }, {
        "item": {
          "reference": "urn:uuid:d2d280b3-ef76-406e-b6d1-88fa9682bbdd"
        }
      }, {
        "item": {
          "reference": "urn:uuid:77ef44ec-d5f1-4945-8004-a81d31dc5734"
        }
      }, {
        "item": {
          "reference": "urn:uuid:f9d2a094-a7fa-4456-86ee-ddc1286d0c47"
        }
      }, {
        "item": {
          "reference": "urn:uuid:368fbec6-bb33-48cf-b655-09429be09581"
        }
      }, {
        "item": {
          "reference": "urn:uuid:d4e4e88b-4783-4f02-bbd1-dadb73a88ee2"
        }
      }, {
        "item": {
          "reference": "urn:uuid:c8abd165-3e49-471e-9b4e-e1f3409695e9"
        }
      }, {
        "item": {
          "reference": "urn:uuid:90ecd570-d7c7-40e7-accb-68ba14eb903a"
        }
      }, {
        "item": {
          "reference": "urn:uuid:1b52b9d8-ded7-4432-90a6-a152ea9e711d"
        }
      }, {
        "item": {
          "reference": "urn:uuid:f10939b4-52b5-46c0-ad6d-4676b6585f4c"
        }
      }, {
        "item": {
          "reference": "urn:uuid:6164b4d8-1aff-4907-a6d6-e4c172e33ad6"
        }
      }, {
        "item": {
          "reference": "urn:uuid:70ba10b2-bf7b-4780-8a9c-e9cc7eb05281"
        }
      }, {
        "item": {
          "reference": "urn:uuid:ed4d75cf-7916-4f00-865f-be1ed5ba1b01"
        }
      } ]
    }
  } ]
}