{
  "resourceType": "Bundle",
  "meta": {
    "lastUpdated": "2022-05-12T07:25:16.902+00:00"
  },
  "identifier": {
    "type": {
      "text": "ClinicalDocument VersionNumber"
    },
    "value": "1"
  },
  "type": "message",
  "entry": [ {
    "fullUrl": "urn:uuid:7AEFFED7-78AF-4940-9EE2-5FAA3920ECFE",
    "resource": {
      "resourceType": "MessageHeader",
      "id": "7AEFFED7-78AF-4940-9EE2-5FAA3920ECFE",
      "event": {
        "system": "https://fhir.nhs.uk/STU3/CodeSystem/EventType-1",
        "code": "referral-1",
        "display": "Referral"
      },
      "destination": [ {
        "endpoint": "urn:nhs-uk:addressing:ods:RSHSO14A:DOSServiceID:2000006423"
      } ],
      "timestamp": "2021-04-06T11:33:35.000+00:00",
      "source": {
        "name": "NHS 111 Adaptor",
        "endpoint": "http://localhost:8080/report"
      },
      "reason": {
        "coding": [ {
          "system": "urn:nhs-itk:ns:201005:interaction",
          "code": "urn:nhs-itk:interaction:primaryEmergencyDepartmentRecipientNHS111CDADocument-v2-0"
        } ]
      }
    }
  }, {
    "fullUrl": "urn:uuid:ac04f47f-6b3a-4147-8a97-e06892b096af",
    "resource": {
      "resourceType": "Encounter",
      "id": "ac04f47f-6b3a-4147-8a97-e06892b096af",
      "identifier": [ {
        "system": "2.16.840.1.113883.2.1.3.2.4.18.34",
        "value": "029EE79C-BBD3-478A-93EE-979CB300212E"
      }, {
        "system": "2.16.840.1.113883.2.1.3.2.4.18.35",
        "value": "59132"
      }, {
        "system": "2.16.840.1.113883.2.1.3.2.4.18.49",
        "value": "029EE79C-BBD3-478A-93EE-979CB300212E"
      } ],
      "status": "finished",
      "type": [ {
        "text": "111 Encounter Referral"
      } ],
      "subject": {
        "reference": "urn:uuid:abe86801-c2d1-4fa4-add6-1cc090830a62"
      },
      "participant": [ {
        "type": [ {
          "coding": [ {
            "system": "http://hl7.org/fhir/ValueSet/encounter-participant-type",
            "code": "PPRF",
            "display": "Author"
          } ]
        } ],
        "individual": {
          "reference": "urn:uuid:4e99e896-152d-4871-8b27-3ea506b058a2"
        }
      }, {
        "type": [ {
          "coding": [ {
            "system": "http://hl7.org/fhir/ValueSet/encounter-participant-type",
            "code": "ATND",
            "display": "Responsible Party"
          } ]
        } ],
        "individual": {
          "reference": "urn:uuid:05534c59-9545-433e-bf58-9edcf946da50"
        }
      } ],
      "period": {
        "start": "2021-04-06T10:54:11+00:00",
        "end": "2021-04-06T11:33:27+00:00"
      },
      "location": [ {
        "location": {
          "reference": "urn:uuid:890d92a9-88e1-4b5a-a9a1-5561ad5496a0"
        },
        "status": "active"
      }, {
        "location": {
          "reference": "urn:uuid:0ee3ae4d-ce45-4895-aac8-2aaa44303188"
        },
        "status": "completed"
      } ],
      "serviceProvider": {
        "reference": "urn:uuid:8c8b9c5f-3afd-4ba4-80ff-95d3d4426547"
      }
    }
  }, {
    "fullUrl": "urn:uuid:8c8b9c5f-3afd-4ba4-80ff-95d3d4426547",
    "resource": {
      "resourceType": "Organization",
      "id": "8c8b9c5f-3afd-4ba4-80ff-95d3d4426547",
      "active": true,
      "type": [ {
        "text": "CST"
      } ],
      "name": "SCAS111"
    }
  }, {
    "fullUrl": "urn:uuid:4e99e896-152d-4871-8b27-3ea506b058a2",
    "resource": {
      "resourceType": "Practitioner",
      "id": "4e99e896-152d-4871-8b27-3ea506b058a2",
      "active": true,
      "name": [ {
        "use": "official",
        "family": "McDonald",
        "given": [ "Denzle" ]
      } ]
    }
  }, {
    "fullUrl": "urn:uuid:05534c59-9545-433e-bf58-9edcf946da50",
    "resource": {
      "resourceType": "Practitioner",
      "id": "05534c59-9545-433e-bf58-9edcf946da50",
      "active": true,
      "name": [ {
        "use": "official",
        "family": "Black",
        "given": [ "John" ]
      } ]
    }
  }, {
    "fullUrl": "urn:uuid:890d92a9-88e1-4b5a-a9a1-5561ad5496a0",
    "resource": {
      "resourceType": "Location",
      "id": "890d92a9-88e1-4b5a-a9a1-5561ad5496a0",
      "managingOrganization": {
        "reference": "urn:uuid:7b5a9c22-ada0-4db1-b065-07905ad3ebcd"
      }
    }
  }, {
    "fullUrl": "urn:uuid:7b5a9c22-ada0-4db1-b065-07905ad3ebcd",
    "resource": {
      "resourceType": "Organization",
      "id": "7b5a9c22-ada0-4db1-b065-07905ad3ebcd",
      "identifier": [ {
        "value": "J82633"
      } ],
      "type": [ {
        "text": "GP Practice"
      } ],
      "name": "The Riverside Partnership ( Riverside Kelsey)",
      "telecom": [ {
        "system": "phone",
        "value": "tel:01730892412",
        "use": "work"
      } ],
      "address": [ {
        "use": "work",
        "line": [ "Riverside Kelsey Surgery", "75 Station Road", "Liss", "Hampshire" ],
        "postalCode": "GU33 7AD"
      } ]
    }
  }, {
    "fullUrl": "urn:uuid:0ee3ae4d-ce45-4895-aac8-2aaa44303188",
    "resource": {
      "resourceType": "Location",
      "id": "0ee3ae4d-ce45-4895-aac8-2aaa44303188",
      "name": "Incident Location",
      "address": {
        "type": "physical",
        "line": [ "Hampshire Partnership NHS Trust", "Tatchbury Mount Hospital Horseshoe Drive", "Calmore", "Southampton", "Hampshire" ],
        "postalCode": "SO40 2RZ"
      }
    }
  }, {
    "fullUrl": "urn:uuid:abe86801-c2d1-4fa4-add6-1cc090830a62",
    "resource": {
      "resourceType": "Patient",
      "id": "abe86801-c2d1-4fa4-add6-1cc090830a62",
      "identifier": [ {
        "extension": [ {
          "url": "https://fhir.hl7.org.uk/STU3/StructureDefinition/Extension-CareConnect-NHSNumberVerificationStatus-1",
          "valueCodeableConcept": {
            "coding": [ {
              "system": "https://fhir.hl7.org.uk/STU3/StructureDefinition/Extension-CareConnect-NHSNumberVerificationStatus-1",
              "code": "01"
            } ]
          }
        } ],
        "system": "https://fhir.nhs.uk/Id/nhs-number",
        "value": "9990004951"
      } ],
      "active": true,
      "name": [ {
        "use": "official",
        "family": "Xxtestpatientdfae",
        "given": [ "Btl-Donotuse" ]
      } ],
      "telecom": [ {
        "system": "phone",
        "value": "tel:07948625625",
        "use": "home"
      }, {
        "system": "phone",
        "value": "tel:07948625625"
      } ],
      "gender": "female",
      "birthDate": "2015-04-01",
      "address": [ {
        "use": "home",
        "line": [ "Hampshire Partnership NHS Trust", "Tatchbury Mount Hospital Horseshoe Drive", "Calmore", "Southampton", "Hampshire" ],
        "postalCode": "SO40 2RZ"
      } ],
      "generalPractitioner": [ {
        "reference": "urn:uuid:787ea342-365a-4572-a2f2-a9565c3cdd40"
      } ]
    }
  }, {
    "fullUrl": "urn:uuid:787ea342-365a-4572-a2f2-a9565c3cdd40",
    "resource": {
      "resourceType": "Organization",
      "id": "787ea342-365a-4572-a2f2-a9565c3cdd40",
      "identifier": [ {
        "value": "J82633"
      } ],
      "type": [ {
        "text": "GP Practice"
      } ],
      "name": "The Riverside Partnership ( Riverside Kelsey)",
      "telecom": [ {
        "system": "phone",
        "value": "tel:01730892412",
        "use": "work"
      } ],
      "address": [ {
        "use": "work",
        "line": [ "Riverside Kelsey Surgery", "75 Station Road", "Liss", "Hampshire" ],
        "postalCode": "GU33 7AD"
      } ]
    }
  }, {
    "fullUrl": "urn:uuid:61b90a30-7f7d-4c87-ab29-e8c9b2a18523",
    "resource": {
      "resourceType": "HealthcareService",
      "id": "61b90a30-7f7d-4c87-ab29-e8c9b2a18523",
      "active": true,
      "providedBy": {
        "reference": "urn:uuid:6f6ac5ce-9569-4f95-8abb-995e29b33a51"
      },
      "location": [ {
        "reference": "urn:uuid:c92d8680-c21d-425c-ac40-b70e290f437e"
      } ],
      "name": "Urgent Treatment Centre (GP led), Royal South Hants Hospital"
    }
  }, {
    "fullUrl": "urn:uuid:c92d8680-c21d-425c-ac40-b70e290f437e",
    "resource": {
      "resourceType": "Location",
      "id": "c92d8680-c21d-425c-ac40-b70e290f437e",
      "managingOrganization": {
        "reference": "urn:uuid:6f6ac5ce-9569-4f95-8abb-995e29b33a51"
      }
    }
  }, {
    "fullUrl": "urn:uuid:6f6ac5ce-9569-4f95-8abb-995e29b33a51",
    "resource": {
      "resourceType": "Organization",
      "id": "6f6ac5ce-9569-4f95-8abb-995e29b33a51",
      "identifier": [ {
        "value": "RSHSO14A"
      } ],
      "type": [ {
        "coding": [ {
          "code": "PRCP",
          "display": "Urgent Treatment Centre (GP led), Royal South Hants Hospital"
        } ]
      } ],
      "name": "Urgent Treatment Centre (GP led), Royal South Hants Hospital"
    }
  }, {
    "fullUrl": "urn:uuid:11330d34-155f-4795-a5e4-5ac0d85316ac",
    "resource": {
      "resourceType": "ReferralRequest",
      "id": "11330d34-155f-4795-a5e4-5ac0d85316ac",
      "status": "active",
      "intent": "plan",
      "priority": "routine",
      "subject": {
        "reference": "urn:uuid:abe86801-c2d1-4fa4-add6-1cc090830a62"
      },
      "context": {
        "reference": "urn:uuid:ac04f47f-6b3a-4147-8a97-e06892b096af"
      },
      "occurrencePeriod": {
        "start": "2021-04-06T11:33:35+00:00"
      },
      "authoredOn": "2021-04-06T11:33:27+00:00",
      "requester": {
        "agent": {
          "reference": "urn:uuid:0e6cd46a-c4db-4cac-928f-9cc239e99c8d"
        },
        "onBehalfOf": {
          "reference": "urn:uuid:8c8b9c5f-3afd-4ba4-80ff-95d3d4426547"
        }
      },
      "recipient": [ {
        "reference": "urn:uuid:61b90a30-7f7d-4c87-ab29-e8c9b2a18523"
      } ],
      "reasonReference": [ {
        "reference": "urn:uuid:b683c73e-c281-473a-bdc0-ac0deeef3445"
      } ],
      "supportingInfo": [ {
        "reference": "urn:uuid:75ffa285-ccec-466c-997d-5061fcff1240"
      } ]
    }
  }, {
    "fullUrl": "urn:uuid:75ffa285-ccec-466c-997d-5061fcff1240",
    "resource": {
      "resourceType": "ProcedureRequest",
      "id": "75ffa285-ccec-466c-997d-5061fcff1240",
      "status": "active",
      "intent": "plan",
      "priority": "routine",
      "doNotPerform": false,
      "code": {
        "coding": [ {
          "system": "2.16.840.1.113883.2.1.3.2.4.17.325",
          "code": "Dx06",
          "display": "To contact a local service within 6 hours"
        } ]
      },
      "subject": {
        "reference": "urn:uuid:abe86801-c2d1-4fa4-add6-1cc090830a62"
      },
      "occurrencePeriod": {
        "start": "2021-04-06T11:33:35+00:00"
      },
      "reasonReference": [ {
        "reference": "urn:uuid:b683c73e-c281-473a-bdc0-ac0deeef3445"
      } ]
    }
  }, {
    "fullUrl": "urn:uuid:fdd48398-3e21-4522-ac55-7758442d76c9",
    "resource": {
      "resourceType": "Composition",
      "id": "fdd48398-3e21-4522-ac55-7758442d76c9",
      "identifier": {
        "use": "usual",
        "value": "A8E3FB32-6805-4191-B071-EA540A9318CD"
      },
      "status": "final",
      "type": {
        "coding": [ {
          "system": "http://snomed.info/sct",
          "code": "371531000",
          "display": "Report of clinical encounter (record artifact)"
        } ]
      },
      "subject": {
        "reference": "urn:uuid:abe86801-c2d1-4fa4-add6-1cc090830a62"
      },
      "encounter": {
        "reference": "urn:uuid:ac04f47f-6b3a-4147-8a97-e06892b096af"
      },
      "date": "2021-04-06T11:33:35+00:00",
      "author": [ {
        "reference": "urn:uuid:4e99e896-152d-4871-8b27-3ea506b058a2"
      } ],
      "title": "111 Report",
      "confidentiality": "N",
      "section": [ {
        "section": [ {
          "title": "Patient's Reported Condition",
          "text": {
            "status": "generated",
            "div": "<div xmlns=\"http://www.w3.org/1999/xhtml\">&lt;content&gt;Pharmacy ITK Testing&lt;/content&gt;\n                                                    &lt;br/&gt;</div>"
          }
        }, {
          "title": "Pathways Disposition",
          "text": {
            "status": "generated",
            "div": "<div xmlns=\"http://www.w3.org/1999/xhtml\">To contact a local service within 6 hours (Dx06)                                         &lt;br/&gt;\n                                                    &lt;br/&gt;                                         Selected service: Urgent Treatment Centre (GP led), Royal South Hant&lt;br/&gt;</div>"
          }
        }, {
          "title": "Consultation Summary",
          "text": {
            "status": "generated",
            "div": "<div xmlns=\"http://www.w3.org/1999/xhtml\">Illness&lt;br/&gt;Warm to touch&lt;br/&gt;Nausea without vomiting&lt;br/&gt;Abdominal pain also present&lt;br/&gt;Moderately severe pain&lt;br/&gt;Flank pain&lt;br/&gt;Fever at time of assessment or in last 12 hours&lt;br/&gt;</div>"
          }
        }, {
          "title": "Pathways Assessment",
          "text": {
            "status": "generated",
            "div": "<div xmlns=\"http://www.w3.org/1999/xhtml\">An injury or health problem was the reason for the contact.&lt;br/&gt;Heavy bleeding had not occurred in the previous 30 minutes.&lt;br/&gt;An illness or health problem was the main problem.&lt;br/&gt;User Comments: Pharmacy ITK Testing&lt;br/&gt;The individual was not fighting for breath.&lt;br/&gt;The main reason for the contact was not an allergic reaction, chest/upper back pain, recent fit/seizure, suicide attempt, new confusion or suspected stroke.&lt;br/&gt;The main reason for contact was not declared diabetic hypo/hyperglycaemia or ICD shock.&lt;br/&gt;The skin on the torso felt normal, warm or hot.&lt;br/&gt;Pathway selected - Vomiting and/or Nausea&lt;br/&gt;The individual had not vomited.&lt;br/&gt;The individual did not also have diarrhoea.&lt;br/&gt;The symptoms did not follow drinking alcohol.&lt;br/&gt;Abdominal pain was also present.&lt;br/&gt;The pain interfered with normal activity.&lt;br/&gt;The individual was able to carry out most or all normal activities.&lt;br/&gt;The individual had not ingested a harmful or toxic substance.&lt;br/&gt;There had been no black and tarry or red/maroon bowel motions.&lt;br/&gt;There was no new or worsening confusion.&lt;br/&gt;Breathing harder or faster when doing nothing was not described.&lt;br/&gt;There was no new shoulder tip pain or pain in the lower right abdomen.&lt;br/&gt;The individual had not been in constant pain for 4 hours or more.&lt;br/&gt;There was no previous history of diabetes.&lt;br/&gt;There was flank pain.&lt;br/&gt;There was a fever at the time of assessment or within the previous 12 hours.&lt;br/&gt;There was no new, widespread, red rash.&lt;br/&gt;Instructions given were: The individual needs to contact a local service within 6 hours.&lt;br/&gt;Directory of Services referral: Urgent Treatment Centre (GP led), Royal South Hants Hospital&lt;br/&gt;</div>"
          }
        }, {
          "title": "Advice Given",
          "text": {
            "status": "generated",
            "div": "<div xmlns=\"http://www.w3.org/1999/xhtml\">I will arrange for a clinician to contact the individual. I need to ask some further questions in order to determine the best way to do this.&lt;br/&gt;If there are any new symptoms, or if the condition gets worse, changes or you have any other concerns, call us back.&lt;br/&gt;\n                                                    &lt;br/&gt;</div>"
          }
        }, {
          "title": "Information And Advice Given"
        }, {
          "title": "Disposition",
          "text": {
            "status": "generated",
            "div": "<div xmlns=\"http://www.w3.org/1999/xhtml\">&lt;content&gt;To contact a local service within 6 hours&lt;br/&gt;\n                                                    &lt;/content&gt;\n                                                    &lt;br/&gt;\n                                                    &lt;br/&gt;</div>"
          }
        } ]
      }, {
        "title": "CarePlan",
        "entry": [ {
          "reference": "urn:uuid:d2b37df0-8f0b-4a46-857b-d098745248d4"
        } ]
      }, {
        "title": "ReferralRequest",
        "entry": [ {
          "reference": "urn:uuid:11330d34-155f-4795-a5e4-5ac0d85316ac"
        } ]
      }, {
        "title": "QuestionnaireResponse",
        "entry": [ {
          "reference": "urn:uuid:ffb08ae4-68eb-460f-a862-0c3298a1aef0"
        } ]
      }, {
        "title": "QuestionnaireResponse",
        "entry": [ {
          "reference": "urn:uuid:58c333ff-fec9-4cf0-8790-c59a47b73481"
        } ]
      }, {
        "title": "QuestionnaireResponse",
        "entry": [ {
          "reference": "urn:uuid:eff5a7eb-58f9-440e-837e-88d081d71cf1"
        } ]
      }, {
        "title": "QuestionnaireResponse",
        "entry": [ {
          "reference": "urn:uuid:54e98995-d5b4-43cf-a680-078986c0fa34"
        } ]
      }, {
        "title": "QuestionnaireResponse",
        "entry": [ {
          "reference": "urn:uuid:2a342997-a7a8-4ff5-adcc-b31bceddf2f5"
        } ]
      }, {
        "title": "QuestionnaireResponse",
        "entry": [ {
          "reference": "urn:uuid:eeb041fc-1ac9-4b1e-b541-7475c99e7460"
        } ]
      }, {
        "title": "QuestionnaireResponse",
        "entry": [ {
          "reference": "urn:uuid:cdfc327f-4880-443e-b50c-2a2482f462f0"
        } ]
      }, {
        "title": "QuestionnaireResponse",
        "entry": [ {
          "reference": "urn:uuid:b121401d-c5f9-48c3-bc58-3625aa078049"
        } ]
      }, {
        "title": "QuestionnaireResponse",
        "entry": [ {
          "reference": "urn:uuid:25713d28-c31b-4eb5-8d98-fa26c2103850"
        } ]
      }, {
        "title": "QuestionnaireResponse",
        "entry": [ {
          "reference": "urn:uuid:e7f78ec5-0aab-49d8-b94b-2fdc7b8d872c"
        } ]
      }, {
        "title": "QuestionnaireResponse",
        "entry": [ {
          "reference": "urn:uuid:07820e03-7f00-4be7-9e06-2a49047b42df"
        } ]
      }, {
        "title": "QuestionnaireResponse",
        "entry": [ {
          "reference": "urn:uuid:135f9917-9377-4740-a8d9-e5049d33aa11"
        } ]
      }, {
        "title": "QuestionnaireResponse",
        "entry": [ {
          "reference": "urn:uuid:f5f1bdc7-ae47-446e-8155-4bf8b6aec556"
        } ]
      }, {
        "title": "QuestionnaireResponse",
        "entry": [ {
          "reference": "urn:uuid:03a5dfc6-f90b-43bb-baf7-4b0dfb17ff52"
        } ]
      }, {
        "title": "QuestionnaireResponse",
        "entry": [ {
          "reference": "urn:uuid:e2a5f5b5-12fd-4f3c-8499-2104d8853d8f"
        } ]
      }, {
        "title": "QuestionnaireResponse",
        "entry": [ {
          "reference": "urn:uuid:e9745e37-c0c7-4d7d-9e62-7e383534a1bb"
        } ]
      }, {
        "title": "QuestionnaireResponse",
        "entry": [ {
          "reference": "urn:uuid:f932b7d1-758b-46af-bd6a-13f03628567d"
        } ]
      }, {
        "title": "QuestionnaireResponse",
        "entry": [ {
          "reference": "urn:uuid:96bc4d0f-b4b2-4ca9-9a7a-2f4a4ff9eef2"
        } ]
      }, {
        "title": "QuestionnaireResponse",
        "entry": [ {
          "reference": "urn:uuid:5d9cfe8f-34d9-4610-b564-04baf9c695da"
        } ]
      }, {
        "title": "QuestionnaireResponse",
        "entry": [ {
          "reference": "urn:uuid:326b542d-9d72-4ffc-bd87-af95c8aca083"
        } ]
      }, {
        "title": "QuestionnaireResponse",
        "entry": [ {
          "reference": "urn:uuid:a976ce63-0b6d-428c-9e85-d4410dea64ee"
        } ]
      }, {
        "title": "QuestionnaireResponse",
        "entry": [ {
          "reference": "urn:uuid:d148743a-e6b3-4335-8b9a-d9f190ff733c"
        } ]
      }, {
        "title": "QuestionnaireResponse",
        "entry": [ {
          "reference": "urn:uuid:6f3a401a-fa5a-48f9-b6bd-793ae3b4660c"
        } ]
      }, {
        "title": "QuestionnaireResponse",
        "entry": [ {
          "reference": "urn:uuid:a5b02ecf-2dcd-4468-9492-3e5c473da0e2"
        } ]
      }, {
        "title": "QuestionnaireResponse",
        "entry": [ {
          "reference": "urn:uuid:cc4d6825-cf4d-4b85-94bb-05a7ba027212"
        } ]
      }, {
        "title": "QuestionnaireResponse",
        "entry": [ {
          "reference": "urn:uuid:56087b4f-72df-4fa7-ad32-6952a88f79bb"
        } ]
      }, {
        "title": "QuestionnaireResponse",
        "entry": [ {
          "reference": "urn:uuid:edf285a8-a15f-4074-ae0d-52b1b21e158a"
        } ]
      }, {
        "title": "QuestionnaireResponse",
        "entry": [ {
          "reference": "urn:uuid:7e561a96-8244-43c4-abf9-5905021ae2b5"
        } ]
      }, {
        "title": "QuestionnaireResponse",
        "entry": [ {
          "reference": "urn:uuid:12fceeca-75ba-495d-a108-3e2f265d9e63"
        } ]
      }, {
        "title": "QuestionnaireResponse",
        "entry": [ {
          "reference": "urn:uuid:59d20700-6ef6-419c-8014-d62faea4a0e6"
        } ]
      }, {
        "title": "QuestionnaireResponse",
        "entry": [ {
          "reference": "urn:uuid:f69acaaa-4ccd-4d8e-a7c1-c338897488cb"
        } ]
      }, {
        "title": "QuestionnaireResponse",
        "entry": [ {
          "reference": "urn:uuid:ad23f010-7f46-481e-abea-67c0b158a479"
        } ]
      }, {
        "title": "QuestionnaireResponse",
        "entry": [ {
          "reference": "urn:uuid:eb22a545-b978-4311-ad25-9775e9e77ba0"
        } ]
      }, {
        "title": "QuestionnaireResponse",
        "entry": [ {
          "reference": "urn:uuid:e78cff92-7c91-4c98-938c-de3564a3b289"
        } ]
      }, {
        "title": "QuestionnaireResponse",
        "entry": [ {
          "reference": "urn:uuid:8444d1be-b0dd-4c10-a784-820c6b596e36"
        } ]
      }, {
        "title": "QuestionnaireResponse",
        "entry": [ {
          "reference": "urn:uuid:686890b8-cf83-4cee-862e-c70d820df354"
        } ]
      }, {
        "title": "QuestionnaireResponse",
        "entry": [ {
          "reference": "urn:uuid:16bd78a4-9bfb-4b44-9916-14924995b57d"
        } ]
      }, {
        "title": "QuestionnaireResponse",
        "entry": [ {
          "reference": "urn:uuid:1fdd1537-95ad-4a4c-a5ae-526931124223"
        } ]
      }, {
        "title": "QuestionnaireResponse",
        "entry": [ {
          "reference": "urn:uuid:57d003a9-5bef-4a27-8ee9-1b0de4a81795"
        } ]
      }, {
        "title": "QuestionnaireResponse",
        "entry": [ {
          "reference": "urn:uuid:794b0d81-00b4-403a-b38a-cb7099cfd81f"
        } ]
      }, {
        "title": "QuestionnaireResponse",
        "entry": [ {
          "reference": "urn:uuid:ab0b4bfe-099c-43c7-9f02-7f12511d7b74"
        } ]
      }, {
        "title": "QuestionnaireResponse",
        "entry": [ {
          "reference": "urn:uuid:f13ea592-d0ef-4d73-b94a-b7559813b3ba"
        } ]
      }, {
        "title": "QuestionnaireResponse",
        "entry": [ {
          "reference": "urn:uuid:8b7554e4-801e-41fb-afd8-ac2889d0cf7a"
        } ]
      }, {
        "title": "QuestionnaireResponse",
        "entry": [ {
          "reference": "urn:uuid:2e050760-9a7c-497e-945e-b4a6e39d4cbc"
        } ]
      }, {
        "title": "QuestionnaireResponse",
        "entry": [ {
          "reference": "urn:uuid:f5dd76c7-f66f-46f6-8ae6-8fcfbea0a445"
        } ]
      }, {
        "title": "QuestionnaireResponse",
        "entry": [ {
          "reference": "urn:uuid:b5ab5d94-8c29-411c-a006-45d8e6a78ad8"
        } ]
      }, {
        "title": "QuestionnaireResponse",
        "entry": [ {
          "reference": "urn:uuid:a9e49bcd-c54c-4c79-b5e2-19f1e29c69ae"
        } ]
      }, {
        "title": "QuestionnaireResponse",
        "entry": [ {
          "reference": "urn:uuid:dfc03f6f-8027-4313-8b06-426afefdc543"
        } ]
      }, {
        "title": "QuestionnaireResponse",
        "entry": [ {
          "reference": "urn:uuid:36ae8e62-57cb-450d-957d-e8ed667750eb"
        } ]
      }, {
        "title": "QuestionnaireResponse",
        "entry": [ {
          "reference": "urn:uuid:1beba0c0-9321-40e6-98bc-f57fd1e01103"
        } ]
      }, {
        "title": "QuestionnaireResponse",
        "entry": [ {
          "reference": "urn:uuid:cf1da92d-9b9b-4833-aa19-ba92fb2e92f0"
        } ]
      }, {
        "title": "QuestionnaireResponse",
        "entry": [ {
          "reference": "urn:uuid:6eec163a-8677-41ec-934d-112efd4eb673"
        } ]
      }, {
        "title": "QuestionnaireResponse",
        "entry": [ {
          "reference": "urn:uuid:a94a4ff2-b6ba-4647-8895-d9e1b0202b64"
        } ]
      }, {
        "title": "QuestionnaireResponse",
        "entry": [ {
          "reference": "urn:uuid:2a177283-e2a5-4817-9e51-e0d1d836bac5"
        } ]
      }, {
        "title": "QuestionnaireResponse",
        "entry": [ {
          "reference": "urn:uuid:d2b1c34b-989e-4142-b299-8a5bb0113bfa"
        } ]
      }, {
        "title": "QuestionnaireResponse",
        "entry": [ {
          "reference": "urn:uuid:aac52b58-98c2-4729-a8db-adbe612f21c6"
        } ]
      }, {
        "title": "QuestionnaireResponse",
        "entry": [ {
          "reference": "urn:uuid:fb25151d-63d5-42f2-8f0f-1f78c0d91c4e"
        } ]
      }, {
        "title": "QuestionnaireResponse",
        "entry": [ {
          "reference": "urn:uuid:9cf1bac3-c702-4226-b647-daf2d1cf799a"
        } ]
      }, {
        "title": "QuestionnaireResponse",
        "entry": [ {
          "reference": "urn:uuid:d09286ba-5e1b-49bc-a931-dafc03746124"
        } ]
      }, {
        "title": "QuestionnaireResponse",
        "entry": [ {
          "reference": "urn:uuid:a726a94d-5e33-44af-86f0-5e2fc13f2bf3"
        } ]
      }, {
        "title": "QuestionnaireResponse",
        "entry": [ {
          "reference": "urn:uuid:62f6802b-0c86-462e-a54a-a70a3c4b2fea"
        } ]
      }, {
        "title": "QuestionnaireResponse",
        "entry": [ {
          "reference": "urn:uuid:c3ec2b2b-314d-4344-82f9-7753a7893b86"
        } ]
      }, {
        "title": "QuestionnaireResponse",
        "entry": [ {
          "reference": "urn:uuid:9187d09a-dd26-4851-9017-5427236a2090"
        } ]
      }, {
        "title": "QuestionnaireResponse",
        "entry": [ {
          "reference": "urn:uuid:e74b4622-854c-48a9-b65e-ce8559520264"
        } ]
      }, {
        "title": "QuestionnaireResponse",
        "entry": [ {
          "reference": "urn:uuid:44b9e9e9-0273-444c-b1e3-e219020af812"
        } ]
      }, {
        "title": "QuestionnaireResponse",
        "entry": [ {
          "reference": "urn:uuid:7ef31448-bde3-4c48-8d9e-54826e78c52d"
        } ]
      }, {
        "title": "QuestionnaireResponse",
        "entry": [ {
          "reference": "urn:uuid:42289da7-3f65-4681-a384-a016fe2cbdfb"
        } ]
      }, {
        "title": "QuestionnaireResponse",
        "entry": [ {
          "reference": "urn:uuid:0caee580-9f01-4965-be6b-19b13a00c6de"
        } ]
      }, {
        "title": "QuestionnaireResponse",
        "entry": [ {
          "reference": "urn:uuid:654f1d69-fce7-4f96-8a3c-1389f5121674"
        } ]
      }, {
        "title": "QuestionnaireResponse",
        "entry": [ {
          "reference": "urn:uuid:bd61f84f-a0dd-46a0-ad56-e73919027ff8"
        } ]
      }, {
        "title": "QuestionnaireResponse",
        "entry": [ {
          "reference": "urn:uuid:28277a28-f7cc-4db8-8fe4-92932f2ce379"
        } ]
      }, {
        "title": "QuestionnaireResponse",
        "entry": [ {
          "reference": "urn:uuid:81909cbd-d28e-481c-8ace-4fa41cc0d645"
        } ]
      }, {
        "title": "QuestionnaireResponse",
        "entry": [ {
          "reference": "urn:uuid:37958e53-4652-4734-9b9c-c593600fc391"
        } ]
      } ]
    }
  }, {
    "fullUrl": "urn:uuid:d2b37df0-8f0b-4a46-857b-d098745248d4",
    "resource": {
      "resourceType": "CarePlan",
      "id": "d2b37df0-8f0b-4a46-857b-d098745248d4",
      "status": "completed",
      "intent": "plan",
      "title": "Information And Advice Given",
      "subject": {
        "reference": "urn:uuid:abe86801-c2d1-4fa4-add6-1cc090830a62"
      },
      "context": {
        "reference": "urn:uuid:ac04f47f-6b3a-4147-8a97-e06892b096af"
      },
      "period": {
        "start": "2021-04-06T10:54:11+00:00",
        "end": "2021-04-06T11:33:27+00:00"
      },
      "author": [ {
        "reference": "urn:uuid:7b5a9c22-ada0-4db1-b065-07905ad3ebcd"
      } ],
      "addresses": [ {
        "reference": "urn:uuid:b683c73e-c281-473a-bdc0-ac0deeef3445"
      } ]
    }
  }, {
    "fullUrl": "urn:uuid:2b822e99-0010-4449-8c9b-07ce3b7429fb",
    "resource": {
      "resourceType": "Consent",
      "id": "2b822e99-0010-4449-8c9b-07ce3b7429fb",
      "identifier": {
        "use": "usual",
        "value": "A8E3FB32-6805-4191-B071-EA540A9318CD"
      },
      "status": "active",
      "patient": {
        "reference": "urn:uuid:abe86801-c2d1-4fa4-add6-1cc090830a62"
      },
      "period": {
        "start": "2021-04-06T10:54:11+00:00",
        "end": "2021-04-06T11:33:27+00:00"
      },
      "consentingParty": [ {
        "reference": "urn:uuid:abe86801-c2d1-4fa4-add6-1cc090830a62"
      } ],
      "action": [ {
        "coding": [ {
          "system": "http://snomed.info/sct",
          "code": "425691002",
          "display": "Consent given for electronic record sharing"
        } ],
        "text": "Consent given for electronic record sharing"
      } ],
      "organization": [ {
        "reference": "urn:uuid:8c8b9c5f-3afd-4ba4-80ff-95d3d4426547"
      } ],
      "policyRule": "http://hl7.org/fhir/ConsentPolicy/opt-out",
      "data": [ {
        "meaning": "related",
        "reference": {
          "reference": "urn:uuid:ac04f47f-6b3a-4147-8a97-e06892b096af"
        }
      } ]
    }
  }, {
    "fullUrl": "urn:uuid:b683c73e-c281-473a-bdc0-ac0deeef3445",
    "resource": {
      "resourceType": "Condition",
      "id": "b683c73e-c281-473a-bdc0-ac0deeef3445",
      "clinicalStatus": "active",
      "verificationStatus": "unknown",
      "subject": {
        "reference": "urn:uuid:abe86801-c2d1-4fa4-add6-1cc090830a62"
      },
      "context": {
        "reference": "urn:uuid:ac04f47f-6b3a-4147-8a97-e06892b096af"
      },
      "evidence": [ {
        "detail": [ {
          "reference": "urn:uuid:ffb08ae4-68eb-460f-a862-0c3298a1aef0"
        } ]
      }, {
        "detail": [ {
          "reference": "urn:uuid:58c333ff-fec9-4cf0-8790-c59a47b73481"
        } ]
      }, {
        "detail": [ {
          "reference": "urn:uuid:eff5a7eb-58f9-440e-837e-88d081d71cf1"
        } ]
      }, {
        "detail": [ {
          "reference": "urn:uuid:54e98995-d5b4-43cf-a680-078986c0fa34"
        } ]
      }, {
        "detail": [ {
          "reference": "urn:uuid:2a342997-a7a8-4ff5-adcc-b31bceddf2f5"
        } ]
      }, {
        "detail": [ {
          "reference": "urn:uuid:eeb041fc-1ac9-4b1e-b541-7475c99e7460"
        } ]
      }, {
        "detail": [ {
          "reference": "urn:uuid:cdfc327f-4880-443e-b50c-2a2482f462f0"
        } ]
      }, {
        "detail": [ {
          "reference": "urn:uuid:b121401d-c5f9-48c3-bc58-3625aa078049"
        } ]
      }, {
        "detail": [ {
          "reference": "urn:uuid:25713d28-c31b-4eb5-8d98-fa26c2103850"
        } ]
      }, {
        "detail": [ {
          "reference": "urn:uuid:e7f78ec5-0aab-49d8-b94b-2fdc7b8d872c"
        } ]
      }, {
        "detail": [ {
          "reference": "urn:uuid:07820e03-7f00-4be7-9e06-2a49047b42df"
        } ]
      }, {
        "detail": [ {
          "reference": "urn:uuid:135f9917-9377-4740-a8d9-e5049d33aa11"
        } ]
      }, {
        "detail": [ {
          "reference": "urn:uuid:f5f1bdc7-ae47-446e-8155-4bf8b6aec556"
        } ]
      }, {
        "detail": [ {
          "reference": "urn:uuid:03a5dfc6-f90b-43bb-baf7-4b0dfb17ff52"
        } ]
      }, {
        "detail": [ {
          "reference": "urn:uuid:e2a5f5b5-12fd-4f3c-8499-2104d8853d8f"
        } ]
      }, {
        "detail": [ {
          "reference": "urn:uuid:e9745e37-c0c7-4d7d-9e62-7e383534a1bb"
        } ]
      }, {
        "detail": [ {
          "reference": "urn:uuid:f932b7d1-758b-46af-bd6a-13f03628567d"
        } ]
      }, {
        "detail": [ {
          "reference": "urn:uuid:96bc4d0f-b4b2-4ca9-9a7a-2f4a4ff9eef2"
        } ]
      }, {
        "detail": [ {
          "reference": "urn:uuid:5d9cfe8f-34d9-4610-b564-04baf9c695da"
        } ]
      }, {
        "detail": [ {
          "reference": "urn:uuid:326b542d-9d72-4ffc-bd87-af95c8aca083"
        } ]
      }, {
        "detail": [ {
          "reference": "urn:uuid:a976ce63-0b6d-428c-9e85-d4410dea64ee"
        } ]
      }, {
        "detail": [ {
          "reference": "urn:uuid:d148743a-e6b3-4335-8b9a-d9f190ff733c"
        } ]
      }, {
        "detail": [ {
          "reference": "urn:uuid:6f3a401a-fa5a-48f9-b6bd-793ae3b4660c"
        } ]
      }, {
        "detail": [ {
          "reference": "urn:uuid:a5b02ecf-2dcd-4468-9492-3e5c473da0e2"
        } ]
      }, {
        "detail": [ {
          "reference": "urn:uuid:cc4d6825-cf4d-4b85-94bb-05a7ba027212"
        } ]
      }, {
        "detail": [ {
          "reference": "urn:uuid:56087b4f-72df-4fa7-ad32-6952a88f79bb"
        } ]
      }, {
        "detail": [ {
          "reference": "urn:uuid:edf285a8-a15f-4074-ae0d-52b1b21e158a"
        } ]
      }, {
        "detail": [ {
          "reference": "urn:uuid:7e561a96-8244-43c4-abf9-5905021ae2b5"
        } ]
      }, {
        "detail": [ {
          "reference": "urn:uuid:12fceeca-75ba-495d-a108-3e2f265d9e63"
        } ]
      }, {
        "detail": [ {
          "reference": "urn:uuid:59d20700-6ef6-419c-8014-d62faea4a0e6"
        } ]
      }, {
        "detail": [ {
          "reference": "urn:uuid:f69acaaa-4ccd-4d8e-a7c1-c338897488cb"
        } ]
      }, {
        "detail": [ {
          "reference": "urn:uuid:ad23f010-7f46-481e-abea-67c0b158a479"
        } ]
      }, {
        "detail": [ {
          "reference": "urn:uuid:eb22a545-b978-4311-ad25-9775e9e77ba0"
        } ]
      }, {
        "detail": [ {
          "reference": "urn:uuid:e78cff92-7c91-4c98-938c-de3564a3b289"
        } ]
      }, {
        "detail": [ {
          "reference": "urn:uuid:8444d1be-b0dd-4c10-a784-820c6b596e36"
        } ]
      }, {
        "detail": [ {
          "reference": "urn:uuid:686890b8-cf83-4cee-862e-c70d820df354"
        } ]
      }, {
        "detail": [ {
          "reference": "urn:uuid:16bd78a4-9bfb-4b44-9916-14924995b57d"
        } ]
      }, {
        "detail": [ {
          "reference": "urn:uuid:1fdd1537-95ad-4a4c-a5ae-526931124223"
        } ]
      }, {
        "detail": [ {
          "reference": "urn:uuid:57d003a9-5bef-4a27-8ee9-1b0de4a81795"
        } ]
      }, {
        "detail": [ {
          "reference": "urn:uuid:794b0d81-00b4-403a-b38a-cb7099cfd81f"
        } ]
      }, {
        "detail": [ {
          "reference": "urn:uuid:ab0b4bfe-099c-43c7-9f02-7f12511d7b74"
        } ]
      }, {
        "detail": [ {
          "reference": "urn:uuid:f13ea592-d0ef-4d73-b94a-b7559813b3ba"
        } ]
      }, {
        "detail": [ {
          "reference": "urn:uuid:8b7554e4-801e-41fb-afd8-ac2889d0cf7a"
        } ]
      }, {
        "detail": [ {
          "reference": "urn:uuid:2e050760-9a7c-497e-945e-b4a6e39d4cbc"
        } ]
      }, {
        "detail": [ {
          "reference": "urn:uuid:f5dd76c7-f66f-46f6-8ae6-8fcfbea0a445"
        } ]
      }, {
        "detail": [ {
          "reference": "urn:uuid:b5ab5d94-8c29-411c-a006-45d8e6a78ad8"
        } ]
      }, {
        "detail": [ {
          "reference": "urn:uuid:a9e49bcd-c54c-4c79-b5e2-19f1e29c69ae"
        } ]
      }, {
        "detail": [ {
          "reference": "urn:uuid:dfc03f6f-8027-4313-8b06-426afefdc543"
        } ]
      }, {
        "detail": [ {
          "reference": "urn:uuid:36ae8e62-57cb-450d-957d-e8ed667750eb"
        } ]
      }, {
        "detail": [ {
          "reference": "urn:uuid:1beba0c0-9321-40e6-98bc-f57fd1e01103"
        } ]
      }, {
        "detail": [ {
          "reference": "urn:uuid:cf1da92d-9b9b-4833-aa19-ba92fb2e92f0"
        } ]
      }, {
        "detail": [ {
          "reference": "urn:uuid:6eec163a-8677-41ec-934d-112efd4eb673"
        } ]
      }, {
        "detail": [ {
          "reference": "urn:uuid:a94a4ff2-b6ba-4647-8895-d9e1b0202b64"
        } ]
      }, {
        "detail": [ {
          "reference": "urn:uuid:2a177283-e2a5-4817-9e51-e0d1d836bac5"
        } ]
      }, {
        "detail": [ {
          "reference": "urn:uuid:d2b1c34b-989e-4142-b299-8a5bb0113bfa"
        } ]
      }, {
        "detail": [ {
          "reference": "urn:uuid:aac52b58-98c2-4729-a8db-adbe612f21c6"
        } ]
      }, {
        "detail": [ {
          "reference": "urn:uuid:fb25151d-63d5-42f2-8f0f-1f78c0d91c4e"
        } ]
      }, {
        "detail": [ {
          "reference": "urn:uuid:9cf1bac3-c702-4226-b647-daf2d1cf799a"
        } ]
      }, {
        "detail": [ {
          "reference": "urn:uuid:d09286ba-5e1b-49bc-a931-dafc03746124"
        } ]
      }, {
        "detail": [ {
          "reference": "urn:uuid:a726a94d-5e33-44af-86f0-5e2fc13f2bf3"
        } ]
      }, {
        "detail": [ {
          "reference": "urn:uuid:62f6802b-0c86-462e-a54a-a70a3c4b2fea"
        } ]
      }, {
        "detail": [ {
          "reference": "urn:uuid:c3ec2b2b-314d-4344-82f9-7753a7893b86"
        } ]
      }, {
        "detail": [ {
          "reference": "urn:uuid:9187d09a-dd26-4851-9017-5427236a2090"
        } ]
      }, {
        "detail": [ {
          "reference": "urn:uuid:e74b4622-854c-48a9-b65e-ce8559520264"
        } ]
      }, {
        "detail": [ {
          "reference": "urn:uuid:44b9e9e9-0273-444c-b1e3-e219020af812"
        } ]
      }, {
        "detail": [ {
          "reference": "urn:uuid:7ef31448-bde3-4c48-8d9e-54826e78c52d"
        } ]
      }, {
        "detail": [ {
          "reference": "urn:uuid:42289da7-3f65-4681-a384-a016fe2cbdfb"
        } ]
      }, {
        "detail": [ {
          "reference": "urn:uuid:0caee580-9f01-4965-be6b-19b13a00c6de"
        } ]
      }, {
        "detail": [ {
          "reference": "urn:uuid:654f1d69-fce7-4f96-8a3c-1389f5121674"
        } ]
      }, {
        "detail": [ {
          "reference": "urn:uuid:bd61f84f-a0dd-46a0-ad56-e73919027ff8"
        } ]
      }, {
        "detail": [ {
          "reference": "urn:uuid:28277a28-f7cc-4db8-8fe4-92932f2ce379"
        } ]
      }, {
        "detail": [ {
          "reference": "urn:uuid:81909cbd-d28e-481c-8ace-4fa41cc0d645"
        } ]
      }, {
        "detail": [ {
          "reference": "urn:uuid:37958e53-4652-4734-9b9c-c593600fc391"
        } ]
      } ]
    }
  }, {
    "fullUrl": "urn:uuid:ffb08ae4-68eb-460f-a862-0c3298a1aef0",
    "resource": {
      "resourceType": "QuestionnaireResponse",
      "id": "ffb08ae4-68eb-460f-a862-0c3298a1aef0",
      "identifier": {
        "value": "59132"
      },
      "questionnaire": {
        "reference": "urn:uuid:5fbc8813-7b2b-4f92-ae1d-4a77e6c1e869"
      },
      "status": "completed",
      "subject": {
        "reference": "urn:uuid:abe86801-c2d1-4fa4-add6-1cc090830a62"
      },
      "context": {
        "reference": "urn:uuid:ac04f47f-6b3a-4147-8a97-e06892b096af"
      },
      "authored": "2021-04-06T11:33:34+00:00",
      "item": [ {
        "linkId": "Tx220074",
        "text": "What is the reason for the contact?",
        "answer": [ {
          "valueString": "an injury or other health problem"
        } ]
      } ]
    }
  }, {
    "fullUrl": "urn:uuid:5fbc8813-7b2b-4f92-ae1d-4a77e6c1e869",
    "resource": {
      "resourceType": "Questionnaire",
      "id": "5fbc8813-7b2b-4f92-ae1d-4a77e6c1e869",
      "identifier": [ {
        "value": "59132"
      } ],
      "version": "2021-04-06T11:33:34.963Z",
      "status": "active",
      "experimental": false,
      "date": "2021-04-06T11:33:34+00:00",
      "publisher": "User ID: 'MCDONALDD' User name: 'Denzle McDonald' User skill set: 'T3'",
      "lastReviewDate": "2021-04-06",
      "subjectType": [ "Patient" ],
      "item": [ {
        "linkId": "59132",
        "prefix": "5",
        "text": "What is the reason for the contact?",
        "type": "choice",
        "required": true,
        "repeats": false,
        "option": [ {
          "valueString": "an injury or other health problem, Selected: true"
        }, {
          "valueString": "labour or childbirth, Selected: false"
        }, {
          "valueString": "a need to access another healthcare service, Selected: false"
        }, {
          "valueString": "a healthcare professional requesting contact with another clinician, Selected: false"
        }, {
          "valueString": "a report of results or tests, Selected: false"
        }, {
          "valueString": "a possible failure of contraception, Selected: false"
        }, {
          "valueString": "more, Selected: false"
        } ]
      } ]
    }
  }, {
    "fullUrl": "urn:uuid:58c333ff-fec9-4cf0-8790-c59a47b73481",
    "resource": {
      "resourceType": "QuestionnaireResponse",
      "id": "58c333ff-fec9-4cf0-8790-c59a47b73481",
      "identifier": {
        "value": "59132"
      },
      "questionnaire": {
        "reference": "urn:uuid:b68e77fe-860d-4692-a4ee-9645bf6b89b9"
      },
      "status": "completed",
      "subject": {
        "reference": "urn:uuid:abe86801-c2d1-4fa4-add6-1cc090830a62"
      },
      "context": {
        "reference": "urn:uuid:ac04f47f-6b3a-4147-8a97-e06892b096af"
      },
      "authored": "2021-04-06T11:33:34+00:00",
      "item": [ {
        "linkId": "Tx221807",
        "text": "STRING:to'Immediatethreatstolife(SPA/OOHversion)'-'Majorbloodloss'stem",
        "answer": [ {
          "valueString": "\"present\""
        } ]
      } ]
    }
  }, {
    "fullUrl": "urn:uuid:b68e77fe-860d-4692-a4ee-9645bf6b89b9",
    "resource": {
      "resourceType": "Questionnaire",
      "id": "b68e77fe-860d-4692-a4ee-9645bf6b89b9",
      "identifier": [ {
        "value": "59132"
      } ],
      "version": "2021-04-06T11:33:34.963Z",
      "status": "active",
      "experimental": false,
      "date": "2021-04-06T11:33:34+00:00",
      "publisher": "User ID: 'MCDONALDD' User name: 'Denzle McDonald' User skill set: 'T3'",
      "lastReviewDate": "2021-04-06",
      "subjectType": [ "Patient" ],
      "item": [ {
        "linkId": "59132",
        "prefix": "400",
        "text": "STRING:to'Immediatethreatstolife(SPA/OOHversion)'-'Majorbloodloss'stem",
        "type": "choice",
        "required": true,
        "repeats": false,
        "option": [ {
          "valueString": "\"present\", Selected: true"
        } ]
      } ]
    }
  }, {
    "fullUrl": "urn:uuid:eff5a7eb-58f9-440e-837e-88d081d71cf1",
    "resource": {
      "resourceType": "QuestionnaireResponse",
      "id": "eff5a7eb-58f9-440e-837e-88d081d71cf1",
      "identifier": {
        "value": "59132"
      },
      "questionnaire": {
        "reference": "urn:uuid:818350bf-11ca-42aa-b890-a9a853629030"
      },
      "status": "completed",
      "subject": {
        "reference": "urn:uuid:abe86801-c2d1-4fa4-add6-1cc090830a62"
      },
      "context": {
        "reference": "urn:uuid:ac04f47f-6b3a-4147-8a97-e06892b096af"
      },
      "authored": "2021-04-06T11:33:34+00:00"
    }
  }, {
    "fullUrl": "urn:uuid:818350bf-11ca-42aa-b890-a9a853629030",
    "resource": {
      "resourceType": "Questionnaire",
      "id": "818350bf-11ca-42aa-b890-a9a853629030",
      "identifier": [ {
        "value": "59132"
      } ],
      "version": "2021-04-06T11:33:34.963Z",
      "status": "active",
      "experimental": false,
      "date": "2021-04-06T11:33:34+00:00",
      "publisher": "User ID: 'MCDONALDD' User name: 'Denzle McDonald' User skill set: 'T3'",
      "lastReviewDate": "2021-04-06",
      "subjectType": [ "Patient" ]
    }
  }, {
    "fullUrl": "urn:uuid:54e98995-d5b4-43cf-a680-078986c0fa34",
    "resource": {
      "resourceType": "QuestionnaireResponse",
      "id": "54e98995-d5b4-43cf-a680-078986c0fa34",
      "identifier": {
        "value": "59132"
      },
      "questionnaire": {
        "reference": "urn:uuid:eb8e4371-374f-4cdb-8384-b337e26e79fd"
      },
      "status": "completed",
      "subject": {
        "reference": "urn:uuid:abe86801-c2d1-4fa4-add6-1cc090830a62"
      },
      "context": {
        "reference": "urn:uuid:ac04f47f-6b3a-4147-8a97-e06892b096af"
      },
      "authored": "2021-04-06T11:33:34+00:00",
      "item": [ {
        "linkId": "Tx221799",
        "text": "STRING:injury,illnessorlabourestablishedinEntryFlow",
        "answer": [ {
          "valueString": "\"present\""
        } ]
      } ]
    }
  }, {
    "fullUrl": "urn:uuid:eb8e4371-374f-4cdb-8384-b337e26e79fd",
    "resource": {
      "resourceType": "Questionnaire",
      "id": "eb8e4371-374f-4cdb-8384-b337e26e79fd",
      "identifier": [ {
        "value": "59132"
      } ],
      "version": "2021-04-06T11:33:34.963Z",
      "status": "active",
      "experimental": false,
      "date": "2021-04-06T11:33:34+00:00",
      "publisher": "User ID: 'MCDONALDD' User name: 'Denzle McDonald' User skill set: 'T3'",
      "lastReviewDate": "2021-04-06",
      "subjectType": [ "Patient" ],
      "item": [ {
        "linkId": "59132",
        "prefix": "0",
        "text": "STRING:injury,illnessorlabourestablishedinEntryFlow",
        "type": "choice",
        "required": true,
        "repeats": false,
        "option": [ {
          "valueString": "\"present\", Selected: true"
        } ]
      } ]
    }
  }, {
    "fullUrl": "urn:uuid:2a342997-a7a8-4ff5-adcc-b31bceddf2f5",
    "resource": {
      "resourceType": "QuestionnaireResponse",
      "id": "2a342997-a7a8-4ff5-adcc-b31bceddf2f5",
      "identifier": {
        "value": "59132"
      },
      "questionnaire": {
        "reference": "urn:uuid:b40bea2e-c89a-4551-adfa-1747beb26dc7"
      },
      "status": "completed",
      "subject": {
        "reference": "urn:uuid:abe86801-c2d1-4fa4-add6-1cc090830a62"
      },
      "context": {
        "reference": "urn:uuid:ac04f47f-6b3a-4147-8a97-e06892b096af"
      },
      "authored": "2021-04-06T11:33:34+00:00",
      "item": [ {
        "linkId": "Tx221421",
        "text": "Have you been bleeding RED BLOOD very heavily IN THE LAST 30 MINUTES?",
        "answer": [ {
          "valueString": "no"
        } ]
      } ]
    }
  }, {
    "fullUrl": "urn:uuid:b40bea2e-c89a-4551-adfa-1747beb26dc7",
    "resource": {
      "resourceType": "Questionnaire",
      "id": "b40bea2e-c89a-4551-adfa-1747beb26dc7",
      "identifier": [ {
        "value": "59132"
      } ],
      "version": "2021-04-06T11:33:34.963Z",
      "status": "active",
      "experimental": false,
      "date": "2021-04-06T11:33:34+00:00",
      "publisher": "User ID: 'MCDONALDD' User name: 'Denzle McDonald' User skill set: 'T3'",
      "lastReviewDate": "2021-04-06",
      "subjectType": [ "Patient" ],
      "item": [ {
        "linkId": "59132",
        "prefix": "200",
        "text": "Have you been bleeding RED BLOOD very heavily IN THE LAST 30 MINUTES?",
        "type": "choice",
        "required": true,
        "repeats": false,
        "option": [ {
          "valueString": "yes, Selected: false"
        }, {
          "valueString": "not sure, Selected: false"
        }, {
          "valueString": "no, Selected: true"
        } ]
      } ]
    }
  }, {
    "fullUrl": "urn:uuid:eeb041fc-1ac9-4b1e-b541-7475c99e7460",
    "resource": {
      "resourceType": "QuestionnaireResponse",
      "id": "eeb041fc-1ac9-4b1e-b541-7475c99e7460",
      "identifier": {
        "value": "59132"
      },
      "questionnaire": {
        "reference": "urn:uuid:37fa5e00-d5eb-47e2-a0c8-f34aa33cc8ef"
      },
      "status": "completed",
      "subject": {
        "reference": "urn:uuid:abe86801-c2d1-4fa4-add6-1cc090830a62"
      },
      "context": {
        "reference": "urn:uuid:ac04f47f-6b3a-4147-8a97-e06892b096af"
      },
      "authored": "2021-04-06T11:33:34+00:00",
      "item": [ {
        "linkId": "Tx221343",
        "text": "SocialConcernsExcluded",
        "answer": [ {
          "valueString": "*"
        } ]
      } ]
    }
  }, {
    "fullUrl": "urn:uuid:37fa5e00-d5eb-47e2-a0c8-f34aa33cc8ef",
    "resource": {
      "resourceType": "Questionnaire",
      "id": "37fa5e00-d5eb-47e2-a0c8-f34aa33cc8ef",
      "identifier": [ {
        "value": "59132"
      } ],
      "version": "2021-04-06T11:33:34.963Z",
      "status": "active",
      "experimental": false,
      "date": "2021-04-06T11:33:34+00:00",
      "publisher": "User ID: 'MCDONALDD' User name: 'Denzle McDonald' User skill set: 'T3'",
      "lastReviewDate": "2021-04-06",
      "subjectType": [ "Patient" ],
      "item": [ {
        "linkId": "59132",
        "prefix": "2600",
        "text": "SocialConcernsExcluded",
        "type": "choice",
        "required": true,
        "repeats": false,
        "option": [ {
          "valueString": "==\"present\", Selected: false"
        }, {
          "valueString": "*, Selected: true"
        } ]
      } ]
    }
  }, {
    "fullUrl": "urn:uuid:cdfc327f-4880-443e-b50c-2a2482f462f0",
    "resource": {
      "resourceType": "QuestionnaireResponse",
      "id": "cdfc327f-4880-443e-b50c-2a2482f462f0",
      "identifier": {
        "value": "59132"
      },
      "questionnaire": {
        "reference": "urn:uuid:aeeec77c-bb0b-4cbe-9aac-8ae0abf64093"
      },
      "status": "completed",
      "subject": {
        "reference": "urn:uuid:abe86801-c2d1-4fa4-add6-1cc090830a62"
      },
      "context": {
        "reference": "urn:uuid:ac04f47f-6b3a-4147-8a97-e06892b096af"
      },
      "authored": "2021-04-06T11:33:34+00:00",
      "item": [ {
        "linkId": "Tx130011",
        "text": "What is the main problem?",
        "answer": [ {
          "valueString": "illness or other health problem (specify)"
        } ]
      } ]
    }
  }, {
    "fullUrl": "urn:uuid:aeeec77c-bb0b-4cbe-9aac-8ae0abf64093",
    "resource": {
      "resourceType": "Questionnaire",
      "id": "aeeec77c-bb0b-4cbe-9aac-8ae0abf64093",
      "identifier": [ {
        "value": "59132"
      } ],
      "version": "2021-04-06T11:33:34.963Z",
      "status": "active",
      "experimental": false,
      "date": "2021-04-06T11:33:34+00:00",
      "publisher": "User ID: 'MCDONALDD' User name: 'Denzle McDonald' User skill set: 'T3'",
      "lastReviewDate": "2021-04-06",
      "subjectType": [ "Patient" ],
      "item": [ {
        "linkId": "59132",
        "prefix": "2500",
        "text": "What is the main problem?",
        "type": "choice",
        "required": true,
        "repeats": false,
        "option": [ {
          "valueString": "the individual has been told to follow a particular course of action (specify), Selected: false"
        }, {
          "valueString": "the individual is an identified frequent caller, Selected: false"
        }, {
          "valueString": "injury (specify), Selected: false"
        }, {
          "valueString": "illness or other health problem (specify), Selected: true"
        }, {
          "valueString": "child protection/vulnerable adult concern, Selected: false"
        }, {
          "valueString": "social or domestic emergency, Selected: false"
        }, {
          "valueString": "the environment potentially poses an immediate threat to life (specify), Selected: false"
        } ]
      } ]
    }
  }, {
    "fullUrl": "urn:uuid:b121401d-c5f9-48c3-bc58-3625aa078049",
    "resource": {
      "resourceType": "QuestionnaireResponse",
      "id": "b121401d-c5f9-48c3-bc58-3625aa078049",
      "identifier": {
        "value": "59132"
      },
      "questionnaire": {
        "reference": "urn:uuid:fe60e16e-dcf5-42ba-be46-1ef914f0c6b1"
      },
      "status": "completed",
      "subject": {
        "reference": "urn:uuid:abe86801-c2d1-4fa4-add6-1cc090830a62"
      },
      "context": {
        "reference": "urn:uuid:ac04f47f-6b3a-4147-8a97-e06892b096af"
      },
      "authored": "2021-04-06T11:33:34+00:00"
    }
  }, {
    "fullUrl": "urn:uuid:fe60e16e-dcf5-42ba-be46-1ef914f0c6b1",
    "resource": {
      "resourceType": "Questionnaire",
      "id": "fe60e16e-dcf5-42ba-be46-1ef914f0c6b1",
      "identifier": [ {
        "value": "59132"
      } ],
      "version": "2021-04-06T11:33:34.963Z",
      "status": "active",
      "experimental": false,
      "date": "2021-04-06T11:33:34+00:00",
      "publisher": "User ID: 'MCDONALDD' User name: 'Denzle McDonald' User skill set: 'T3'",
      "lastReviewDate": "2021-04-06",
      "subjectType": [ "Patient" ]
    }
  }, {
    "fullUrl": "urn:uuid:25713d28-c31b-4eb5-8d98-fa26c2103850",
    "resource": {
      "resourceType": "QuestionnaireResponse",
      "id": "25713d28-c31b-4eb5-8d98-fa26c2103850",
      "identifier": {
        "value": "59132"
      },
      "questionnaire": {
        "reference": "urn:uuid:8b4df25b-2f01-452a-8849-ca72f1f71aea"
      },
      "status": "completed",
      "subject": {
        "reference": "urn:uuid:abe86801-c2d1-4fa4-add6-1cc090830a62"
      },
      "context": {
        "reference": "urn:uuid:ac04f47f-6b3a-4147-8a97-e06892b096af"
      },
      "authored": "2021-04-06T11:33:34+00:00",
      "item": [ {
        "linkId": "Tx61025",
        "text": "Are you so breathless that speaking more than a few words is impossible?",
        "answer": [ {
          "valueString": "no"
        } ]
      } ]
    }
  }, {
    "fullUrl": "urn:uuid:8b4df25b-2f01-452a-8849-ca72f1f71aea",
    "resource": {
      "resourceType": "Questionnaire",
      "id": "8b4df25b-2f01-452a-8849-ca72f1f71aea",
      "identifier": [ {
        "value": "59132"
      } ],
      "version": "2021-04-06T11:33:34.963Z",
      "status": "active",
      "experimental": false,
      "date": "2021-04-06T11:33:34+00:00",
      "publisher": "User ID: 'MCDONALDD' User name: 'Denzle McDonald' User skill set: 'T3'",
      "lastReviewDate": "2021-04-06",
      "subjectType": [ "Patient" ],
      "item": [ {
        "linkId": "59132",
        "prefix": "0",
        "text": "Are you so breathless that speaking more than a few words is impossible?",
        "type": "choice",
        "required": true,
        "repeats": false,
        "option": [ {
          "valueString": "yes, Selected: false"
        }, {
          "valueString": "not sure, Selected: false"
        }, {
          "valueString": "no, Selected: true"
        } ]
      } ]
    }
  }, {
    "fullUrl": "urn:uuid:e7f78ec5-0aab-49d8-b94b-2fdc7b8d872c",
    "resource": {
      "resourceType": "QuestionnaireResponse",
      "id": "e7f78ec5-0aab-49d8-b94b-2fdc7b8d872c",
      "identifier": {
        "value": "59132"
      },
      "questionnaire": {
        "reference": "urn:uuid:dcfee9a4-1c98-445c-96dd-0095681ee0b2"
      },
      "status": "completed",
      "subject": {
        "reference": "urn:uuid:abe86801-c2d1-4fa4-add6-1cc090830a62"
      },
      "context": {
        "reference": "urn:uuid:ac04f47f-6b3a-4147-8a97-e06892b096af"
      },
      "authored": "2021-04-06T11:33:34+00:00",
      "item": [ {
        "linkId": "Tx220845",
        "text": "SYSTEM_FLUPANDEMIC",
        "answer": [ {
          "valueString": "*"
        } ]
      } ]
    }
  }, {
    "fullUrl": "urn:uuid:dcfee9a4-1c98-445c-96dd-0095681ee0b2",
    "resource": {
      "resourceType": "Questionnaire",
      "id": "dcfee9a4-1c98-445c-96dd-0095681ee0b2",
      "identifier": [ {
        "value": "59132"
      } ],
      "version": "2021-04-06T11:33:34.963Z",
      "status": "active",
      "experimental": false,
      "date": "2021-04-06T11:33:34+00:00",
      "publisher": "User ID: 'MCDONALDD' User name: 'Denzle McDonald' User skill set: 'T3'",
      "lastReviewDate": "2021-04-06",
      "subjectType": [ "Patient" ],
      "item": [ {
        "linkId": "59132",
        "prefix": "100",
        "text": "SYSTEM_FLUPANDEMIC",
        "type": "choice",
        "required": true,
        "repeats": false,
        "option": [ {
          "valueString": "==\"pandemic\", Selected: false"
        }, {
          "valueString": "*, Selected: true"
        } ]
      } ]
    }
  }, {
    "fullUrl": "urn:uuid:07820e03-7f00-4be7-9e06-2a49047b42df",
    "resource": {
      "resourceType": "QuestionnaireResponse",
      "id": "07820e03-7f00-4be7-9e06-2a49047b42df",
      "identifier": {
        "value": "59132"
      },
      "questionnaire": {
        "reference": "urn:uuid:2f8c5a46-6210-407a-864a-522c4c07baa8"
      },
      "status": "completed",
      "subject": {
        "reference": "urn:uuid:abe86801-c2d1-4fa4-add6-1cc090830a62"
      },
      "context": {
        "reference": "urn:uuid:ac04f47f-6b3a-4147-8a97-e06892b096af"
      },
      "authored": "2021-04-06T11:33:34+00:00",
      "item": [ {
        "linkId": "Tx220044",
        "text": "WHAT IS SAID TO BE THE MAIN REASON FOR THIS CONTACT?",
        "answer": [ {
          "valueString": "more"
        } ]
      } ]
    }
  }, {
    "fullUrl": "urn:uuid:2f8c5a46-6210-407a-864a-522c4c07baa8",
    "resource": {
      "resourceType": "Questionnaire",
      "id": "2f8c5a46-6210-407a-864a-522c4c07baa8",
      "identifier": [ {
        "value": "59132"
      } ],
      "version": "2021-04-06T11:33:34.963Z",
      "status": "active",
      "experimental": false,
      "date": "2021-04-06T11:33:34+00:00",
      "publisher": "User ID: 'MCDONALDD' User name: 'Denzle McDonald' User skill set: 'T3'",
      "lastReviewDate": "2021-04-06",
      "subjectType": [ "Patient" ],
      "item": [ {
        "linkId": "59132",
        "prefix": "5000",
        "text": "WHAT IS SAID TO BE THE MAIN REASON FOR THIS CONTACT?",
        "type": "choice",
        "required": true,
        "repeats": false,
        "option": [ {
          "valueString": "a probable allergic reaction now, Selected: false"
        }, {
          "valueString": "chest or upper back pain, Selected: false"
        }, {
          "valueString": "a probable fit or seizure within the last 12 hours, Selected: false"
        }, {
          "valueString": "a suicide attempt, Selected: false"
        }, {
          "valueString": "new confusion now, Selected: false"
        }, {
          "valueString": "a probable stroke or mini stroke, Selected: false"
        }, {
          "valueString": "more, Selected: true"
        } ]
      } ]
    }
  }, {
    "fullUrl": "urn:uuid:135f9917-9377-4740-a8d9-e5049d33aa11",
    "resource": {
      "resourceType": "QuestionnaireResponse",
      "id": "135f9917-9377-4740-a8d9-e5049d33aa11",
      "identifier": {
        "value": "59132"
      },
      "questionnaire": {
        "reference": "urn:uuid:fb7a0300-8d8e-412d-8ece-0ffeb4b1da16"
      },
      "status": "completed",
      "subject": {
        "reference": "urn:uuid:abe86801-c2d1-4fa4-add6-1cc090830a62"
      },
      "context": {
        "reference": "urn:uuid:ac04f47f-6b3a-4147-8a97-e06892b096af"
      },
      "authored": "2021-04-06T11:33:34+00:00",
      "item": [ {
        "linkId": "Tx223029",
        "text": "WHAT IS SAID TO BE THE MAIN REASON FOR THIS CONTACT?",
        "answer": [ {
          "valueString": "none of the above"
        } ]
      } ]
    }
  }, {
    "fullUrl": "urn:uuid:fb7a0300-8d8e-412d-8ece-0ffeb4b1da16",
    "resource": {
      "resourceType": "Questionnaire",
      "id": "fb7a0300-8d8e-412d-8ece-0ffeb4b1da16",
      "identifier": [ {
        "value": "59132"
      } ],
      "version": "2021-04-06T11:33:34.963Z",
      "status": "active",
      "experimental": false,
      "date": "2021-04-06T11:33:34+00:00",
      "publisher": "User ID: 'MCDONALDD' User name: 'Denzle McDonald' User skill set: 'T3'",
      "lastReviewDate": "2021-04-06",
      "subjectType": [ "Patient" ],
      "item": [ {
        "linkId": "59132",
        "prefix": "4100",
        "text": "WHAT IS SAID TO BE THE MAIN REASON FOR THIS CONTACT?",
        "type": "choice",
        "required": true,
        "repeats": false,
        "option": [ {
          "valueString": "a diabetic hypo (low blood sugar) or a diabetic hyper (high blood sugar), Selected: false"
        }, {
          "valueString": "recovery from an ICD (implanted cardioverter defibrillator) shock, Selected: false"
        }, {
          "valueString": "none of the above, Selected: true"
        } ]
      } ]
    }
  }, {
    "fullUrl": "urn:uuid:f5f1bdc7-ae47-446e-8155-4bf8b6aec556",
    "resource": {
      "resourceType": "QuestionnaireResponse",
      "id": "f5f1bdc7-ae47-446e-8155-4bf8b6aec556",
      "identifier": {
        "value": "59132"
      },
      "questionnaire": {
        "reference": "urn:uuid:63c1558e-d039-4c3b-92ad-e7472b611186"
      },
      "status": "completed",
      "subject": {
        "reference": "urn:uuid:abe86801-c2d1-4fa4-add6-1cc090830a62"
      },
      "context": {
        "reference": "urn:uuid:ac04f47f-6b3a-4147-8a97-e06892b096af"
      },
      "authored": "2021-04-06T11:33:34+00:00",
      "item": [ {
        "linkId": "Tx223142",
        "text": "Does the skin on the chest, back or abdomen feel a normal temperature?",
        "answer": [ {
          "valueString": "yes - normal, warm or hot"
        } ]
      } ]
    }
  }, {
    "fullUrl": "urn:uuid:63c1558e-d039-4c3b-92ad-e7472b611186",
    "resource": {
      "resourceType": "Questionnaire",
      "id": "63c1558e-d039-4c3b-92ad-e7472b611186",
      "identifier": [ {
        "value": "59132"
      } ],
      "version": "2021-04-06T11:33:34.963Z",
      "status": "active",
      "experimental": false,
      "date": "2021-04-06T11:33:34+00:00",
      "publisher": "User ID: 'MCDONALDD' User name: 'Denzle McDonald' User skill set: 'T3'",
      "lastReviewDate": "2021-04-06",
      "subjectType": [ "Patient" ],
      "item": [ {
        "linkId": "59132",
        "prefix": "4400",
        "text": "Does the skin on the chest, back or abdomen feel a normal temperature?",
        "type": "choice",
        "required": true,
        "repeats": false,
        "option": [ {
          "valueString": "yes - normal, warm or hot, Selected: true"
        }, {
          "valueString": "not sure, Selected: false"
        }, {
          "valueString": "no - cool OR cold, Selected: false"
        }, {
          "valueString": "not safe to touch, Selected: false"
        } ]
      } ]
    }
  }, {
    "fullUrl": "urn:uuid:03a5dfc6-f90b-43bb-baf7-4b0dfb17ff52",
    "resource": {
      "resourceType": "QuestionnaireResponse",
      "id": "03a5dfc6-f90b-43bb-baf7-4b0dfb17ff52",
      "identifier": {
        "value": "59132"
      },
      "questionnaire": {
        "reference": "urn:uuid:5e88d77c-1374-47fc-9401-3e15f34cc065"
      },
      "status": "completed",
      "subject": {
        "reference": "urn:uuid:abe86801-c2d1-4fa4-add6-1cc090830a62"
      },
      "context": {
        "reference": "urn:uuid:ac04f47f-6b3a-4147-8a97-e06892b096af"
      },
      "authored": "2021-04-06T11:33:34+00:00",
      "item": [ {
        "linkId": "Tx221724",
        "text": "STRING:ShockAsked",
        "answer": [ {
          "valueString": "\"present\""
        } ]
      } ]
    }
  }, {
    "fullUrl": "urn:uuid:5e88d77c-1374-47fc-9401-3e15f34cc065",
    "resource": {
      "resourceType": "Questionnaire",
      "id": "5e88d77c-1374-47fc-9401-3e15f34cc065",
      "identifier": [ {
        "value": "59132"
      } ],
      "version": "2021-04-06T11:33:34.963Z",
      "status": "active",
      "experimental": false,
      "date": "2021-04-06T11:33:34+00:00",
      "publisher": "User ID: 'MCDONALDD' User name: 'Denzle McDonald' User skill set: 'T3'",
      "lastReviewDate": "2021-04-06",
      "subjectType": [ "Patient" ],
      "item": [ {
        "linkId": "59132",
        "prefix": "3300",
        "text": "STRING:ShockAsked",
        "type": "choice",
        "required": true,
        "repeats": false,
        "option": [ {
          "valueString": "\"present\", Selected: true"
        } ]
      } ]
    }
  }, {
    "fullUrl": "urn:uuid:e2a5f5b5-12fd-4f3c-8499-2104d8853d8f",
    "resource": {
      "resourceType": "QuestionnaireResponse",
      "id": "e2a5f5b5-12fd-4f3c-8499-2104d8853d8f",
      "identifier": {
        "value": "59132"
      },
      "questionnaire": {
        "reference": "urn:uuid:4565ee6f-aac8-43a0-9acc-5fb466516112"
      },
      "status": "completed",
      "subject": {
        "reference": "urn:uuid:abe86801-c2d1-4fa4-add6-1cc090830a62"
      },
      "context": {
        "reference": "urn:uuid:ac04f47f-6b3a-4147-8a97-e06892b096af"
      },
      "authored": "2021-04-06T11:33:34+00:00"
    }
  }, {
    "fullUrl": "urn:uuid:4565ee6f-aac8-43a0-9acc-5fb466516112",
    "resource": {
      "resourceType": "Questionnaire",
      "id": "4565ee6f-aac8-43a0-9acc-5fb466516112",
      "identifier": [ {
        "value": "59132"
      } ],
      "version": "2021-04-06T11:33:34.963Z",
      "status": "active",
      "experimental": false,
      "date": "2021-04-06T11:33:34+00:00",
      "publisher": "User ID: 'MCDONALDD' User name: 'Denzle McDonald' User skill set: 'T3'",
      "lastReviewDate": "2021-04-06",
      "subjectType": [ "Patient" ]
    }
  }, {
    "fullUrl": "urn:uuid:e9745e37-c0c7-4d7d-9e62-7e383534a1bb",
    "resource": {
      "resourceType": "QuestionnaireResponse",
      "id": "e9745e37-c0c7-4d7d-9e62-7e383534a1bb",
      "identifier": {
        "value": "59132"
      },
      "questionnaire": {
        "reference": "urn:uuid:6c049927-eaa3-4b29-947e-1212eabfd20e"
      },
      "status": "completed",
      "subject": {
        "reference": "urn:uuid:abe86801-c2d1-4fa4-add6-1cc090830a62"
      },
      "context": {
        "reference": "urn:uuid:ac04f47f-6b3a-4147-8a97-e06892b096af"
      },
      "authored": "2021-04-06T11:33:34+00:00",
      "item": [ {
        "linkId": "Tx223272",
        "text": "SYSTEM_VHF",
        "answer": [ {
          "valueString": "*"
        } ]
      } ]
    }
  }, {
    "fullUrl": "urn:uuid:6c049927-eaa3-4b29-947e-1212eabfd20e",
    "resource": {
      "resourceType": "Questionnaire",
      "id": "6c049927-eaa3-4b29-947e-1212eabfd20e",
      "identifier": [ {
        "value": "59132"
      } ],
      "version": "2021-04-06T11:33:34.963Z",
      "status": "active",
      "experimental": false,
      "date": "2021-04-06T11:33:34+00:00",
      "publisher": "User ID: 'MCDONALDD' User name: 'Denzle McDonald' User skill set: 'T3'",
      "lastReviewDate": "2021-04-06",
      "subjectType": [ "Patient" ],
      "item": [ {
        "linkId": "59132",
        "prefix": "0",
        "text": "SYSTEM_VHF",
        "type": "choice",
        "required": true,
        "repeats": false,
        "option": [ {
          "valueString": "==\"vhf\", Selected: false"
        }, {
          "valueString": "*, Selected: true"
        } ]
      } ]
    }
  }, {
    "fullUrl": "urn:uuid:f932b7d1-758b-46af-bd6a-13f03628567d",
    "resource": {
      "resourceType": "QuestionnaireResponse",
      "id": "f932b7d1-758b-46af-bd6a-13f03628567d",
      "identifier": {
        "value": "59132"
      },
      "questionnaire": {
        "reference": "urn:uuid:2e98004b-c9f6-47c7-aa9b-28c1e9f5e4bc"
      },
      "status": "completed",
      "subject": {
        "reference": "urn:uuid:abe86801-c2d1-4fa4-add6-1cc090830a62"
      },
      "context": {
        "reference": "urn:uuid:ac04f47f-6b3a-4147-8a97-e06892b096af"
      },
      "authored": "2021-04-06T11:33:34+00:00",
      "item": [ {
        "linkId": "Tx222416",
        "text": "Have you actually vomited?",
        "answer": [ {
          "valueString": "no"
        } ]
      } ]
    }
  }, {
    "fullUrl": "urn:uuid:2e98004b-c9f6-47c7-aa9b-28c1e9f5e4bc",
    "resource": {
      "resourceType": "Questionnaire",
      "id": "2e98004b-c9f6-47c7-aa9b-28c1e9f5e4bc",
      "identifier": [ {
        "value": "59132"
      } ],
      "version": "2021-04-06T11:33:34.963Z",
      "status": "active",
      "experimental": false,
      "date": "2021-04-06T11:33:34+00:00",
      "publisher": "User ID: 'MCDONALDD' User name: 'Denzle McDonald' User skill set: 'T3'",
      "lastReviewDate": "2021-04-06",
      "subjectType": [ "Patient" ],
      "item": [ {
        "linkId": "59132",
        "prefix": "30400",
        "text": "Have you actually vomited?",
        "type": "choice",
        "required": true,
        "repeats": false,
        "option": [ {
          "valueString": "yes, Selected: false"
        }, {
          "valueString": "not sure, Selected: false"
        }, {
          "valueString": "no, Selected: true"
        } ]
      } ]
    }
  }, {
    "fullUrl": "urn:uuid:96bc4d0f-b4b2-4ca9-9a7a-2f4a4ff9eef2",
    "resource": {
      "resourceType": "QuestionnaireResponse",
      "id": "96bc4d0f-b4b2-4ca9-9a7a-2f4a4ff9eef2",
      "identifier": {
        "value": "59132"
      },
      "questionnaire": {
        "reference": "urn:uuid:7aa20f9e-f054-4690-a140-9d445457f889"
      },
      "status": "completed",
      "subject": {
        "reference": "urn:uuid:abe86801-c2d1-4fa4-add6-1cc090830a62"
      },
      "context": {
        "reference": "urn:uuid:ac04f47f-6b3a-4147-8a97-e06892b096af"
      },
      "authored": "2021-04-06T11:33:34+00:00",
      "item": [ {
        "linkId": "Tx220964",
        "text": "Have you got diarrhoea as well?",
        "answer": [ {
          "valueString": "no"
        } ]
      } ]
    }
  }, {
    "fullUrl": "urn:uuid:7aa20f9e-f054-4690-a140-9d445457f889",
    "resource": {
      "resourceType": "Questionnaire",
      "id": "7aa20f9e-f054-4690-a140-9d445457f889",
      "identifier": [ {
        "value": "59132"
      } ],
      "version": "2021-04-06T11:33:34.963Z",
      "status": "active",
      "experimental": false,
      "date": "2021-04-06T11:33:34+00:00",
      "publisher": "User ID: 'MCDONALDD' User name: 'Denzle McDonald' User skill set: 'T3'",
      "lastReviewDate": "2021-04-06",
      "subjectType": [ "Patient" ],
      "item": [ {
        "linkId": "59132",
        "prefix": "100",
        "text": "Have you got diarrhoea as well?",
        "type": "choice",
        "required": true,
        "repeats": false,
        "option": [ {
          "valueString": "yes, Selected: false"
        }, {
          "valueString": "not sure, Selected: false"
        }, {
          "valueString": "no, Selected: true"
        } ]
      } ]
    }
  }, {
    "fullUrl": "urn:uuid:5d9cfe8f-34d9-4610-b564-04baf9c695da",
    "resource": {
      "resourceType": "QuestionnaireResponse",
      "id": "5d9cfe8f-34d9-4610-b564-04baf9c695da",
      "identifier": {
        "value": "59132"
      },
      "questionnaire": {
        "reference": "urn:uuid:166f38d3-d3d9-456f-802d-2ac6ff956f3e"
      },
      "status": "completed",
      "subject": {
        "reference": "urn:uuid:abe86801-c2d1-4fa4-add6-1cc090830a62"
      },
      "context": {
        "reference": "urn:uuid:ac04f47f-6b3a-4147-8a97-e06892b096af"
      },
      "authored": "2021-04-06T11:33:34+00:00",
      "item": [ {
        "linkId": "Tx221277",
        "text": "Vomiting",
        "answer": [ {
          "valueString": "*"
        } ]
      } ]
    }
  }, {
    "fullUrl": "urn:uuid:166f38d3-d3d9-456f-802d-2ac6ff956f3e",
    "resource": {
      "resourceType": "Questionnaire",
      "id": "166f38d3-d3d9-456f-802d-2ac6ff956f3e",
      "identifier": [ {
        "value": "59132"
      } ],
      "version": "2021-04-06T11:33:34.963Z",
      "status": "active",
      "experimental": false,
      "date": "2021-04-06T11:33:34+00:00",
      "publisher": "User ID: 'MCDONALDD' User name: 'Denzle McDonald' User skill set: 'T3'",
      "lastReviewDate": "2021-04-06",
      "subjectType": [ "Patient" ],
      "item": [ {
        "linkId": "59132",
        "prefix": "400",
        "text": "Vomiting",
        "type": "choice",
        "required": true,
        "repeats": false,
        "option": [ {
          "valueString": "==\"present\", Selected: false"
        }, {
          "valueString": "*, Selected: true"
        } ]
      } ]
    }
  }, {
    "fullUrl": "urn:uuid:326b542d-9d72-4ffc-bd87-af95c8aca083",
    "resource": {
      "resourceType": "QuestionnaireResponse",
      "id": "326b542d-9d72-4ffc-bd87-af95c8aca083",
      "identifier": {
        "value": "59132"
      },
      "questionnaire": {
        "reference": "urn:uuid:427e371b-6c39-43d4-9b24-9eef1eec6ea2"
      },
      "status": "completed",
      "subject": {
        "reference": "urn:uuid:abe86801-c2d1-4fa4-add6-1cc090830a62"
      },
      "context": {
        "reference": "urn:uuid:ac04f47f-6b3a-4147-8a97-e06892b096af"
      },
      "authored": "2021-04-06T11:33:34+00:00",
      "item": [ {
        "linkId": "Tx221183",
        "text": "Did the symptoms come on after drinking alcohol?",
        "answer": [ {
          "valueString": "no"
        } ]
      } ]
    }
  }, {
    "fullUrl": "urn:uuid:427e371b-6c39-43d4-9b24-9eef1eec6ea2",
    "resource": {
      "resourceType": "Questionnaire",
      "id": "427e371b-6c39-43d4-9b24-9eef1eec6ea2",
      "identifier": [ {
        "value": "59132"
      } ],
      "version": "2021-04-06T11:33:34.963Z",
      "status": "active",
      "experimental": false,
      "date": "2021-04-06T11:33:34+00:00",
      "publisher": "User ID: 'MCDONALDD' User name: 'Denzle McDonald' User skill set: 'T3'",
      "lastReviewDate": "2021-04-06",
      "subjectType": [ "Patient" ],
      "item": [ {
        "linkId": "59132",
        "prefix": "300",
        "text": "Did the symptoms come on after drinking alcohol?",
        "type": "choice",
        "required": true,
        "repeats": false,
        "option": [ {
          "valueString": "yes, Selected: false"
        }, {
          "valueString": "not sure, Selected: false"
        }, {
          "valueString": "no, Selected: true"
        } ]
      } ]
    }
  }, {
    "fullUrl": "urn:uuid:a976ce63-0b6d-428c-9e85-d4410dea64ee",
    "resource": {
      "resourceType": "QuestionnaireResponse",
      "id": "a976ce63-0b6d-428c-9e85-d4410dea64ee",
      "identifier": {
        "value": "59132"
      },
      "questionnaire": {
        "reference": "urn:uuid:88b049dc-2f05-4191-9da3-79306e83d5bb"
      },
      "status": "completed",
      "subject": {
        "reference": "urn:uuid:abe86801-c2d1-4fa4-add6-1cc090830a62"
      },
      "context": {
        "reference": "urn:uuid:ac04f47f-6b3a-4147-8a97-e06892b096af"
      },
      "authored": "2021-04-06T11:33:34+00:00",
      "item": [ {
        "linkId": "Tx221277",
        "text": "Vomiting",
        "answer": [ {
          "valueString": "*"
        } ]
      } ]
    }
  }, {
    "fullUrl": "urn:uuid:88b049dc-2f05-4191-9da3-79306e83d5bb",
    "resource": {
      "resourceType": "Questionnaire",
      "id": "88b049dc-2f05-4191-9da3-79306e83d5bb",
      "identifier": [ {
        "value": "59132"
      } ],
      "version": "2021-04-06T11:33:34.963Z",
      "status": "active",
      "experimental": false,
      "date": "2021-04-06T11:33:34+00:00",
      "publisher": "User ID: 'MCDONALDD' User name: 'Denzle McDonald' User skill set: 'T3'",
      "lastReviewDate": "2021-04-06",
      "subjectType": [ "Patient" ],
      "item": [ {
        "linkId": "59132",
        "prefix": "1000",
        "text": "Vomiting",
        "type": "choice",
        "required": true,
        "repeats": false,
        "option": [ {
          "valueString": "==\"present\", Selected: false"
        }, {
          "valueString": "*, Selected: true"
        } ]
      } ]
    }
  }, {
    "fullUrl": "urn:uuid:d148743a-e6b3-4335-8b9a-d9f190ff733c",
    "resource": {
      "resourceType": "QuestionnaireResponse",
      "id": "d148743a-e6b3-4335-8b9a-d9f190ff733c",
      "identifier": {
        "value": "59132"
      },
      "questionnaire": {
        "reference": "urn:uuid:2fa2dc2c-5558-4fbc-a183-2ea8a071d3ef"
      },
      "status": "completed",
      "subject": {
        "reference": "urn:uuid:abe86801-c2d1-4fa4-add6-1cc090830a62"
      },
      "context": {
        "reference": "urn:uuid:ac04f47f-6b3a-4147-8a97-e06892b096af"
      },
      "authored": "2021-04-06T11:33:34+00:00",
      "item": [ {
        "linkId": "Tx220825",
        "text": "Have you also got any pain in the abdomen?",
        "answer": [ {
          "valueString": "yes"
        } ]
      } ]
    }
  }, {
    "fullUrl": "urn:uuid:2fa2dc2c-5558-4fbc-a183-2ea8a071d3ef",
    "resource": {
      "resourceType": "Questionnaire",
      "id": "2fa2dc2c-5558-4fbc-a183-2ea8a071d3ef",
      "identifier": [ {
        "value": "59132"
      } ],
      "version": "2021-04-06T11:33:34.963Z",
      "status": "active",
      "experimental": false,
      "date": "2021-04-06T11:33:34+00:00",
      "publisher": "User ID: 'MCDONALDD' User name: 'Denzle McDonald' User skill set: 'T3'",
      "lastReviewDate": "2021-04-06",
      "subjectType": [ "Patient" ],
      "item": [ {
        "linkId": "59132",
        "prefix": "1500",
        "text": "Have you also got any pain in the abdomen?",
        "type": "choice",
        "required": true,
        "repeats": false,
        "option": [ {
          "valueString": "yes, Selected: true"
        }, {
          "valueString": "not sure, Selected: false"
        }, {
          "valueString": "no, Selected: false"
        } ]
      } ]
    }
  }, {
    "fullUrl": "urn:uuid:6f3a401a-fa5a-48f9-b6bd-793ae3b4660c",
    "resource": {
      "resourceType": "QuestionnaireResponse",
      "id": "6f3a401a-fa5a-48f9-b6bd-793ae3b4660c",
      "identifier": {
        "value": "59132"
      },
      "questionnaire": {
        "reference": "urn:uuid:9300b247-fd66-4d38-896f-f083e87a5807"
      },
      "status": "completed",
      "subject": {
        "reference": "urn:uuid:abe86801-c2d1-4fa4-add6-1cc090830a62"
      },
      "context": {
        "reference": "urn:uuid:ac04f47f-6b3a-4147-8a97-e06892b096af"
      },
      "authored": "2021-04-06T11:33:34+00:00",
      "item": [ {
        "linkId": "Tx224927",
        "text": "STRING:VomitingAnd/OrNauseaWithAbdominalPainPW",
        "answer": [ {
          "valueString": "\"present\""
        } ]
      } ]
    }
  }, {
    "fullUrl": "urn:uuid:9300b247-fd66-4d38-896f-f083e87a5807",
    "resource": {
      "resourceType": "Questionnaire",
      "id": "9300b247-fd66-4d38-896f-f083e87a5807",
      "identifier": [ {
        "value": "59132"
      } ],
      "version": "2021-04-06T11:33:34.963Z",
      "status": "active",
      "experimental": false,
      "date": "2021-04-06T11:33:34+00:00",
      "publisher": "User ID: 'MCDONALDD' User name: 'Denzle McDonald' User skill set: 'T3'",
      "lastReviewDate": "2021-04-06",
      "subjectType": [ "Patient" ],
      "item": [ {
        "linkId": "59132",
        "prefix": "64600",
        "text": "STRING:VomitingAnd/OrNauseaWithAbdominalPainPW",
        "type": "choice",
        "required": true,
        "repeats": false,
        "option": [ {
          "valueString": "\"present\", Selected: true"
        } ]
      } ]
    }
  }, {
    "fullUrl": "urn:uuid:a5b02ecf-2dcd-4468-9492-3e5c473da0e2",
    "resource": {
      "resourceType": "QuestionnaireResponse",
      "id": "a5b02ecf-2dcd-4468-9492-3e5c473da0e2",
      "identifier": {
        "value": "59132"
      },
      "questionnaire": {
        "reference": "urn:uuid:97d74574-5b0e-4c4f-b549-cafbc6a304cd"
      },
      "status": "completed",
      "subject": {
        "reference": "urn:uuid:abe86801-c2d1-4fa4-add6-1cc090830a62"
      },
      "context": {
        "reference": "urn:uuid:ac04f47f-6b3a-4147-8a97-e06892b096af"
      },
      "authored": "2021-04-06T11:33:34+00:00",
      "item": [ {
        "linkId": "Tx224907",
        "text": "STRING:GITSymptomWithAbdominalPain",
        "answer": [ {
          "valueString": "\"present\""
        } ]
      } ]
    }
  }, {
    "fullUrl": "urn:uuid:97d74574-5b0e-4c4f-b549-cafbc6a304cd",
    "resource": {
      "resourceType": "Questionnaire",
      "id": "97d74574-5b0e-4c4f-b549-cafbc6a304cd",
      "identifier": [ {
        "value": "59132"
      } ],
      "version": "2021-04-06T11:33:34.963Z",
      "status": "active",
      "experimental": false,
      "date": "2021-04-06T11:33:34+00:00",
      "publisher": "User ID: 'MCDONALDD' User name: 'Denzle McDonald' User skill set: 'T3'",
      "lastReviewDate": "2021-04-06",
      "subjectType": [ "Patient" ],
      "item": [ {
        "linkId": "59132",
        "prefix": "64700",
        "text": "STRING:GITSymptomWithAbdominalPain",
        "type": "choice",
        "required": true,
        "repeats": false,
        "option": [ {
          "valueString": "\"present\", Selected: true"
        } ]
      } ]
    }
  }, {
    "fullUrl": "urn:uuid:cc4d6825-cf4d-4b85-94bb-05a7ba027212",
    "resource": {
      "resourceType": "QuestionnaireResponse",
      "id": "cc4d6825-cf4d-4b85-94bb-05a7ba027212",
      "identifier": {
        "value": "59132"
      },
      "questionnaire": {
        "reference": "urn:uuid:87f9a718-0158-4e9a-9b48-ca5107bf370d"
      },
      "status": "completed",
      "subject": {
        "reference": "urn:uuid:abe86801-c2d1-4fa4-add6-1cc090830a62"
      },
      "context": {
        "reference": "urn:uuid:ac04f47f-6b3a-4147-8a97-e06892b096af"
      },
      "authored": "2021-04-06T11:33:34+00:00"
    }
  }, {
    "fullUrl": "urn:uuid:87f9a718-0158-4e9a-9b48-ca5107bf370d",
    "resource": {
      "resourceType": "Questionnaire",
      "id": "87f9a718-0158-4e9a-9b48-ca5107bf370d",
      "identifier": [ {
        "value": "59132"
      } ],
      "version": "2021-04-06T11:33:34.963Z",
      "status": "active",
      "experimental": false,
      "date": "2021-04-06T11:33:34+00:00",
      "publisher": "User ID: 'MCDONALDD' User name: 'Denzle McDonald' User skill set: 'T3'",
      "lastReviewDate": "2021-04-06",
      "subjectType": [ "Patient" ]
    }
  }, {
    "fullUrl": "urn:uuid:56087b4f-72df-4fa7-ad32-6952a88f79bb",
    "resource": {
      "resourceType": "QuestionnaireResponse",
      "id": "56087b4f-72df-4fa7-ad32-6952a88f79bb",
      "identifier": {
        "value": "59132"
      },
      "questionnaire": {
        "reference": "urn:uuid:b91e7426-2796-428c-a555-0d1f18104174"
      },
      "status": "completed",
      "subject": {
        "reference": "urn:uuid:abe86801-c2d1-4fa4-add6-1cc090830a62"
      },
      "context": {
        "reference": "urn:uuid:ac04f47f-6b3a-4147-8a97-e06892b096af"
      },
      "authored": "2021-04-06T11:33:34+00:00",
      "item": [ {
        "linkId": "Tx221039",
        "text": "PATIENT_AGEGROUP",
        "answer": [ {
          "valueString": "==\"CHILD\""
        } ]
      } ]
    }
  }, {
    "fullUrl": "urn:uuid:b91e7426-2796-428c-a555-0d1f18104174",
    "resource": {
      "resourceType": "Questionnaire",
      "id": "b91e7426-2796-428c-a555-0d1f18104174",
      "identifier": [ {
        "value": "59132"
      } ],
      "version": "2021-04-06T11:33:34.963Z",
      "status": "active",
      "experimental": false,
      "date": "2021-04-06T11:33:34+00:00",
      "publisher": "User ID: 'MCDONALDD' User name: 'Denzle McDonald' User skill set: 'T3'",
      "lastReviewDate": "2021-04-06",
      "subjectType": [ "Patient" ],
      "item": [ {
        "linkId": "59132",
        "prefix": "0",
        "text": "PATIENT_AGEGROUP",
        "type": "choice",
        "required": true,
        "repeats": false,
        "option": [ {
          "valueString": "==\"ADULT\", Selected: false"
        }, {
          "valueString": "==\"CHILD\", Selected: true"
        }, {
          "valueString": "==\"TODDLER\", Selected: false"
        }, {
          "valueString": "==\"INFANT\", Selected: false"
        }, {
          "valueString": "==\"NEONATE\", Selected: false"
        }, {
          "valueString": "*, Selected: false"
        } ]
      } ]
    }
  }, {
    "fullUrl": "urn:uuid:edf285a8-a15f-4074-ae0d-52b1b21e158a",
    "resource": {
      "resourceType": "QuestionnaireResponse",
      "id": "edf285a8-a15f-4074-ae0d-52b1b21e158a",
      "identifier": {
        "value": "59132"
      },
      "questionnaire": {
        "reference": "urn:uuid:92540cff-9fd5-4d17-9cfe-88bd24569845"
      },
      "status": "completed",
      "subject": {
        "reference": "urn:uuid:abe86801-c2d1-4fa4-add6-1cc090830a62"
      },
      "context": {
        "reference": "urn:uuid:ac04f47f-6b3a-4147-8a97-e06892b096af"
      },
      "authored": "2021-04-06T11:33:34+00:00",
      "item": [ {
        "linkId": "Tx224919",
        "text": "PATIENT_AGE",
        "answer": [ {
          "valueString": "<11"
        } ]
      } ]
    }
  }, {
    "fullUrl": "urn:uuid:92540cff-9fd5-4d17-9cfe-88bd24569845",
    "resource": {
      "resourceType": "Questionnaire",
      "id": "92540cff-9fd5-4d17-9cfe-88bd24569845",
      "identifier": [ {
        "value": "59132"
      } ],
      "version": "2021-04-06T11:33:34.963Z",
      "status": "active",
      "experimental": false,
      "date": "2021-04-06T11:33:34+00:00",
      "publisher": "User ID: 'MCDONALDD' User name: 'Denzle McDonald' User skill set: 'T3'",
      "lastReviewDate": "2021-04-06",
      "subjectType": [ "Patient" ],
      "item": [ {
        "linkId": "59132",
        "prefix": "15300",
        "text": "PATIENT_AGE",
        "type": "choice",
        "required": true,
        "repeats": false,
        "option": [ {
          "valueString": "<11, Selected: true"
        }, {
          "valueString": "<13, Selected: false"
        }, {
          "valueString": ">=13, Selected: false"
        }, {
          "valueString": "*, Selected: false"
        } ]
      } ]
    }
  }, {
    "fullUrl": "urn:uuid:7e561a96-8244-43c4-abf9-5905021ae2b5",
    "resource": {
      "resourceType": "QuestionnaireResponse",
      "id": "7e561a96-8244-43c4-abf9-5905021ae2b5",
      "identifier": {
        "value": "59132"
      },
      "questionnaire": {
        "reference": "urn:uuid:a5114f25-1299-4449-905f-0a043a58c4ac"
      },
      "status": "completed",
      "subject": {
        "reference": "urn:uuid:abe86801-c2d1-4fa4-add6-1cc090830a62"
      },
      "context": {
        "reference": "urn:uuid:ac04f47f-6b3a-4147-8a97-e06892b096af"
      },
      "authored": "2021-04-06T11:33:34+00:00",
      "item": [ {
        "linkId": "Tx224498",
        "text": "STRING:Under11",
        "answer": [ {
          "valueString": "\"present\""
        } ]
      } ]
    }
  }, {
    "fullUrl": "urn:uuid:a5114f25-1299-4449-905f-0a043a58c4ac",
    "resource": {
      "resourceType": "Questionnaire",
      "id": "a5114f25-1299-4449-905f-0a043a58c4ac",
      "identifier": [ {
        "value": "59132"
      } ],
      "version": "2021-04-06T11:33:34.963Z",
      "status": "active",
      "experimental": false,
      "date": "2021-04-06T11:33:34+00:00",
      "publisher": "User ID: 'MCDONALDD' User name: 'Denzle McDonald' User skill set: 'T3'",
      "lastReviewDate": "2021-04-06",
      "subjectType": [ "Patient" ],
      "item": [ {
        "linkId": "59132",
        "prefix": "14800",
        "text": "STRING:Under11",
        "type": "choice",
        "required": true,
        "repeats": false,
        "option": [ {
          "valueString": "\"present\", Selected: true"
        } ]
      } ]
    }
  }, {
    "fullUrl": "urn:uuid:12fceeca-75ba-495d-a108-3e2f265d9e63",
    "resource": {
      "resourceType": "QuestionnaireResponse",
      "id": "12fceeca-75ba-495d-a108-3e2f265d9e63",
      "identifier": {
        "value": "59132"
      },
      "questionnaire": {
        "reference": "urn:uuid:fc6a9ffa-49c6-4047-9d17-4a067f45eb15"
      },
      "status": "completed",
      "subject": {
        "reference": "urn:uuid:abe86801-c2d1-4fa4-add6-1cc090830a62"
      },
      "context": {
        "reference": "urn:uuid:ac04f47f-6b3a-4147-8a97-e06892b096af"
      },
      "authored": "2021-04-06T11:33:34+00:00",
      "item": [ {
        "linkId": "Tx224906",
        "text": "AbdominalPainPW",
        "answer": [ {
          "valueString": "*"
        } ]
      } ]
    }
  }, {
    "fullUrl": "urn:uuid:fc6a9ffa-49c6-4047-9d17-4a067f45eb15",
    "resource": {
      "resourceType": "Questionnaire",
      "id": "fc6a9ffa-49c6-4047-9d17-4a067f45eb15",
      "identifier": [ {
        "value": "59132"
      } ],
      "version": "2021-04-06T11:33:34.963Z",
      "status": "active",
      "experimental": false,
      "date": "2021-04-06T11:33:34+00:00",
      "publisher": "User ID: 'MCDONALDD' User name: 'Denzle McDonald' User skill set: 'T3'",
      "lastReviewDate": "2021-04-06",
      "subjectType": [ "Patient" ],
      "item": [ {
        "linkId": "59132",
        "prefix": "15600",
        "text": "AbdominalPainPW",
        "type": "choice",
        "required": true,
        "repeats": false,
        "option": [ {
          "valueString": "==\"present\", Selected: false"
        }, {
          "valueString": "*, Selected: true"
        } ]
      } ]
    }
  }, {
    "fullUrl": "urn:uuid:59d20700-6ef6-419c-8014-d62faea4a0e6",
    "resource": {
      "resourceType": "QuestionnaireResponse",
      "id": "59d20700-6ef6-419c-8014-d62faea4a0e6",
      "identifier": {
        "value": "59132"
      },
      "questionnaire": {
        "reference": "urn:uuid:6cdf06cb-a76a-4466-9045-f97057ef1c7a"
      },
      "status": "completed",
      "subject": {
        "reference": "urn:uuid:abe86801-c2d1-4fa4-add6-1cc090830a62"
      },
      "context": {
        "reference": "urn:uuid:ac04f47f-6b3a-4147-8a97-e06892b096af"
      },
      "authored": "2021-04-06T11:33:34+00:00",
      "item": [ {
        "linkId": "Tx225151",
        "text": "RectalBleedingwithAbdominalPainPW",
        "answer": [ {
          "valueString": "*"
        } ]
      } ]
    }
  }, {
    "fullUrl": "urn:uuid:6cdf06cb-a76a-4466-9045-f97057ef1c7a",
    "resource": {
      "resourceType": "Questionnaire",
      "id": "6cdf06cb-a76a-4466-9045-f97057ef1c7a",
      "identifier": [ {
        "value": "59132"
      } ],
      "version": "2021-04-06T11:33:34.963Z",
      "status": "active",
      "experimental": false,
      "date": "2021-04-06T11:33:34+00:00",
      "publisher": "User ID: 'MCDONALDD' User name: 'Denzle McDonald' User skill set: 'T3'",
      "lastReviewDate": "2021-04-06",
      "subjectType": [ "Patient" ],
      "item": [ {
        "linkId": "59132",
        "prefix": "21300",
        "text": "RectalBleedingwithAbdominalPainPW",
        "type": "choice",
        "required": true,
        "repeats": false,
        "option": [ {
          "valueString": "==\"present\", Selected: false"
        }, {
          "valueString": "*, Selected: true"
        } ]
      } ]
    }
  }, {
    "fullUrl": "urn:uuid:f69acaaa-4ccd-4d8e-a7c1-c338897488cb",
    "resource": {
      "resourceType": "QuestionnaireResponse",
      "id": "f69acaaa-4ccd-4d8e-a7c1-c338897488cb",
      "identifier": {
        "value": "59132"
      },
      "questionnaire": {
        "reference": "urn:uuid:9335b876-b349-44c9-bead-ce96f1937433"
      },
      "status": "completed",
      "subject": {
        "reference": "urn:uuid:abe86801-c2d1-4fa4-add6-1cc090830a62"
      },
      "context": {
        "reference": "urn:uuid:ac04f47f-6b3a-4147-8a97-e06892b096af"
      },
      "authored": "2021-04-06T11:33:34+00:00",
      "item": [ {
        "linkId": "Tx224908",
        "text": "GITSymptomWithAbdominalPain",
        "answer": [ {
          "valueString": "==\"present\""
        } ]
      } ]
    }
  }, {
    "fullUrl": "urn:uuid:9335b876-b349-44c9-bead-ce96f1937433",
    "resource": {
      "resourceType": "Questionnaire",
      "id": "9335b876-b349-44c9-bead-ce96f1937433",
      "identifier": [ {
        "value": "59132"
      } ],
      "version": "2021-04-06T11:33:34.963Z",
      "status": "active",
      "experimental": false,
      "date": "2021-04-06T11:33:34+00:00",
      "publisher": "User ID: 'MCDONALDD' User name: 'Denzle McDonald' User skill set: 'T3'",
      "lastReviewDate": "2021-04-06",
      "subjectType": [ "Patient" ],
      "item": [ {
        "linkId": "59132",
        "prefix": "15700",
        "text": "GITSymptomWithAbdominalPain",
        "type": "choice",
        "required": true,
        "repeats": false,
        "option": [ {
          "valueString": "==\"present\", Selected: true"
        }, {
          "valueString": "*, Selected: false"
        } ]
      } ]
    }
  }, {
    "fullUrl": "urn:uuid:ad23f010-7f46-481e-abea-67c0b158a479",
    "resource": {
      "resourceType": "QuestionnaireResponse",
      "id": "ad23f010-7f46-481e-abea-67c0b158a479",
      "identifier": {
        "value": "59132"
      },
      "questionnaire": {
        "reference": "urn:uuid:86848f54-fd9f-4363-8e3b-81ac55efcd0f"
      },
      "status": "completed",
      "subject": {
        "reference": "urn:uuid:abe86801-c2d1-4fa4-add6-1cc090830a62"
      },
      "context": {
        "reference": "urn:uuid:ac04f47f-6b3a-4147-8a97-e06892b096af"
      },
      "authored": "2021-04-06T11:33:34+00:00"
    }
  }, {
    "fullUrl": "urn:uuid:86848f54-fd9f-4363-8e3b-81ac55efcd0f",
    "resource": {
      "resourceType": "Questionnaire",
      "id": "86848f54-fd9f-4363-8e3b-81ac55efcd0f",
      "identifier": [ {
        "value": "59132"
      } ],
      "version": "2021-04-06T11:33:34.963Z",
      "status": "active",
      "experimental": false,
      "date": "2021-04-06T11:33:34+00:00",
      "publisher": "User ID: 'MCDONALDD' User name: 'Denzle McDonald' User skill set: 'T3'",
      "lastReviewDate": "2021-04-06",
      "subjectType": [ "Patient" ]
    }
  }, {
    "fullUrl": "urn:uuid:eb22a545-b978-4311-ad25-9775e9e77ba0",
    "resource": {
      "resourceType": "QuestionnaireResponse",
      "id": "eb22a545-b978-4311-ad25-9775e9e77ba0",
      "identifier": {
        "value": "59132"
      },
      "questionnaire": {
        "reference": "urn:uuid:9eb15030-7ee9-4736-92cb-cd4ae7c2cb6d"
      },
      "status": "completed",
      "subject": {
        "reference": "urn:uuid:abe86801-c2d1-4fa4-add6-1cc090830a62"
      },
      "context": {
        "reference": "urn:uuid:ac04f47f-6b3a-4147-8a97-e06892b096af"
      },
      "authored": "2021-04-06T11:33:34+00:00",
      "item": [ {
        "linkId": "Tx221039",
        "text": "PATIENT_AGEGROUP",
        "answer": [ {
          "valueString": "==\"CHILD\""
        } ]
      } ]
    }
  }, {
    "fullUrl": "urn:uuid:9eb15030-7ee9-4736-92cb-cd4ae7c2cb6d",
    "resource": {
      "resourceType": "Questionnaire",
      "id": "9eb15030-7ee9-4736-92cb-cd4ae7c2cb6d",
      "identifier": [ {
        "value": "59132"
      } ],
      "version": "2021-04-06T11:33:34.963Z",
      "status": "active",
      "experimental": false,
      "date": "2021-04-06T11:33:34+00:00",
      "publisher": "User ID: 'MCDONALDD' User name: 'Denzle McDonald' User skill set: 'T3'",
      "lastReviewDate": "2021-04-06",
      "subjectType": [ "Patient" ],
      "item": [ {
        "linkId": "59132",
        "prefix": "0",
        "text": "PATIENT_AGEGROUP",
        "type": "choice",
        "required": true,
        "repeats": false,
        "option": [ {
          "valueString": "==\"ADULT\", Selected: false"
        }, {
          "valueString": "==\"CHILD\", Selected: true"
        }, {
          "valueString": "==\"TODDLER\", Selected: false"
        }, {
          "valueString": "==\"INFANT\", Selected: false"
        }, {
          "valueString": "==\"NEONATE\", Selected: false"
        }, {
          "valueString": "*, Selected: false"
        } ]
      } ]
    }
  }, {
    "fullUrl": "urn:uuid:e78cff92-7c91-4c98-938c-de3564a3b289",
    "resource": {
      "resourceType": "QuestionnaireResponse",
      "id": "e78cff92-7c91-4c98-938c-de3564a3b289",
      "identifier": {
        "value": "59132"
      },
      "questionnaire": {
        "reference": "urn:uuid:26b03911-5432-46d9-b0c8-205d7ba17fe5"
      },
      "status": "completed",
      "subject": {
        "reference": "urn:uuid:abe86801-c2d1-4fa4-add6-1cc090830a62"
      },
      "context": {
        "reference": "urn:uuid:ac04f47f-6b3a-4147-8a97-e06892b096af"
      },
      "authored": "2021-04-06T11:33:34+00:00",
      "item": [ {
        "linkId": "Tx220156",
        "text": "How bad is the pain?",
        "answer": [ {
          "valueString": "bad enough to interfere with normal activity"
        } ]
      } ]
    }
  }, {
    "fullUrl": "urn:uuid:26b03911-5432-46d9-b0c8-205d7ba17fe5",
    "resource": {
      "resourceType": "Questionnaire",
      "id": "26b03911-5432-46d9-b0c8-205d7ba17fe5",
      "identifier": [ {
        "value": "59132"
      } ],
      "version": "2021-04-06T11:33:34.963Z",
      "status": "active",
      "experimental": false,
      "date": "2021-04-06T11:33:34+00:00",
      "publisher": "User ID: 'MCDONALDD' User name: 'Denzle McDonald' User skill set: 'T3'",
      "lastReviewDate": "2021-04-06",
      "subjectType": [ "Patient" ],
      "item": [ {
        "linkId": "59132",
        "prefix": "6500",
        "text": "How bad is the pain?",
        "type": "choice",
        "required": true,
        "repeats": false,
        "option": [ {
          "valueString": "so bad that doing anything is impossible, Selected: false"
        }, {
          "valueString": "bad enough to interfere with normal activity, Selected: true"
        }, {
          "valueString": "neither of the above, Selected: false"
        } ]
      } ]
    }
  }, {
    "fullUrl": "urn:uuid:8444d1be-b0dd-4c10-a784-820c6b596e36",
    "resource": {
      "resourceType": "QuestionnaireResponse",
      "id": "8444d1be-b0dd-4c10-a784-820c6b596e36",
      "identifier": {
        "value": "59132"
      },
      "questionnaire": {
        "reference": "urn:uuid:ac5e0074-751f-4509-94e0-f5fa8e950495"
      },
      "status": "completed",
      "subject": {
        "reference": "urn:uuid:abe86801-c2d1-4fa4-add6-1cc090830a62"
      },
      "context": {
        "reference": "urn:uuid:ac04f47f-6b3a-4147-8a97-e06892b096af"
      },
      "authored": "2021-04-06T11:33:34+00:00",
      "item": [ {
        "linkId": "Tx224664",
        "text": "STRING:ModeratePain",
        "answer": [ {
          "valueString": "\"present\""
        } ]
      } ]
    }
  }, {
    "fullUrl": "urn:uuid:ac5e0074-751f-4509-94e0-f5fa8e950495",
    "resource": {
      "resourceType": "Questionnaire",
      "id": "ac5e0074-751f-4509-94e0-f5fa8e950495",
      "identifier": [ {
        "value": "59132"
      } ],
      "version": "2021-04-06T11:33:34.963Z",
      "status": "active",
      "experimental": false,
      "date": "2021-04-06T11:33:34+00:00",
      "publisher": "User ID: 'MCDONALDD' User name: 'Denzle McDonald' User skill set: 'T3'",
      "lastReviewDate": "2021-04-06",
      "subjectType": [ "Patient" ],
      "item": [ {
        "linkId": "59132",
        "prefix": "6600",
        "text": "STRING:ModeratePain",
        "type": "choice",
        "required": true,
        "repeats": false,
        "option": [ {
          "valueString": "\"present\", Selected: true"
        } ]
      } ]
    }
  }, {
    "fullUrl": "urn:uuid:686890b8-cf83-4cee-862e-c70d820df354",
    "resource": {
      "resourceType": "QuestionnaireResponse",
      "id": "686890b8-cf83-4cee-862e-c70d820df354",
      "identifier": {
        "value": "59132"
      },
      "questionnaire": {
        "reference": "urn:uuid:1eb397f1-6a93-432d-b902-daa6ef8e5ac1"
      },
      "status": "completed",
      "subject": {
        "reference": "urn:uuid:abe86801-c2d1-4fa4-add6-1cc090830a62"
      },
      "context": {
        "reference": "urn:uuid:ac04f47f-6b3a-4147-8a97-e06892b096af"
      },
      "authored": "2021-04-06T11:33:34+00:00",
      "item": [ {
        "linkId": "Tx170003",
        "text": "PATIENT_PARTY",
        "answer": [ {
          "valueString": "==1"
        } ]
      } ]
    }
  }, {
    "fullUrl": "urn:uuid:1eb397f1-6a93-432d-b902-daa6ef8e5ac1",
    "resource": {
      "resourceType": "Questionnaire",
      "id": "1eb397f1-6a93-432d-b902-daa6ef8e5ac1",
      "identifier": [ {
        "value": "59132"
      } ],
      "version": "2021-04-06T11:33:34.963Z",
      "status": "active",
      "experimental": false,
      "date": "2021-04-06T11:33:34+00:00",
      "publisher": "User ID: 'MCDONALDD' User name: 'Denzle McDonald' User skill set: 'T3'",
      "lastReviewDate": "2021-04-06",
      "subjectType": [ "Patient" ],
      "item": [ {
        "linkId": "59132",
        "prefix": "6800",
        "text": "PATIENT_PARTY",
        "type": "choice",
        "required": true,
        "repeats": false,
        "option": [ {
          "valueString": "==1, Selected: true"
        }, {
          "valueString": "==3, Selected: false"
        }, {
          "valueString": "*, Selected: false"
        } ]
      } ]
    }
  }, {
    "fullUrl": "urn:uuid:16bd78a4-9bfb-4b44-9916-14924995b57d",
    "resource": {
      "resourceType": "QuestionnaireResponse",
      "id": "16bd78a4-9bfb-4b44-9916-14924995b57d",
      "identifier": {
        "value": "59132"
      },
      "questionnaire": {
        "reference": "urn:uuid:f86244e8-beb6-4d0a-91a9-8de2a9276329"
      },
      "status": "completed",
      "subject": {
        "reference": "urn:uuid:abe86801-c2d1-4fa4-add6-1cc090830a62"
      },
      "context": {
        "reference": "urn:uuid:ac04f47f-6b3a-4147-8a97-e06892b096af"
      },
      "authored": "2021-04-06T11:33:34+00:00",
      "item": [ {
        "linkId": "Tx224190",
        "text": "Are you so ill that you have stopped doing ALL of your usual activities?",
        "answer": [ {
          "valueString": "no - well enough to do MOST or all activities"
        } ]
      } ]
    }
  }, {
    "fullUrl": "urn:uuid:f86244e8-beb6-4d0a-91a9-8de2a9276329",
    "resource": {
      "resourceType": "Questionnaire",
      "id": "f86244e8-beb6-4d0a-91a9-8de2a9276329",
      "identifier": [ {
        "value": "59132"
      } ],
      "version": "2021-04-06T11:33:34.963Z",
      "status": "active",
      "experimental": false,
      "date": "2021-04-06T11:33:34+00:00",
      "publisher": "User ID: 'MCDONALDD' User name: 'Denzle McDonald' User skill set: 'T3'",
      "lastReviewDate": "2021-04-06",
      "subjectType": [ "Patient" ],
      "item": [ {
        "linkId": "59132",
        "prefix": "6900",
        "text": "Are you so ill that you have stopped doing ALL of your usual activities?",
        "type": "choice",
        "required": true,
        "repeats": false,
        "option": [ {
          "valueString": "yes - so ill they have stopped doing ALL normal activities, Selected: false"
        }, {
          "valueString": "no - unwell but able to do SOME normal activities, Selected: false"
        }, {
          "valueString": "no - well enough to do MOST or all activities, Selected: true"
        } ]
      } ]
    }
  }, {
    "fullUrl": "urn:uuid:1fdd1537-95ad-4a4c-a5ae-526931124223",
    "resource": {
      "resourceType": "QuestionnaireResponse",
      "id": "1fdd1537-95ad-4a4c-a5ae-526931124223",
      "identifier": {
        "value": "59132"
      },
      "questionnaire": {
        "reference": "urn:uuid:004365a6-3be8-4944-b61e-d9066d878f69"
      },
      "status": "completed",
      "subject": {
        "reference": "urn:uuid:abe86801-c2d1-4fa4-add6-1cc090830a62"
      },
      "context": {
        "reference": "urn:uuid:ac04f47f-6b3a-4147-8a97-e06892b096af"
      },
      "authored": "2021-04-06T11:33:34+00:00",
      "item": [ {
        "linkId": "Tx224916",
        "text": "FlankPainPW",
        "answer": [ {
          "valueString": "*"
        } ]
      } ]
    }
  }, {
    "fullUrl": "urn:uuid:004365a6-3be8-4944-b61e-d9066d878f69",
    "resource": {
      "resourceType": "Questionnaire",
      "id": "004365a6-3be8-4944-b61e-d9066d878f69",
      "identifier": [ {
        "value": "59132"
      } ],
      "version": "2021-04-06T11:33:34.963Z",
      "status": "active",
      "experimental": false,
      "date": "2021-04-06T11:33:34+00:00",
      "publisher": "User ID: 'MCDONALDD' User name: 'Denzle McDonald' User skill set: 'T3'",
      "lastReviewDate": "2021-04-06",
      "subjectType": [ "Patient" ],
      "item": [ {
        "linkId": "59132",
        "prefix": "26500",
        "text": "FlankPainPW",
        "type": "choice",
        "required": true,
        "repeats": false,
        "option": [ {
          "valueString": "==\"present\", Selected: false"
        }, {
          "valueString": "*, Selected: true"
        } ]
      } ]
    }
  }, {
    "fullUrl": "urn:uuid:57d003a9-5bef-4a27-8ee9-1b0de4a81795",
    "resource": {
      "resourceType": "QuestionnaireResponse",
      "id": "57d003a9-5bef-4a27-8ee9-1b0de4a81795",
      "identifier": {
        "value": "59132"
      },
      "questionnaire": {
        "reference": "urn:uuid:bc3de631-cebd-4408-bd0e-9f7784331662"
      },
      "status": "completed",
      "subject": {
        "reference": "urn:uuid:abe86801-c2d1-4fa4-add6-1cc090830a62"
      },
      "context": {
        "reference": "urn:uuid:ac04f47f-6b3a-4147-8a97-e06892b096af"
      },
      "authored": "2021-04-06T11:33:34+00:00",
      "item": [ {
        "linkId": "Tx222766",
        "text": "PregnancyOver20Weeks",
        "answer": [ {
          "valueString": "*"
        } ]
      } ]
    }
  }, {
    "fullUrl": "urn:uuid:bc3de631-cebd-4408-bd0e-9f7784331662",
    "resource": {
      "resourceType": "Questionnaire",
      "id": "bc3de631-cebd-4408-bd0e-9f7784331662",
      "identifier": [ {
        "value": "59132"
      } ],
      "version": "2021-04-06T11:33:34.963Z",
      "status": "active",
      "experimental": false,
      "date": "2021-04-06T11:33:34+00:00",
      "publisher": "User ID: 'MCDONALDD' User name: 'Denzle McDonald' User skill set: 'T3'",
      "lastReviewDate": "2021-04-06",
      "subjectType": [ "Patient" ],
      "item": [ {
        "linkId": "59132",
        "prefix": "16100",
        "text": "PregnancyOver20Weeks",
        "type": "choice",
        "required": true,
        "repeats": false,
        "option": [ {
          "valueString": "==\"present\", Selected: false"
        }, {
          "valueString": "*, Selected: true"
        } ]
      } ]
    }
  }, {
    "fullUrl": "urn:uuid:794b0d81-00b4-403a-b38a-cb7099cfd81f",
    "resource": {
      "resourceType": "QuestionnaireResponse",
      "id": "794b0d81-00b4-403a-b38a-cb7099cfd81f",
      "identifier": {
        "value": "59132"
      },
      "questionnaire": {
        "reference": "urn:uuid:4a2d46e7-e9d5-4c6d-92e4-cdc9b5155683"
      },
      "status": "completed",
      "subject": {
        "reference": "urn:uuid:abe86801-c2d1-4fa4-add6-1cc090830a62"
      },
      "context": {
        "reference": "urn:uuid:ac04f47f-6b3a-4147-8a97-e06892b096af"
      },
      "authored": "2021-04-06T11:33:34+00:00",
      "item": [ {
        "linkId": "Tx225151",
        "text": "RectalBleedingwithAbdominalPainPW",
        "answer": [ {
          "valueString": "*"
        } ]
      } ]
    }
  }, {
    "fullUrl": "urn:uuid:4a2d46e7-e9d5-4c6d-92e4-cdc9b5155683",
    "resource": {
      "resourceType": "Questionnaire",
      "id": "4a2d46e7-e9d5-4c6d-92e4-cdc9b5155683",
      "identifier": [ {
        "value": "59132"
      } ],
      "version": "2021-04-06T11:33:34.963Z",
      "status": "active",
      "experimental": false,
      "date": "2021-04-06T11:33:34+00:00",
      "publisher": "User ID: 'MCDONALDD' User name: 'Denzle McDonald' User skill set: 'T3'",
      "lastReviewDate": "2021-04-06",
      "subjectType": [ "Patient" ],
      "item": [ {
        "linkId": "59132",
        "prefix": "26200",
        "text": "RectalBleedingwithAbdominalPainPW",
        "type": "choice",
        "required": true,
        "repeats": false,
        "option": [ {
          "valueString": "==\"present\", Selected: false"
        }, {
          "valueString": "*, Selected: true"
        } ]
      } ]
    }
  }, {
    "fullUrl": "urn:uuid:ab0b4bfe-099c-43c7-9f02-7f12511d7b74",
    "resource": {
      "resourceType": "QuestionnaireResponse",
      "id": "ab0b4bfe-099c-43c7-9f02-7f12511d7b74",
      "identifier": {
        "value": "59132"
      },
      "questionnaire": {
        "reference": "urn:uuid:f6c712e4-6522-42f0-8c5e-43161462702d"
      },
      "status": "completed",
      "subject": {
        "reference": "urn:uuid:abe86801-c2d1-4fa4-add6-1cc090830a62"
      },
      "context": {
        "reference": "urn:uuid:ac04f47f-6b3a-4147-8a97-e06892b096af"
      },
      "authored": "2021-04-06T11:33:34+00:00",
      "item": [ {
        "linkId": "Tx221119",
        "text": "SeverelyIll",
        "answer": [ {
          "valueString": "*"
        } ]
      } ]
    }
  }, {
    "fullUrl": "urn:uuid:f6c712e4-6522-42f0-8c5e-43161462702d",
    "resource": {
      "resourceType": "Questionnaire",
      "id": "f6c712e4-6522-42f0-8c5e-43161462702d",
      "identifier": [ {
        "value": "59132"
      } ],
      "version": "2021-04-06T11:33:34.963Z",
      "status": "active",
      "experimental": false,
      "date": "2021-04-06T11:33:34+00:00",
      "publisher": "User ID: 'MCDONALDD' User name: 'Denzle McDonald' User skill set: 'T3'",
      "lastReviewDate": "2021-04-06",
      "subjectType": [ "Patient" ],
      "item": [ {
        "linkId": "59132",
        "prefix": "7500",
        "text": "SeverelyIll",
        "type": "choice",
        "required": true,
        "repeats": false,
        "option": [ {
          "valueString": "==\"present\", Selected: false"
        }, {
          "valueString": "*, Selected: true"
        } ]
      } ]
    }
  }, {
    "fullUrl": "urn:uuid:f13ea592-d0ef-4d73-b94a-b7559813b3ba",
    "resource": {
      "resourceType": "QuestionnaireResponse",
      "id": "f13ea592-d0ef-4d73-b94a-b7559813b3ba",
      "identifier": {
        "value": "59132"
      },
      "questionnaire": {
        "reference": "urn:uuid:93377ea4-06cd-47a0-beee-2e48a1dfa695"
      },
      "status": "completed",
      "subject": {
        "reference": "urn:uuid:abe86801-c2d1-4fa4-add6-1cc090830a62"
      },
      "context": {
        "reference": "urn:uuid:ac04f47f-6b3a-4147-8a97-e06892b096af"
      },
      "authored": "2021-04-06T11:33:34+00:00",
      "item": [ {
        "linkId": "Tx224934",
        "text": "GroinPainOrSwellingPWAbdominalPainPW",
        "answer": [ {
          "valueString": "*"
        } ]
      } ]
    }
  }, {
    "fullUrl": "urn:uuid:93377ea4-06cd-47a0-beee-2e48a1dfa695",
    "resource": {
      "resourceType": "Questionnaire",
      "id": "93377ea4-06cd-47a0-beee-2e48a1dfa695",
      "identifier": [ {
        "value": "59132"
      } ],
      "version": "2021-04-06T11:33:34.963Z",
      "status": "active",
      "experimental": false,
      "date": "2021-04-06T11:33:34+00:00",
      "publisher": "User ID: 'MCDONALDD' User name: 'Denzle McDonald' User skill set: 'T3'",
      "lastReviewDate": "2021-04-06",
      "subjectType": [ "Patient" ],
      "item": [ {
        "linkId": "59132",
        "prefix": "23300",
        "text": "GroinPainOrSwellingPWAbdominalPainPW",
        "type": "choice",
        "required": true,
        "repeats": false,
        "option": [ {
          "valueString": "==\"present\", Selected: false"
        }, {
          "valueString": "*, Selected: true"
        } ]
      } ]
    }
  }, {
    "fullUrl": "urn:uuid:8b7554e4-801e-41fb-afd8-ac2889d0cf7a",
    "resource": {
      "resourceType": "QuestionnaireResponse",
      "id": "8b7554e4-801e-41fb-afd8-ac2889d0cf7a",
      "identifier": {
        "value": "59132"
      },
      "questionnaire": {
        "reference": "urn:uuid:7a2a38b5-d27c-4b11-b760-becc501271b8"
      },
      "status": "completed",
      "subject": {
        "reference": "urn:uuid:abe86801-c2d1-4fa4-add6-1cc090830a62"
      },
      "context": {
        "reference": "urn:uuid:ac04f47f-6b3a-4147-8a97-e06892b096af"
      },
      "authored": "2021-04-06T11:33:34+00:00",
      "item": [ {
        "linkId": "Tx224906",
        "text": "AbdominalPainPW",
        "answer": [ {
          "valueString": "*"
        } ]
      } ]
    }
  }, {
    "fullUrl": "urn:uuid:7a2a38b5-d27c-4b11-b760-becc501271b8",
    "resource": {
      "resourceType": "Questionnaire",
      "id": "7a2a38b5-d27c-4b11-b760-becc501271b8",
      "identifier": [ {
        "value": "59132"
      } ],
      "version": "2021-04-06T11:33:34.963Z",
      "status": "active",
      "experimental": false,
      "date": "2021-04-06T11:33:34+00:00",
      "publisher": "User ID: 'MCDONALDD' User name: 'Denzle McDonald' User skill set: 'T3'",
      "lastReviewDate": "2021-04-06",
      "subjectType": [ "Patient" ],
      "item": [ {
        "linkId": "59132",
        "prefix": "23400",
        "text": "AbdominalPainPW",
        "type": "choice",
        "required": true,
        "repeats": false,
        "option": [ {
          "valueString": "==\"present\", Selected: false"
        }, {
          "valueString": "*, Selected: true"
        } ]
      } ]
    }
  }, {
    "fullUrl": "urn:uuid:2e050760-9a7c-497e-945e-b4a6e39d4cbc",
    "resource": {
      "resourceType": "QuestionnaireResponse",
      "id": "2e050760-9a7c-497e-945e-b4a6e39d4cbc",
      "identifier": {
        "value": "59132"
      },
      "questionnaire": {
        "reference": "urn:uuid:44ad7296-19b9-4508-871e-b5860f133923"
      },
      "status": "completed",
      "subject": {
        "reference": "urn:uuid:abe86801-c2d1-4fa4-add6-1cc090830a62"
      },
      "context": {
        "reference": "urn:uuid:ac04f47f-6b3a-4147-8a97-e06892b096af"
      },
      "authored": "2021-04-06T11:33:34+00:00",
      "item": [ {
        "linkId": "Tx224928",
        "text": "VomitingAnd/OrNauseaWithAbdominalPainPW",
        "answer": [ {
          "valueString": "==\"present\""
        } ]
      } ]
    }
  }, {
    "fullUrl": "urn:uuid:44ad7296-19b9-4508-871e-b5860f133923",
    "resource": {
      "resourceType": "Questionnaire",
      "id": "44ad7296-19b9-4508-871e-b5860f133923",
      "identifier": [ {
        "value": "59132"
      } ],
      "version": "2021-04-06T11:33:34.963Z",
      "status": "active",
      "experimental": false,
      "date": "2021-04-06T11:33:34+00:00",
      "publisher": "User ID: 'MCDONALDD' User name: 'Denzle McDonald' User skill set: 'T3'",
      "lastReviewDate": "2021-04-06",
      "subjectType": [ "Patient" ],
      "item": [ {
        "linkId": "59132",
        "prefix": "23500",
        "text": "VomitingAnd/OrNauseaWithAbdominalPainPW",
        "type": "choice",
        "required": true,
        "repeats": false,
        "option": [ {
          "valueString": "==\"present\", Selected: true"
        }, {
          "valueString": "*, Selected: false"
        } ]
      } ]
    }
  }, {
    "fullUrl": "urn:uuid:f5dd76c7-f66f-46f6-8ae6-8fcfbea0a445",
    "resource": {
      "resourceType": "QuestionnaireResponse",
      "id": "f5dd76c7-f66f-46f6-8ae6-8fcfbea0a445",
      "identifier": {
        "value": "59132"
      },
      "questionnaire": {
        "reference": "urn:uuid:ffbcf569-662b-49e1-b6f1-2dfe007e3a33"
      },
      "status": "completed",
      "subject": {
        "reference": "urn:uuid:abe86801-c2d1-4fa4-add6-1cc090830a62"
      },
      "context": {
        "reference": "urn:uuid:ac04f47f-6b3a-4147-8a97-e06892b096af"
      },
      "authored": "2021-04-06T11:33:34+00:00",
      "item": [ {
        "linkId": "Tx221017",
        "text": "PATIENT_GENDER",
        "answer": [ {
          "valueString": "==\"F\""
        } ]
      } ]
    }
  }, {
    "fullUrl": "urn:uuid:ffbcf569-662b-49e1-b6f1-2dfe007e3a33",
    "resource": {
      "resourceType": "Questionnaire",
      "id": "ffbcf569-662b-49e1-b6f1-2dfe007e3a33",
      "identifier": [ {
        "value": "59132"
      } ],
      "version": "2021-04-06T11:33:34.963Z",
      "status": "active",
      "experimental": false,
      "date": "2021-04-06T11:33:34+00:00",
      "publisher": "User ID: 'MCDONALDD' User name: 'Denzle McDonald' User skill set: 'T3'",
      "lastReviewDate": "2021-04-06",
      "subjectType": [ "Patient" ],
      "item": [ {
        "linkId": "59132",
        "prefix": "9000",
        "text": "PATIENT_GENDER",
        "type": "choice",
        "required": true,
        "repeats": false,
        "option": [ {
          "valueString": "==\"M\", Selected: false"
        }, {
          "valueString": "==\"F\", Selected: true"
        }, {
          "valueString": "==\"U\", Selected: false"
        }, {
          "valueString": "*, Selected: false"
        } ]
      } ]
    }
  }, {
    "fullUrl": "urn:uuid:b5ab5d94-8c29-411c-a006-45d8e6a78ad8",
    "resource": {
      "resourceType": "QuestionnaireResponse",
      "id": "b5ab5d94-8c29-411c-a006-45d8e6a78ad8",
      "identifier": {
        "value": "59132"
      },
      "questionnaire": {
        "reference": "urn:uuid:fcc4ddda-bfb5-4e76-8952-22e6796446df"
      },
      "status": "completed",
      "subject": {
        "reference": "urn:uuid:abe86801-c2d1-4fa4-add6-1cc090830a62"
      },
      "context": {
        "reference": "urn:uuid:ac04f47f-6b3a-4147-8a97-e06892b096af"
      },
      "authored": "2021-04-06T11:33:34+00:00"
    }
  }, {
    "fullUrl": "urn:uuid:fcc4ddda-bfb5-4e76-8952-22e6796446df",
    "resource": {
      "resourceType": "Questionnaire",
      "id": "fcc4ddda-bfb5-4e76-8952-22e6796446df",
      "identifier": [ {
        "value": "59132"
      } ],
      "version": "2021-04-06T11:33:34.963Z",
      "status": "active",
      "experimental": false,
      "date": "2021-04-06T11:33:34+00:00",
      "publisher": "User ID: 'MCDONALDD' User name: 'Denzle McDonald' User skill set: 'T3'",
      "lastReviewDate": "2021-04-06",
      "subjectType": [ "Patient" ]
    }
  }, {
    "fullUrl": "urn:uuid:a9e49bcd-c54c-4c79-b5e2-19f1e29c69ae",
    "resource": {
      "resourceType": "QuestionnaireResponse",
      "id": "a9e49bcd-c54c-4c79-b5e2-19f1e29c69ae",
      "identifier": {
        "value": "59132"
      },
      "questionnaire": {
        "reference": "urn:uuid:e5ef9213-24a6-4804-8b6c-3c542f42a435"
      },
      "status": "completed",
      "subject": {
        "reference": "urn:uuid:abe86801-c2d1-4fa4-add6-1cc090830a62"
      },
      "context": {
        "reference": "urn:uuid:ac04f47f-6b3a-4147-8a97-e06892b096af"
      },
      "authored": "2021-04-06T11:33:34+00:00",
      "item": [ {
        "linkId": "Tx221114",
        "text": "Pregnancy",
        "answer": [ {
          "valueString": "*"
        } ]
      } ]
    }
  }, {
    "fullUrl": "urn:uuid:e5ef9213-24a6-4804-8b6c-3c542f42a435",
    "resource": {
      "resourceType": "Questionnaire",
      "id": "e5ef9213-24a6-4804-8b6c-3c542f42a435",
      "identifier": [ {
        "value": "59132"
      } ],
      "version": "2021-04-06T11:33:34.963Z",
      "status": "active",
      "experimental": false,
      "date": "2021-04-06T11:33:34+00:00",
      "publisher": "User ID: 'MCDONALDD' User name: 'Denzle McDonald' User skill set: 'T3'",
      "lastReviewDate": "2021-04-06",
      "subjectType": [ "Patient" ],
      "item": [ {
        "linkId": "59132",
        "prefix": "64500",
        "text": "Pregnancy",
        "type": "choice",
        "required": true,
        "repeats": false,
        "option": [ {
          "valueString": "==\"present\", Selected: false"
        }, {
          "valueString": "*, Selected: true"
        } ]
      } ]
    }
  }, {
    "fullUrl": "urn:uuid:dfc03f6f-8027-4313-8b06-426afefdc543",
    "resource": {
      "resourceType": "QuestionnaireResponse",
      "id": "dfc03f6f-8027-4313-8b06-426afefdc543",
      "identifier": {
        "value": "59132"
      },
      "questionnaire": {
        "reference": "urn:uuid:6cadaf7c-b5fe-42df-980f-03c599d4b607"
      },
      "status": "completed",
      "subject": {
        "reference": "urn:uuid:abe86801-c2d1-4fa4-add6-1cc090830a62"
      },
      "context": {
        "reference": "urn:uuid:ac04f47f-6b3a-4147-8a97-e06892b096af"
      },
      "authored": "2021-04-06T11:33:34+00:00",
      "item": [ {
        "linkId": "Tx221338",
        "text": ">=11yearsConfirmed",
        "answer": [ {
          "valueString": "*"
        } ]
      } ]
    }
  }, {
    "fullUrl": "urn:uuid:6cadaf7c-b5fe-42df-980f-03c599d4b607",
    "resource": {
      "resourceType": "Questionnaire",
      "id": "6cadaf7c-b5fe-42df-980f-03c599d4b607",
      "identifier": [ {
        "value": "59132"
      } ],
      "version": "2021-04-06T11:33:34.963Z",
      "status": "active",
      "experimental": false,
      "date": "2021-04-06T11:33:34+00:00",
      "publisher": "User ID: 'MCDONALDD' User name: 'Denzle McDonald' User skill set: 'T3'",
      "lastReviewDate": "2021-04-06",
      "subjectType": [ "Patient" ],
      "item": [ {
        "linkId": "59132",
        "prefix": "65600",
        "text": ">=11yearsConfirmed",
        "type": "choice",
        "required": true,
        "repeats": false,
        "option": [ {
          "valueString": "==\"present\", Selected: false"
        }, {
          "valueString": "*, Selected: true"
        } ]
      } ]
    }
  }, {
    "fullUrl": "urn:uuid:36ae8e62-57cb-450d-957d-e8ed667750eb",
    "resource": {
      "resourceType": "QuestionnaireResponse",
      "id": "36ae8e62-57cb-450d-957d-e8ed667750eb",
      "identifier": {
        "value": "59132"
      },
      "questionnaire": {
        "reference": "urn:uuid:93106261-d0ea-4805-9300-89c9c3db0c72"
      },
      "status": "completed",
      "subject": {
        "reference": "urn:uuid:abe86801-c2d1-4fa4-add6-1cc090830a62"
      },
      "context": {
        "reference": "urn:uuid:ac04f47f-6b3a-4147-8a97-e06892b096af"
      },
      "authored": "2021-04-06T11:33:34+00:00",
      "item": [ {
        "linkId": "Tx221119",
        "text": "SeverelyIll",
        "answer": [ {
          "valueString": "*"
        } ]
      } ]
    }
  }, {
    "fullUrl": "urn:uuid:93106261-d0ea-4805-9300-89c9c3db0c72",
    "resource": {
      "resourceType": "Questionnaire",
      "id": "93106261-d0ea-4805-9300-89c9c3db0c72",
      "identifier": [ {
        "value": "59132"
      } ],
      "version": "2021-04-06T11:33:34.963Z",
      "status": "active",
      "experimental": false,
      "date": "2021-04-06T11:33:34+00:00",
      "publisher": "User ID: 'MCDONALDD' User name: 'Denzle McDonald' User skill set: 'T3'",
      "lastReviewDate": "2021-04-06",
      "subjectType": [ "Patient" ],
      "item": [ {
        "linkId": "59132",
        "prefix": "46200",
        "text": "SeverelyIll",
        "type": "choice",
        "required": true,
        "repeats": false,
        "option": [ {
          "valueString": "==\"present\", Selected: false"
        }, {
          "valueString": "*, Selected: true"
        } ]
      } ]
    }
  }, {
    "fullUrl": "urn:uuid:1beba0c0-9321-40e6-98bc-f57fd1e01103",
    "resource": {
      "resourceType": "QuestionnaireResponse",
      "id": "1beba0c0-9321-40e6-98bc-f57fd1e01103",
      "identifier": {
        "value": "59132"
      },
      "questionnaire": {
        "reference": "urn:uuid:43826512-2cf7-4dd0-8f7a-2c1335b828a5"
      },
      "status": "completed",
      "subject": {
        "reference": "urn:uuid:abe86801-c2d1-4fa4-add6-1cc090830a62"
      },
      "context": {
        "reference": "urn:uuid:ac04f47f-6b3a-4147-8a97-e06892b096af"
      },
      "authored": "2021-04-06T11:33:34+00:00",
      "item": [ {
        "linkId": "Tx220947",
        "text": "SeverePain",
        "answer": [ {
          "valueString": "*"
        } ]
      } ]
    }
  }, {
    "fullUrl": "urn:uuid:43826512-2cf7-4dd0-8f7a-2c1335b828a5",
    "resource": {
      "resourceType": "Questionnaire",
      "id": "43826512-2cf7-4dd0-8f7a-2c1335b828a5",
      "identifier": [ {
        "value": "59132"
      } ],
      "version": "2021-04-06T11:33:34.963Z",
      "status": "active",
      "experimental": false,
      "date": "2021-04-06T11:33:34+00:00",
      "publisher": "User ID: 'MCDONALDD' User name: 'Denzle McDonald' User skill set: 'T3'",
      "lastReviewDate": "2021-04-06",
      "subjectType": [ "Patient" ],
      "item": [ {
        "linkId": "59132",
        "prefix": "64600",
        "text": "SeverePain",
        "type": "choice",
        "required": true,
        "repeats": false,
        "option": [ {
          "valueString": "==\"present\", Selected: false"
        }, {
          "valueString": "*, Selected: true"
        } ]
      } ]
    }
  }, {
    "fullUrl": "urn:uuid:cf1da92d-9b9b-4833-aa19-ba92fb2e92f0",
    "resource": {
      "resourceType": "QuestionnaireResponse",
      "id": "cf1da92d-9b9b-4833-aa19-ba92fb2e92f0",
      "identifier": {
        "value": "59132"
      },
      "questionnaire": {
        "reference": "urn:uuid:d5e84104-a464-429b-aeb5-d77d93c238fb"
      },
      "status": "completed",
      "subject": {
        "reference": "urn:uuid:abe86801-c2d1-4fa4-add6-1cc090830a62"
      },
      "context": {
        "reference": "urn:uuid:ac04f47f-6b3a-4147-8a97-e06892b096af"
      },
      "authored": "2021-04-06T11:33:34+00:00",
      "item": [ {
        "linkId": "Tx220114",
        "text": "Have you taken anything that might be harmful or poisonous?",
        "answer": [ {
          "valueString": "no"
        } ]
      } ]
    }
  }, {
    "fullUrl": "urn:uuid:d5e84104-a464-429b-aeb5-d77d93c238fb",
    "resource": {
      "resourceType": "Questionnaire",
      "id": "d5e84104-a464-429b-aeb5-d77d93c238fb",
      "identifier": [ {
        "value": "59132"
      } ],
      "version": "2021-04-06T11:33:34.963Z",
      "status": "active",
      "experimental": false,
      "date": "2021-04-06T11:33:34+00:00",
      "publisher": "User ID: 'MCDONALDD' User name: 'Denzle McDonald' User skill set: 'T3'",
      "lastReviewDate": "2021-04-06",
      "subjectType": [ "Patient" ],
      "item": [ {
        "linkId": "59132",
        "prefix": "30300",
        "text": "Have you taken anything that might be harmful or poisonous?",
        "type": "choice",
        "required": true,
        "repeats": false,
        "option": [ {
          "valueString": "yes (specify substance if known), Selected: false"
        }, {
          "valueString": "not sure, Selected: false"
        }, {
          "valueString": "no, Selected: true"
        } ]
      } ]
    }
  }, {
    "fullUrl": "urn:uuid:6eec163a-8677-41ec-934d-112efd4eb673",
    "resource": {
      "resourceType": "QuestionnaireResponse",
      "id": "6eec163a-8677-41ec-934d-112efd4eb673",
      "identifier": {
        "value": "59132"
      },
      "questionnaire": {
        "reference": "urn:uuid:59dd3d95-8f88-4084-958c-d5be59991458"
      },
      "status": "completed",
      "subject": {
        "reference": "urn:uuid:abe86801-c2d1-4fa4-add6-1cc090830a62"
      },
      "context": {
        "reference": "urn:uuid:ac04f47f-6b3a-4147-8a97-e06892b096af"
      },
      "authored": "2021-04-06T11:33:34+00:00",
      "item": [ {
        "linkId": "Tx221176",
        "text": "PregnancyUnder20Weeks",
        "answer": [ {
          "valueString": "*"
        } ]
      } ]
    }
  }, {
    "fullUrl": "urn:uuid:59dd3d95-8f88-4084-958c-d5be59991458",
    "resource": {
      "resourceType": "Questionnaire",
      "id": "59dd3d95-8f88-4084-958c-d5be59991458",
      "identifier": [ {
        "value": "59132"
      } ],
      "version": "2021-04-06T11:33:34.963Z",
      "status": "active",
      "experimental": false,
      "date": "2021-04-06T11:33:34+00:00",
      "publisher": "User ID: 'MCDONALDD' User name: 'Denzle McDonald' User skill set: 'T3'",
      "lastReviewDate": "2021-04-06",
      "subjectType": [ "Patient" ],
      "item": [ {
        "linkId": "59132",
        "prefix": "7700",
        "text": "PregnancyUnder20Weeks",
        "type": "choice",
        "required": true,
        "repeats": false,
        "option": [ {
          "valueString": "==\"present\", Selected: false"
        }, {
          "valueString": "*, Selected: true"
        } ]
      } ]
    }
  }, {
    "fullUrl": "urn:uuid:a94a4ff2-b6ba-4647-8895-d9e1b0202b64",
    "resource": {
      "resourceType": "QuestionnaireResponse",
      "id": "a94a4ff2-b6ba-4647-8895-d9e1b0202b64",
      "identifier": {
        "value": "59132"
      },
      "questionnaire": {
        "reference": "urn:uuid:34d94df0-91de-4c47-b2cb-b6aecf9aea02"
      },
      "status": "completed",
      "subject": {
        "reference": "urn:uuid:abe86801-c2d1-4fa4-add6-1cc090830a62"
      },
      "context": {
        "reference": "urn:uuid:ac04f47f-6b3a-4147-8a97-e06892b096af"
      },
      "authored": "2021-04-06T11:33:34+00:00",
      "item": [ {
        "linkId": "Tx221338",
        "text": ">=11yearsConfirmed",
        "answer": [ {
          "valueString": "*"
        } ]
      } ]
    }
  }, {
    "fullUrl": "urn:uuid:34d94df0-91de-4c47-b2cb-b6aecf9aea02",
    "resource": {
      "resourceType": "Questionnaire",
      "id": "34d94df0-91de-4c47-b2cb-b6aecf9aea02",
      "identifier": [ {
        "value": "59132"
      } ],
      "version": "2021-04-06T11:33:34.963Z",
      "status": "active",
      "experimental": false,
      "date": "2021-04-06T11:33:34+00:00",
      "publisher": "User ID: 'MCDONALDD' User name: 'Denzle McDonald' User skill set: 'T3'",
      "lastReviewDate": "2021-04-06",
      "subjectType": [ "Patient" ],
      "item": [ {
        "linkId": "59132",
        "prefix": "8200",
        "text": ">=11yearsConfirmed",
        "type": "choice",
        "required": true,
        "repeats": false,
        "option": [ {
          "valueString": "==\"present\", Selected: false"
        }, {
          "valueString": "*, Selected: true"
        } ]
      } ]
    }
  }, {
    "fullUrl": "urn:uuid:2a177283-e2a5-4817-9e51-e0d1d836bac5",
    "resource": {
      "resourceType": "QuestionnaireResponse",
      "id": "2a177283-e2a5-4817-9e51-e0d1d836bac5",
      "identifier": {
        "value": "59132"
      },
      "questionnaire": {
        "reference": "urn:uuid:e92c47e8-d80a-4435-9121-740aaa59565a"
      },
      "status": "completed",
      "subject": {
        "reference": "urn:uuid:abe86801-c2d1-4fa4-add6-1cc090830a62"
      },
      "context": {
        "reference": "urn:uuid:ac04f47f-6b3a-4147-8a97-e06892b096af"
      },
      "authored": "2021-04-06T11:33:34+00:00",
      "item": [ {
        "linkId": "Tx1033",
        "text": "Have you passed a bowel motion that looks like either of the following?",
        "answer": [ {
          "valueString": "no"
        } ]
      } ]
    }
  }, {
    "fullUrl": "urn:uuid:e92c47e8-d80a-4435-9121-740aaa59565a",
    "resource": {
      "resourceType": "Questionnaire",
      "id": "e92c47e8-d80a-4435-9121-740aaa59565a",
      "identifier": [ {
        "value": "59132"
      } ],
      "version": "2021-04-06T11:33:34.963Z",
      "status": "active",
      "experimental": false,
      "date": "2021-04-06T11:33:34+00:00",
      "publisher": "User ID: 'MCDONALDD' User name: 'Denzle McDonald' User skill set: 'T3'",
      "lastReviewDate": "2021-04-06",
      "subjectType": [ "Patient" ],
      "item": [ {
        "linkId": "59132",
        "prefix": "65200",
        "text": "Have you passed a bowel motion that looks like either of the following?",
        "type": "choice",
        "required": true,
        "repeats": false,
        "option": [ {
          "valueString": "black and tarry, Selected: false"
        }, {
          "valueString": "red or maroon, Selected: false"
        }, {
          "valueString": "not sure, Selected: false"
        }, {
          "valueString": "no, Selected: true"
        } ]
      } ]
    }
  }, {
    "fullUrl": "urn:uuid:d2b1c34b-989e-4142-b299-8a5bb0113bfa",
    "resource": {
      "resourceType": "QuestionnaireResponse",
      "id": "d2b1c34b-989e-4142-b299-8a5bb0113bfa",
      "identifier": {
        "value": "59132"
      },
      "questionnaire": {
        "reference": "urn:uuid:8c6ca8aa-a70b-4c18-9b63-2484bd0c1105"
      },
      "status": "completed",
      "subject": {
        "reference": "urn:uuid:abe86801-c2d1-4fa4-add6-1cc090830a62"
      },
      "context": {
        "reference": "urn:uuid:ac04f47f-6b3a-4147-8a97-e06892b096af"
      },
      "authored": "2021-04-06T11:33:34+00:00",
      "item": [ {
        "linkId": "Tx223274",
        "text": "VHFSymptom",
        "answer": [ {
          "valueString": "*"
        } ]
      } ]
    }
  }, {
    "fullUrl": "urn:uuid:8c6ca8aa-a70b-4c18-9b63-2484bd0c1105",
    "resource": {
      "resourceType": "Questionnaire",
      "id": "8c6ca8aa-a70b-4c18-9b63-2484bd0c1105",
      "identifier": [ {
        "value": "59132"
      } ],
      "version": "2021-04-06T11:33:34.963Z",
      "status": "active",
      "experimental": false,
      "date": "2021-04-06T11:33:34+00:00",
      "publisher": "User ID: 'MCDONALDD' User name: 'Denzle McDonald' User skill set: 'T3'",
      "lastReviewDate": "2021-04-06",
      "subjectType": [ "Patient" ],
      "item": [ {
        "linkId": "59132",
        "prefix": "34000",
        "text": "VHFSymptom",
        "type": "choice",
        "required": true,
        "repeats": false,
        "option": [ {
          "valueString": "==\"present\", Selected: false"
        }, {
          "valueString": "*, Selected: true"
        } ]
      } ]
    }
  }, {
    "fullUrl": "urn:uuid:aac52b58-98c2-4729-a8db-adbe612f21c6",
    "resource": {
      "resourceType": "QuestionnaireResponse",
      "id": "aac52b58-98c2-4729-a8db-adbe612f21c6",
      "identifier": {
        "value": "59132"
      },
      "questionnaire": {
        "reference": "urn:uuid:96ed8a2c-eb46-454b-b01f-2eca8d12629a"
      },
      "status": "completed",
      "subject": {
        "reference": "urn:uuid:abe86801-c2d1-4fa4-add6-1cc090830a62"
      },
      "context": {
        "reference": "urn:uuid:ac04f47f-6b3a-4147-8a97-e06892b096af"
      },
      "authored": "2021-04-06T11:33:34+00:00",
      "item": [ {
        "linkId": "Tx224075",
        "text": "SeverelyIllandConfused",
        "answer": [ {
          "valueString": "*"
        } ]
      } ]
    }
  }, {
    "fullUrl": "urn:uuid:96ed8a2c-eb46-454b-b01f-2eca8d12629a",
    "resource": {
      "resourceType": "Questionnaire",
      "id": "96ed8a2c-eb46-454b-b01f-2eca8d12629a",
      "identifier": [ {
        "value": "59132"
      } ],
      "version": "2021-04-06T11:33:34.963Z",
      "status": "active",
      "experimental": false,
      "date": "2021-04-06T11:33:34+00:00",
      "publisher": "User ID: 'MCDONALDD' User name: 'Denzle McDonald' User skill set: 'T3'",
      "lastReviewDate": "2021-04-06",
      "subjectType": [ "Patient" ],
      "item": [ {
        "linkId": "59132",
        "prefix": "47300",
        "text": "SeverelyIllandConfused",
        "type": "choice",
        "required": true,
        "repeats": false,
        "option": [ {
          "valueString": "==\"present\", Selected: false"
        }, {
          "valueString": "*, Selected: true"
        } ]
      } ]
    }
  }, {
    "fullUrl": "urn:uuid:fb25151d-63d5-42f2-8f0f-1f78c0d91c4e",
    "resource": {
      "resourceType": "QuestionnaireResponse",
      "id": "fb25151d-63d5-42f2-8f0f-1f78c0d91c4e",
      "identifier": {
        "value": "59132"
      },
      "questionnaire": {
        "reference": "urn:uuid:2587faeb-e25a-43dc-a0f2-ccdb239c41f1"
      },
      "status": "completed",
      "subject": {
        "reference": "urn:uuid:abe86801-c2d1-4fa4-add6-1cc090830a62"
      },
      "context": {
        "reference": "urn:uuid:ac04f47f-6b3a-4147-8a97-e06892b096af"
      },
      "authored": "2021-04-06T11:33:34+00:00",
      "item": [ {
        "linkId": "Tx221119",
        "text": "SeverelyIll",
        "answer": [ {
          "valueString": "*"
        } ]
      } ]
    }
  }, {
    "fullUrl": "urn:uuid:2587faeb-e25a-43dc-a0f2-ccdb239c41f1",
    "resource": {
      "resourceType": "Questionnaire",
      "id": "2587faeb-e25a-43dc-a0f2-ccdb239c41f1",
      "identifier": [ {
        "value": "59132"
      } ],
      "version": "2021-04-06T11:33:34.963Z",
      "status": "active",
      "experimental": false,
      "date": "2021-04-06T11:33:34+00:00",
      "publisher": "User ID: 'MCDONALDD' User name: 'Denzle McDonald' User skill set: 'T3'",
      "lastReviewDate": "2021-04-06",
      "subjectType": [ "Patient" ],
      "item": [ {
        "linkId": "59132",
        "prefix": "55200",
        "text": "SeverelyIll",
        "type": "choice",
        "required": true,
        "repeats": false,
        "option": [ {
          "valueString": "==\"present\", Selected: false"
        }, {
          "valueString": "*, Selected: true"
        } ]
      } ]
    }
  }, {
    "fullUrl": "urn:uuid:9cf1bac3-c702-4226-b647-daf2d1cf799a",
    "resource": {
      "resourceType": "QuestionnaireResponse",
      "id": "9cf1bac3-c702-4226-b647-daf2d1cf799a",
      "identifier": {
        "value": "59132"
      },
      "questionnaire": {
        "reference": "urn:uuid:eea11126-bcb9-4fc1-9a89-3577fefcad9e"
      },
      "status": "completed",
      "subject": {
        "reference": "urn:uuid:abe86801-c2d1-4fa4-add6-1cc090830a62"
      },
      "context": {
        "reference": "urn:uuid:ac04f47f-6b3a-4147-8a97-e06892b096af"
      },
      "authored": "2021-04-06T11:33:34+00:00",
      "item": [ {
        "linkId": "Tx223485",
        "text": "ConfusionDeclared",
        "answer": [ {
          "valueString": "*"
        } ]
      } ]
    }
  }, {
    "fullUrl": "urn:uuid:eea11126-bcb9-4fc1-9a89-3577fefcad9e",
    "resource": {
      "resourceType": "Questionnaire",
      "id": "eea11126-bcb9-4fc1-9a89-3577fefcad9e",
      "identifier": [ {
        "value": "59132"
      } ],
      "version": "2021-04-06T11:33:34.963Z",
      "status": "active",
      "experimental": false,
      "date": "2021-04-06T11:33:34+00:00",
      "publisher": "User ID: 'MCDONALDD' User name: 'Denzle McDonald' User skill set: 'T3'",
      "lastReviewDate": "2021-04-06",
      "subjectType": [ "Patient" ],
      "item": [ {
        "linkId": "59132",
        "prefix": "55600",
        "text": "ConfusionDeclared",
        "type": "choice",
        "required": true,
        "repeats": false,
        "option": [ {
          "valueString": "==\"present\", Selected: false"
        }, {
          "valueString": "*, Selected: true"
        } ]
      } ]
    }
  }, {
    "fullUrl": "urn:uuid:d09286ba-5e1b-49bc-a931-dafc03746124",
    "resource": {
      "resourceType": "QuestionnaireResponse",
      "id": "d09286ba-5e1b-49bc-a931-dafc03746124",
      "identifier": {
        "value": "59132"
      },
      "questionnaire": {
        "reference": "urn:uuid:296637f2-90f1-4ed5-b77f-9f84d1edfd0a"
      },
      "status": "completed",
      "subject": {
        "reference": "urn:uuid:abe86801-c2d1-4fa4-add6-1cc090830a62"
      },
      "context": {
        "reference": "urn:uuid:ac04f47f-6b3a-4147-8a97-e06892b096af"
      },
      "authored": "2021-04-06T11:33:34+00:00",
      "item": [ {
        "linkId": "Tx1213",
        "text": "Have you suddenly become confused OR more confused than usual?",
        "answer": [ {
          "valueString": "no"
        } ]
      } ]
    }
  }, {
    "fullUrl": "urn:uuid:296637f2-90f1-4ed5-b77f-9f84d1edfd0a",
    "resource": {
      "resourceType": "Questionnaire",
      "id": "296637f2-90f1-4ed5-b77f-9f84d1edfd0a",
      "identifier": [ {
        "value": "59132"
      } ],
      "version": "2021-04-06T11:33:34.963Z",
      "status": "active",
      "experimental": false,
      "date": "2021-04-06T11:33:34+00:00",
      "publisher": "User ID: 'MCDONALDD' User name: 'Denzle McDonald' User skill set: 'T3'",
      "lastReviewDate": "2021-04-06",
      "subjectType": [ "Patient" ],
      "item": [ {
        "linkId": "59132",
        "prefix": "55500",
        "text": "Have you suddenly become confused OR more confused than usual?",
        "type": "choice",
        "required": true,
        "repeats": false,
        "option": [ {
          "valueString": "yes, Selected: false"
        }, {
          "valueString": "not sure, Selected: false"
        }, {
          "valueString": "no, Selected: true"
        } ]
      } ]
    }
  }, {
    "fullUrl": "urn:uuid:a726a94d-5e33-44af-86f0-5e2fc13f2bf3",
    "resource": {
      "resourceType": "QuestionnaireResponse",
      "id": "a726a94d-5e33-44af-86f0-5e2fc13f2bf3",
      "identifier": {
        "value": "59132"
      },
      "questionnaire": {
        "reference": "urn:uuid:3cbb8dcb-8a55-4d29-8a8a-3a04887349f7"
      },
      "status": "completed",
      "subject": {
        "reference": "urn:uuid:abe86801-c2d1-4fa4-add6-1cc090830a62"
      },
      "context": {
        "reference": "urn:uuid:ac04f47f-6b3a-4147-8a97-e06892b096af"
      },
      "authored": "2021-04-06T11:33:34+00:00",
      "item": [ {
        "linkId": "Tx220164",
        "text": "Are you breathing faster or harder when doing nothing at all?",
        "answer": [ {
          "valueString": "no"
        } ]
      } ]
    }
  }, {
    "fullUrl": "urn:uuid:3cbb8dcb-8a55-4d29-8a8a-3a04887349f7",
    "resource": {
      "resourceType": "Questionnaire",
      "id": "3cbb8dcb-8a55-4d29-8a8a-3a04887349f7",
      "identifier": [ {
        "value": "59132"
      } ],
      "version": "2021-04-06T11:33:34.963Z",
      "status": "active",
      "experimental": false,
      "date": "2021-04-06T11:33:34+00:00",
      "publisher": "User ID: 'MCDONALDD' User name: 'Denzle McDonald' User skill set: 'T3'",
      "lastReviewDate": "2021-04-06",
      "subjectType": [ "Patient" ],
      "item": [ {
        "linkId": "59132",
        "prefix": "55400",
        "text": "Are you breathing faster or harder when doing nothing at all?",
        "type": "choice",
        "required": true,
        "repeats": false,
        "option": [ {
          "valueString": "yes, Selected: false"
        }, {
          "valueString": "not sure, Selected: false"
        }, {
          "valueString": "no, Selected: true"
        } ]
      } ]
    }
  }, {
    "fullUrl": "urn:uuid:62f6802b-0c86-462e-a54a-a70a3c4b2fea",
    "resource": {
      "resourceType": "QuestionnaireResponse",
      "id": "62f6802b-0c86-462e-a54a-a70a3c4b2fea",
      "identifier": {
        "value": "59132"
      },
      "questionnaire": {
        "reference": "urn:uuid:9ff150a6-2210-418e-9f54-931a5c43e9fb"
      },
      "status": "completed",
      "subject": {
        "reference": "urn:uuid:abe86801-c2d1-4fa4-add6-1cc090830a62"
      },
      "context": {
        "reference": "urn:uuid:ac04f47f-6b3a-4147-8a97-e06892b096af"
      },
      "authored": "2021-04-06T11:33:34+00:00",
      "item": [ {
        "linkId": "Tx224697",
        "text": "ShoulderTipPainAsked",
        "answer": [ {
          "valueString": "*"
        } ]
      } ]
    }
  }, {
    "fullUrl": "urn:uuid:9ff150a6-2210-418e-9f54-931a5c43e9fb",
    "resource": {
      "resourceType": "Questionnaire",
      "id": "9ff150a6-2210-418e-9f54-931a5c43e9fb",
      "identifier": [ {
        "value": "59132"
      } ],
      "version": "2021-04-06T11:33:34.963Z",
      "status": "active",
      "experimental": false,
      "date": "2021-04-06T11:33:34+00:00",
      "publisher": "User ID: 'MCDONALDD' User name: 'Denzle McDonald' User skill set: 'T3'",
      "lastReviewDate": "2021-04-06",
      "subjectType": [ "Patient" ],
      "item": [ {
        "linkId": "59132",
        "prefix": "59300",
        "text": "ShoulderTipPainAsked",
        "type": "choice",
        "required": true,
        "repeats": false,
        "option": [ {
          "valueString": "==\"present\", Selected: false"
        }, {
          "valueString": "*, Selected: true"
        } ]
      } ]
    }
  }, {
    "fullUrl": "urn:uuid:c3ec2b2b-314d-4344-82f9-7753a7893b86",
    "resource": {
      "resourceType": "QuestionnaireResponse",
      "id": "c3ec2b2b-314d-4344-82f9-7753a7893b86",
      "identifier": {
        "value": "59132"
      },
      "questionnaire": {
        "reference": "urn:uuid:e57b11d3-3654-4ad9-a0ff-07d20440ee0f"
      },
      "status": "completed",
      "subject": {
        "reference": "urn:uuid:abe86801-c2d1-4fa4-add6-1cc090830a62"
      },
      "context": {
        "reference": "urn:uuid:ac04f47f-6b3a-4147-8a97-e06892b096af"
      },
      "authored": "2021-04-06T11:33:34+00:00",
      "item": [ {
        "linkId": "Tx1513",
        "text": "Have you got either of the following problems?",
        "answer": [ {
          "valueString": "no"
        } ]
      } ]
    }
  }, {
    "fullUrl": "urn:uuid:e57b11d3-3654-4ad9-a0ff-07d20440ee0f",
    "resource": {
      "resourceType": "Questionnaire",
      "id": "e57b11d3-3654-4ad9-a0ff-07d20440ee0f",
      "identifier": [ {
        "value": "59132"
      } ],
      "version": "2021-04-06T11:33:34.963Z",
      "status": "active",
      "experimental": false,
      "date": "2021-04-06T11:33:34+00:00",
      "publisher": "User ID: 'MCDONALDD' User name: 'Denzle McDonald' User skill set: 'T3'",
      "lastReviewDate": "2021-04-06",
      "subjectType": [ "Patient" ],
      "item": [ {
        "linkId": "59132",
        "prefix": "11000",
        "text": "Have you got either of the following problems?",
        "type": "choice",
        "required": true,
        "repeats": false,
        "option": [ {
          "valueString": "new pain in the TIP of a shoulder as well, Selected: false"
        }, {
          "valueString": "pain in the lower right side of the abdomen, Selected: false"
        }, {
          "valueString": "not sure, Selected: false"
        }, {
          "valueString": "no, Selected: true"
        } ]
      } ]
    }
  }, {
    "fullUrl": "urn:uuid:9187d09a-dd26-4851-9017-5427236a2090",
    "resource": {
      "resourceType": "QuestionnaireResponse",
      "id": "9187d09a-dd26-4851-9017-5427236a2090",
      "identifier": {
        "value": "59132"
      },
      "questionnaire": {
        "reference": "urn:uuid:583ac00a-074f-4c16-bef5-fe74361f7e4f"
      },
      "status": "completed",
      "subject": {
        "reference": "urn:uuid:abe86801-c2d1-4fa4-add6-1cc090830a62"
      },
      "context": {
        "reference": "urn:uuid:ac04f47f-6b3a-4147-8a97-e06892b096af"
      },
      "authored": "2021-04-06T11:33:34+00:00",
      "item": [ {
        "linkId": "Tx3481",
        "text": "Has the pain been there ALL THE TIME for MORE THAN 4 HOURS?",
        "answer": [ {
          "valueString": "no (LESS THAN 4 hours)"
        } ]
      } ]
    }
  }, {
    "fullUrl": "urn:uuid:583ac00a-074f-4c16-bef5-fe74361f7e4f",
    "resource": {
      "resourceType": "Questionnaire",
      "id": "583ac00a-074f-4c16-bef5-fe74361f7e4f",
      "identifier": [ {
        "value": "59132"
      } ],
      "version": "2021-04-06T11:33:34.963Z",
      "status": "active",
      "experimental": false,
      "date": "2021-04-06T11:33:34+00:00",
      "publisher": "User ID: 'MCDONALDD' User name: 'Denzle McDonald' User skill set: 'T3'",
      "lastReviewDate": "2021-04-06",
      "subjectType": [ "Patient" ],
      "item": [ {
        "linkId": "59132",
        "prefix": "13000",
        "text": "Has the pain been there ALL THE TIME for MORE THAN 4 HOURS?",
        "type": "choice",
        "required": true,
        "repeats": false,
        "option": [ {
          "valueString": "yes (4 hours or MORE), Selected: false"
        }, {
          "valueString": "not sure, Selected: false"
        }, {
          "valueString": "no (LESS THAN 4 hours), Selected: true"
        } ]
      } ]
    }
  }, {
    "fullUrl": "urn:uuid:e74b4622-854c-48a9-b65e-ce8559520264",
    "resource": {
      "resourceType": "QuestionnaireResponse",
      "id": "e74b4622-854c-48a9-b65e-ce8559520264",
      "identifier": {
        "value": "59132"
      },
      "questionnaire": {
        "reference": "urn:uuid:a1628a5c-5492-47d0-b573-e73e731b42e2"
      },
      "status": "completed",
      "subject": {
        "reference": "urn:uuid:abe86801-c2d1-4fa4-add6-1cc090830a62"
      },
      "context": {
        "reference": "urn:uuid:ac04f47f-6b3a-4147-8a97-e06892b096af"
      },
      "authored": "2021-04-06T11:33:34+00:00",
      "item": [ {
        "linkId": "Tx1178",
        "text": "Have you been diagnosed with diabetes?",
        "answer": [ {
          "valueString": "no"
        } ]
      } ]
    }
  }, {
    "fullUrl": "urn:uuid:a1628a5c-5492-47d0-b573-e73e731b42e2",
    "resource": {
      "resourceType": "Questionnaire",
      "id": "a1628a5c-5492-47d0-b573-e73e731b42e2",
      "identifier": [ {
        "value": "59132"
      } ],
      "version": "2021-04-06T11:33:34.963Z",
      "status": "active",
      "experimental": false,
      "date": "2021-04-06T11:33:34+00:00",
      "publisher": "User ID: 'MCDONALDD' User name: 'Denzle McDonald' User skill set: 'T3'",
      "lastReviewDate": "2021-04-06",
      "subjectType": [ "Patient" ],
      "item": [ {
        "linkId": "59132",
        "prefix": "13700",
        "text": "Have you been diagnosed with diabetes?",
        "type": "choice",
        "required": true,
        "repeats": false,
        "option": [ {
          "valueString": "yes, Selected: false"
        }, {
          "valueString": "not sure, Selected: false"
        }, {
          "valueString": "no, Selected: true"
        } ]
      } ]
    }
  }, {
    "fullUrl": "urn:uuid:44b9e9e9-0273-444c-b1e3-e219020af812",
    "resource": {
      "resourceType": "QuestionnaireResponse",
      "id": "44b9e9e9-0273-444c-b1e3-e219020af812",
      "identifier": {
        "value": "59132"
      },
      "questionnaire": {
        "reference": "urn:uuid:87497a43-05c4-4bc9-9d3a-154ed6b0122f"
      },
      "status": "completed",
      "subject": {
        "reference": "urn:uuid:abe86801-c2d1-4fa4-add6-1cc090830a62"
      },
      "context": {
        "reference": "urn:uuid:ac04f47f-6b3a-4147-8a97-e06892b096af"
      },
      "authored": "2021-04-06T11:33:34+00:00",
      "item": [ {
        "linkId": "Tx220906",
        "text": "Have you got pain in the back or side between the ribs and hips?",
        "answer": [ {
          "valueString": "yes"
        } ]
      } ]
    }
  }, {
    "fullUrl": "urn:uuid:87497a43-05c4-4bc9-9d3a-154ed6b0122f",
    "resource": {
      "resourceType": "Questionnaire",
      "id": "87497a43-05c4-4bc9-9d3a-154ed6b0122f",
      "identifier": [ {
        "value": "59132"
      } ],
      "version": "2021-04-06T11:33:34.963Z",
      "status": "active",
      "experimental": false,
      "date": "2021-04-06T11:33:34+00:00",
      "publisher": "User ID: 'MCDONALDD' User name: 'Denzle McDonald' User skill set: 'T3'",
      "lastReviewDate": "2021-04-06",
      "subjectType": [ "Patient" ],
      "item": [ {
        "linkId": "59132",
        "prefix": "14400",
        "text": "Have you got pain in the back or side between the ribs and hips?",
        "type": "choice",
        "required": true,
        "repeats": false,
        "option": [ {
          "valueString": "yes, Selected: true"
        }, {
          "valueString": "not sure, Selected: false"
        }, {
          "valueString": "no, Selected: false"
        } ]
      } ]
    }
  }, {
    "fullUrl": "urn:uuid:7ef31448-bde3-4c48-8d9e-54826e78c52d",
    "resource": {
      "resourceType": "QuestionnaireResponse",
      "id": "7ef31448-bde3-4c48-8d9e-54826e78c52d",
      "identifier": {
        "value": "59132"
      },
      "questionnaire": {
        "reference": "urn:uuid:bd145d8d-01e5-4d20-a33c-01425a650a5e"
      },
      "status": "completed",
      "subject": {
        "reference": "urn:uuid:abe86801-c2d1-4fa4-add6-1cc090830a62"
      },
      "context": {
        "reference": "urn:uuid:ac04f47f-6b3a-4147-8a97-e06892b096af"
      },
      "authored": "2021-04-06T11:33:34+00:00",
      "item": [ {
        "linkId": "Tx1122",
        "text": "Have you felt hot or feverish at any time in the last 12 hours?",
        "answer": [ {
          "valueString": "yes - temperature not taken"
        } ]
      } ]
    }
  }, {
    "fullUrl": "urn:uuid:bd145d8d-01e5-4d20-a33c-01425a650a5e",
    "resource": {
      "resourceType": "Questionnaire",
      "id": "bd145d8d-01e5-4d20-a33c-01425a650a5e",
      "identifier": [ {
        "value": "59132"
      } ],
      "version": "2021-04-06T11:33:34.963Z",
      "status": "active",
      "experimental": false,
      "date": "2021-04-06T11:33:34+00:00",
      "publisher": "User ID: 'MCDONALDD' User name: 'Denzle McDonald' User skill set: 'T3'",
      "lastReviewDate": "2021-04-06",
      "subjectType": [ "Patient" ],
      "item": [ {
        "linkId": "59132",
        "prefix": "14700",
        "text": "Have you felt hot or feverish at any time in the last 12 hours?",
        "type": "choice",
        "required": true,
        "repeats": false,
        "option": [ {
          "valueString": "yes - temperature not taken, Selected: true"
        }, {
          "valueString": "yes - temperature taken (specify), Selected: false"
        }, {
          "valueString": "not sure, Selected: false"
        }, {
          "valueString": "no, Selected: false"
        } ]
      } ]
    }
  }, {
    "fullUrl": "urn:uuid:42289da7-3f65-4681-a384-a016fe2cbdfb",
    "resource": {
      "resourceType": "QuestionnaireResponse",
      "id": "42289da7-3f65-4681-a384-a016fe2cbdfb",
      "identifier": {
        "value": "59132"
      },
      "questionnaire": {
        "reference": "urn:uuid:37288f41-c5e8-4d9d-b24c-94b890b6d2d4"
      },
      "status": "completed",
      "subject": {
        "reference": "urn:uuid:abe86801-c2d1-4fa4-add6-1cc090830a62"
      },
      "context": {
        "reference": "urn:uuid:ac04f47f-6b3a-4147-8a97-e06892b096af"
      },
      "authored": "2021-04-06T11:33:34+00:00",
      "item": [ {
        "linkId": "Tx1320",
        "text": "Have you got a new red rash all over, like sunburn?",
        "answer": [ {
          "valueString": "no"
        } ]
      } ]
    }
  }, {
    "fullUrl": "urn:uuid:37288f41-c5e8-4d9d-b24c-94b890b6d2d4",
    "resource": {
      "resourceType": "Questionnaire",
      "id": "37288f41-c5e8-4d9d-b24c-94b890b6d2d4",
      "identifier": [ {
        "value": "59132"
      } ],
      "version": "2021-04-06T11:33:34.963Z",
      "status": "active",
      "experimental": false,
      "date": "2021-04-06T11:33:34+00:00",
      "publisher": "User ID: 'MCDONALDD' User name: 'Denzle McDonald' User skill set: 'T3'",
      "lastReviewDate": "2021-04-06",
      "subjectType": [ "Patient" ],
      "item": [ {
        "linkId": "59132",
        "prefix": "14800",
        "text": "Have you got a new red rash all over, like sunburn?",
        "type": "choice",
        "required": true,
        "repeats": false,
        "option": [ {
          "valueString": "yes, Selected: false"
        }, {
          "valueString": "not sure, Selected: false"
        }, {
          "valueString": "no, Selected: true"
        } ]
      } ]
    }
  }, {
    "fullUrl": "urn:uuid:0caee580-9f01-4965-be6b-19b13a00c6de",
    "resource": {
      "resourceType": "QuestionnaireResponse",
      "id": "0caee580-9f01-4965-be6b-19b13a00c6de",
      "identifier": {
        "value": "59132"
      },
      "questionnaire": {
        "reference": "urn:uuid:ae47a337-0658-42ba-8fcf-1cf60d6a44be"
      },
      "status": "completed",
      "subject": {
        "reference": "urn:uuid:abe86801-c2d1-4fa4-add6-1cc090830a62"
      },
      "context": {
        "reference": "urn:uuid:ac04f47f-6b3a-4147-8a97-e06892b096af"
      },
      "authored": "2021-04-06T11:33:34+00:00",
      "item": [ {
        "linkId": "Tx221449",
        "text": "STRING:SDPCFullPrimaryCareassessmentandprescribingcapability",
        "answer": [ {
          "valueString": "\"PC full Primary Care assessment and prescribing capability\""
        } ]
      } ]
    }
  }, {
    "fullUrl": "urn:uuid:ae47a337-0658-42ba-8fcf-1cf60d6a44be",
    "resource": {
      "resourceType": "Questionnaire",
      "id": "ae47a337-0658-42ba-8fcf-1cf60d6a44be",
      "identifier": [ {
        "value": "59132"
      } ],
      "version": "2021-04-06T11:33:34.963Z",
      "status": "active",
      "experimental": false,
      "date": "2021-04-06T11:33:34+00:00",
      "publisher": "User ID: 'MCDONALDD' User name: 'Denzle McDonald' User skill set: 'T3'",
      "lastReviewDate": "2021-04-06",
      "subjectType": [ "Patient" ],
      "item": [ {
        "linkId": "59132",
        "prefix": "14900",
        "text": "STRING:SDPCFullPrimaryCareassessmentandprescribingcapability",
        "type": "choice",
        "required": true,
        "repeats": false,
        "option": [ {
          "valueString": "\"PC full Primary Care assessment and prescribing capability\", Selected: true"
        } ]
      } ]
    }
  }, {
    "fullUrl": "urn:uuid:654f1d69-fce7-4f96-8a3c-1389f5121674",
    "resource": {
      "resourceType": "QuestionnaireResponse",
      "id": "654f1d69-fce7-4f96-8a3c-1389f5121674",
      "identifier": {
        "value": "59132"
      },
      "questionnaire": {
        "reference": "urn:uuid:9b6e2010-8a51-4bc5-89d1-0c5ee2687bab"
      },
      "status": "completed",
      "subject": {
        "reference": "urn:uuid:abe86801-c2d1-4fa4-add6-1cc090830a62"
      },
      "context": {
        "reference": "urn:uuid:ac04f47f-6b3a-4147-8a97-e06892b096af"
      },
      "authored": "2021-04-06T11:33:34+00:00"
    }
  }, {
    "fullUrl": "urn:uuid:9b6e2010-8a51-4bc5-89d1-0c5ee2687bab",
    "resource": {
      "resourceType": "Questionnaire",
      "id": "9b6e2010-8a51-4bc5-89d1-0c5ee2687bab",
      "identifier": [ {
        "value": "59132"
      } ],
      "version": "2021-04-06T11:33:34.963Z",
      "status": "active",
      "experimental": false,
      "date": "2021-04-06T11:33:34+00:00",
      "publisher": "User ID: 'MCDONALDD' User name: 'Denzle McDonald' User skill set: 'T3'",
      "lastReviewDate": "2021-04-06",
      "subjectType": [ "Patient" ]
    }
  }, {
    "fullUrl": "urn:uuid:bd61f84f-a0dd-46a0-ad56-e73919027ff8",
    "resource": {
      "resourceType": "QuestionnaireResponse",
      "id": "bd61f84f-a0dd-46a0-ad56-e73919027ff8",
      "identifier": {
        "value": "59132"
      },
      "questionnaire": {
        "reference": "urn:uuid:f3b56f3c-c92f-4e02-bfaf-7a13288071f6"
      },
      "status": "completed",
      "subject": {
        "reference": "urn:uuid:abe86801-c2d1-4fa4-add6-1cc090830a62"
      },
      "context": {
        "reference": "urn:uuid:ac04f47f-6b3a-4147-8a97-e06892b096af"
      },
      "authored": "2021-04-06T11:33:34+00:00"
    }
  }, {
    "fullUrl": "urn:uuid:f3b56f3c-c92f-4e02-bfaf-7a13288071f6",
    "resource": {
      "resourceType": "Questionnaire",
      "id": "f3b56f3c-c92f-4e02-bfaf-7a13288071f6",
      "identifier": [ {
        "value": "59132"
      } ],
      "version": "2021-04-06T11:33:34.963Z",
      "status": "active",
      "experimental": false,
      "date": "2021-04-06T11:33:34+00:00",
      "publisher": "User ID: 'MCDONALDD' User name: 'Denzle McDonald' User skill set: 'T3'",
      "lastReviewDate": "2021-04-06",
      "subjectType": [ "Patient" ]
    }
  }, {
    "fullUrl": "urn:uuid:28277a28-f7cc-4db8-8fe4-92932f2ce379",
    "resource": {
      "resourceType": "QuestionnaireResponse",
      "id": "28277a28-f7cc-4db8-8fe4-92932f2ce379",
      "identifier": {
        "value": "59132"
      },
      "questionnaire": {
        "reference": "urn:uuid:0ee8ac49-a51c-4e93-94b9-718b196a3ca0"
      },
      "status": "completed",
      "subject": {
        "reference": "urn:uuid:abe86801-c2d1-4fa4-add6-1cc090830a62"
      },
      "context": {
        "reference": "urn:uuid:ac04f47f-6b3a-4147-8a97-e06892b096af"
      },
      "authored": "2021-04-06T11:33:34+00:00"
    }
  }, {
    "fullUrl": "urn:uuid:0ee8ac49-a51c-4e93-94b9-718b196a3ca0",
    "resource": {
      "resourceType": "Questionnaire",
      "id": "0ee8ac49-a51c-4e93-94b9-718b196a3ca0",
      "identifier": [ {
        "value": "59132"
      } ],
      "version": "2021-04-06T11:33:34.963Z",
      "status": "active",
      "experimental": false,
      "date": "2021-04-06T11:33:34+00:00",
      "publisher": "User ID: 'MCDONALDD' User name: 'Denzle McDonald' User skill set: 'T3'",
      "lastReviewDate": "2021-04-06",
      "subjectType": [ "Patient" ]
    }
  }, {
    "fullUrl": "urn:uuid:81909cbd-d28e-481c-8ace-4fa41cc0d645",
    "resource": {
      "resourceType": "QuestionnaireResponse",
      "id": "81909cbd-d28e-481c-8ace-4fa41cc0d645",
      "identifier": {
        "value": "59132"
      },
      "questionnaire": {
        "reference": "urn:uuid:2f227bc3-3625-4c40-b7af-4490d7e2a6e7"
      },
      "status": "completed",
      "subject": {
        "reference": "urn:uuid:abe86801-c2d1-4fa4-add6-1cc090830a62"
      },
      "context": {
        "reference": "urn:uuid:ac04f47f-6b3a-4147-8a97-e06892b096af"
      },
      "authored": "2021-04-06T11:33:34+00:00"
    }
  }, {
    "fullUrl": "urn:uuid:2f227bc3-3625-4c40-b7af-4490d7e2a6e7",
    "resource": {
      "resourceType": "Questionnaire",
      "id": "2f227bc3-3625-4c40-b7af-4490d7e2a6e7",
      "identifier": [ {
        "value": "59132"
      } ],
      "version": "2021-04-06T11:33:34.963Z",
      "status": "active",
      "experimental": false,
      "date": "2021-04-06T11:33:34+00:00",
      "publisher": "User ID: 'MCDONALDD' User name: 'Denzle McDonald' User skill set: 'T3'",
      "lastReviewDate": "2021-04-06",
      "subjectType": [ "Patient" ]
    }
  }, {
    "fullUrl": "urn:uuid:37958e53-4652-4734-9b9c-c593600fc391",
    "resource": {
      "resourceType": "QuestionnaireResponse",
      "id": "37958e53-4652-4734-9b9c-c593600fc391",
      "identifier": {
        "value": "59132"
      },
      "questionnaire": {
        "reference": "urn:uuid:940bf284-c47b-4734-ab41-b5e38edaf761"
      },
      "status": "completed",
      "subject": {
        "reference": "urn:uuid:abe86801-c2d1-4fa4-add6-1cc090830a62"
      },
      "context": {
        "reference": "urn:uuid:ac04f47f-6b3a-4147-8a97-e06892b096af"
      },
      "authored": "2021-04-06T11:33:34+00:00"
    }
  }, {
    "fullUrl": "urn:uuid:940bf284-c47b-4734-ab41-b5e38edaf761",
    "resource": {
      "resourceType": "Questionnaire",
      "id": "940bf284-c47b-4734-ab41-b5e38edaf761",
      "identifier": [ {
        "value": "59132"
      } ],
      "version": "2021-04-06T11:33:34.963Z",
      "status": "active",
      "experimental": false,
      "date": "2021-04-06T11:33:34+00:00",
      "publisher": "User ID: 'MCDONALDD' User name: 'Denzle McDonald' User skill set: 'T3'",
      "lastReviewDate": "2021-04-06",
      "subjectType": [ "Patient" ]
    }
  }, {
    "fullUrl": "urn:uuid:251d1934-bebe-418e-b57f-fb5ab43c1d1c",
    "resource": {
      "resourceType": "Observation",
      "id": "251d1934-bebe-418e-b57f-fb5ab43c1d1c",
      "status": "final",
      "code": {
        "coding": [ {
          "system": "http://snomed.info/sct",
          "code": "33962009",
          "display": "Presenting complaint"
        } ]
      },
      "subject": {
        "reference": "urn:uuid:abe86801-c2d1-4fa4-add6-1cc090830a62"
      },
      "context": {
        "reference": "urn:uuid:ac04f47f-6b3a-4147-8a97-e06892b096af"
      },
      "valueString": "Pharmacy ITK Testing"
    }
  }, {
    "fullUrl": "urn:uuid:be6738d8-08d5-4bb6-8b86-fd1b92fbfc71",
    "resource": {
      "resourceType": "PractitionerRole",
      "id": "be6738d8-08d5-4bb6-8b86-fd1b92fbfc71",
      "practitioner": {
        "reference": "urn:uuid:4e99e896-152d-4871-8b27-3ea506b058a2"
      },
      "organization": {
        "reference": "urn:uuid:333c4f94-e47e-40bd-b7ca-14f60cc0ad76"
      },
      "code": [ {
        "coding": [ {
          "system": "2.16.840.1.113883.2.1.3.2.4.17.339",
          "code": "DOCTOR",
          "display": "Doctor"
        } ]
      } ]
    }
  }, {
    "fullUrl": "urn:uuid:333c4f94-e47e-40bd-b7ca-14f60cc0ad76",
    "resource": {
      "resourceType": "Organization",
      "id": "333c4f94-e47e-40bd-b7ca-14f60cc0ad76",
      "identifier": [ {
        "value": "RYE"
      } ],
      "name": "1.SCAS Administrator (SCAS111)"
    }
  }, {
    "fullUrl": "urn:uuid:ea6fa3fb-74a9-4289-847a-4f2995521ef4",
    "resource": {
      "resourceType": "PractitionerRole",
      "id": "ea6fa3fb-74a9-4289-847a-4f2995521ef4",
      "practitioner": {
        "reference": "urn:uuid:05534c59-9545-433e-bf58-9edcf946da50"
      },
      "organization": {
        "reference": "urn:uuid:f42ba4e3-58ff-457c-8939-9629335e7674"
      },
      "code": [ {
        "coding": [ {
          "system": "2.16.840.1.113883.2.1.3.2.4.17.196",
          "code": "R0010",
          "display": "Medical Director"
        } ]
      } ]
    }
  }, {
    "fullUrl": "urn:uuid:f42ba4e3-58ff-457c-8939-9629335e7674",
    "resource": {
      "resourceType": "Organization",
      "id": "f42ba4e3-58ff-457c-8939-9629335e7674",
      "identifier": [ {
        "value": "RYE"
      } ],
      "name": "SCAS111"
    }
  }, {
    "fullUrl": "urn:uuid:30ff9f99-4215-401b-a63f-45a6f08fa2a8",
    "resource": {
      "resourceType": "RelatedPerson",
      "id": "30ff9f99-4215-401b-a63f-45a6f08fa2a8",
      "patient": {
        "reference": "urn:uuid:abe86801-c2d1-4fa4-add6-1cc090830a62"
      },
      "relationship": {
        "coding": [ {
          "system": "http://hl7.org/fhir/v2/0131",
          "code": "C",
          "display": "Emergency Contact"
        } ]
      },
      "telecom": [ {
        "system": "phone",
        "value": "tel:07948625625"
      } ]
    }
  }, {
    "fullUrl": "urn:uuid:0e6cd46a-c4db-4cac-928f-9cc239e99c8d",
    "resource": {
      "resourceType": "Device",
      "id": "0e6cd46a-c4db-4cac-928f-9cc239e99c8d",
      "model": "111 Adaptor",
      "version": "1.0.3"
    }
  }, {
    "fullUrl": "urn:uuid:4d04baea-00ab-4fea-aa7f-7fc293864b39",
    "resource": {
      "resourceType": "List",
      "id": "4d04baea-00ab-4fea-aa7f-7fc293864b39",
      "status": "current",
      "mode": "working",
      "title": "111 Report List",
      "code": {
        "coding": [ {
          "system": "http://snomed.info/sct",
          "code": "225390008",
          "display": "Triage"
        } ]
      },
      "subject": {
        "reference": "urn:uuid:abe86801-c2d1-4fa4-add6-1cc090830a62"
      },
      "encounter": {
        "reference": "urn:uuid:ac04f47f-6b3a-4147-8a97-e06892b096af"
      },
      "date": "2021-04-06T11:33:35+00:00",
      "source": {
        "reference": "urn:uuid:0e6cd46a-c4db-4cac-928f-9cc239e99c8d"
      },
      "orderedBy": {
        "coding": [ {
          "system": "http://hl7.org/fhir/list-order",
          "code": "event-date",
          "display": "Sorted by Event Date"
        } ]
      },
      "entry": [ {
        "item": {
          "reference": "urn:uuid:6f6ac5ce-9569-4f95-8abb-995e29b33a51"
        }
      }, {
        "item": {
          "reference": "urn:uuid:251d1934-bebe-418e-b57f-fb5ab43c1d1c"
        }
      }, {
        "item": {
          "reference": "urn:uuid:333c4f94-e47e-40bd-b7ca-14f60cc0ad76"
        }
      }, {
        "item": {
          "reference": "urn:uuid:7b5a9c22-ada0-4db1-b065-07905ad3ebcd"
        }
      }, {
        "item": {
          "reference": "urn:uuid:8c8b9c5f-3afd-4ba4-80ff-95d3d4426547"
        }
      }, {
        "item": {
          "reference": "urn:uuid:f42ba4e3-58ff-457c-8939-9629335e7674"
        }
      }, {
        "item": {
          "reference": "urn:uuid:b683c73e-c281-473a-bdc0-ac0deeef3445"
        }
      }, {
        "item": {
          "reference": "urn:uuid:05534c59-9545-433e-bf58-9edcf946da50"
        }
      }, {
        "item": {
          "reference": "urn:uuid:30ff9f99-4215-401b-a63f-45a6f08fa2a8"
        }
      }, {
        "item": {
          "reference": "urn:uuid:4e99e896-152d-4871-8b27-3ea506b058a2"
        }
      }, {
        "item": {
          "reference": "urn:uuid:787ea342-365a-4572-a2f2-a9565c3cdd40"
        }
      }, {
        "item": {
          "reference": "urn:uuid:fe60e16e-dcf5-42ba-be46-1ef914f0c6b1"
        }
      }, {
        "item": {
          "reference": "urn:uuid:b68e77fe-860d-4692-a4ee-9645bf6b89b9"
        }
      }, {
        "item": {
          "reference": "urn:uuid:cdfc327f-4880-443e-b50c-2a2482f462f0"
        }
      }, {
        "item": {
          "reference": "urn:uuid:96ed8a2c-eb46-454b-b01f-2eca8d12629a"
        }
      }, {
        "item": {
          "reference": "urn:uuid:8444d1be-b0dd-4c10-a784-820c6b596e36"
        }
      }, {
        "item": {
          "reference": "urn:uuid:fb7a0300-8d8e-412d-8ece-0ffeb4b1da16"
        }
      }, {
        "item": {
          "reference": "urn:uuid:62f6802b-0c86-462e-a54a-a70a3c4b2fea"
        }
      }, {
        "item": {
          "reference": "urn:uuid:b121401d-c5f9-48c3-bc58-3625aa078049"
        }
      }, {
        "item": {
          "reference": "urn:uuid:a9e49bcd-c54c-4c79-b5e2-19f1e29c69ae"
        }
      }, {
        "item": {
          "reference": "urn:uuid:8b4df25b-2f01-452a-8849-ca72f1f71aea"
        }
      }, {
        "item": {
          "reference": "urn:uuid:07820e03-7f00-4be7-9e06-2a49047b42df"
        }
      }, {
        "item": {
          "reference": "urn:uuid:cc4d6825-cf4d-4b85-94bb-05a7ba027212"
        }
      }, {
        "item": {
          "reference": "urn:uuid:92540cff-9fd5-4d17-9cfe-88bd24569845"
        }
      }, {
        "item": {
          "reference": "urn:uuid:96bc4d0f-b4b2-4ca9-9a7a-2f4a4ff9eef2"
        }
      }, {
        "item": {
          "reference": "urn:uuid:93377ea4-06cd-47a0-beee-2e48a1dfa695"
        }
      }, {
        "item": {
          "reference": "urn:uuid:9335b876-b349-44c9-bead-ce96f1937433"
        }
      }, {
        "item": {
          "reference": "urn:uuid:6eec163a-8677-41ec-934d-112efd4eb673"
        }
      }, {
        "item": {
          "reference": "urn:uuid:fb25151d-63d5-42f2-8f0f-1f78c0d91c4e"
        }
      }, {
        "item": {
          "reference": "urn:uuid:03a5dfc6-f90b-43bb-baf7-4b0dfb17ff52"
        }
      }, {
        "item": {
          "reference": "urn:uuid:1eb397f1-6a93-432d-b902-daa6ef8e5ac1"
        }
      }, {
        "item": {
          "reference": "urn:uuid:f86244e8-beb6-4d0a-91a9-8de2a9276329"
        }
      }, {
        "item": {
          "reference": "urn:uuid:4565ee6f-aac8-43a0-9acc-5fb466516112"
        }
      }, {
        "item": {
          "reference": "urn:uuid:296637f2-90f1-4ed5-b77f-9f84d1edfd0a"
        }
      }, {
        "item": {
          "reference": "urn:uuid:59dd3d95-8f88-4084-958c-d5be59991458"
        }
      }, {
        "item": {
          "reference": "urn:uuid:2a342997-a7a8-4ff5-adcc-b31bceddf2f5"
        }
      }, {
        "item": {
          "reference": "urn:uuid:63c1558e-d039-4c3b-92ad-e7472b611186"
        }
      }, {
        "item": {
          "reference": "urn:uuid:86848f54-fd9f-4363-8e3b-81ac55efcd0f"
        }
      }, {
        "item": {
          "reference": "urn:uuid:f5dd76c7-f66f-46f6-8ae6-8fcfbea0a445"
        }
      }, {
        "item": {
          "reference": "urn:uuid:b5ab5d94-8c29-411c-a006-45d8e6a78ad8"
        }
      }, {
        "item": {
          "reference": "urn:uuid:2f8c5a46-6210-407a-864a-522c4c07baa8"
        }
      }, {
        "item": {
          "reference": "urn:uuid:e78cff92-7c91-4c98-938c-de3564a3b289"
        }
      }, {
        "item": {
          "reference": "urn:uuid:ab0b4bfe-099c-43c7-9f02-7f12511d7b74"
        }
      }, {
        "item": {
          "reference": "urn:uuid:7ef31448-bde3-4c48-8d9e-54826e78c52d"
        }
      }, {
        "item": {
          "reference": "urn:uuid:a976ce63-0b6d-428c-9e85-d4410dea64ee"
        }
      }, {
        "item": {
          "reference": "urn:uuid:5e88d77c-1374-47fc-9401-3e15f34cc065"
        }
      }, {
        "item": {
          "reference": "urn:uuid:88b049dc-2f05-4191-9da3-79306e83d5bb"
        }
      }, {
        "item": {
          "reference": "urn:uuid:f69acaaa-4ccd-4d8e-a7c1-c338897488cb"
        }
      }, {
        "item": {
          "reference": "urn:uuid:a5b02ecf-2dcd-4468-9492-3e5c473da0e2"
        }
      }, {
        "item": {
          "reference": "urn:uuid:e74b4622-854c-48a9-b65e-ce8559520264"
        }
      }, {
        "item": {
          "reference": "urn:uuid:a726a94d-5e33-44af-86f0-5e2fc13f2bf3"
        }
      }, {
        "item": {
          "reference": "urn:uuid:fc6a9ffa-49c6-4047-9d17-4a067f45eb15"
        }
      }, {
        "item": {
          "reference": "urn:uuid:a94a4ff2-b6ba-4647-8895-d9e1b0202b64"
        }
      }, {
        "item": {
          "reference": "urn:uuid:1fdd1537-95ad-4a4c-a5ae-526931124223"
        }
      }, {
        "item": {
          "reference": "urn:uuid:654f1d69-fce7-4f96-8a3c-1389f5121674"
        }
      }, {
        "item": {
          "reference": "urn:uuid:8b7554e4-801e-41fb-afd8-ac2889d0cf7a"
        }
      }, {
        "item": {
          "reference": "urn:uuid:9187d09a-dd26-4851-9017-5427236a2090"
        }
      }, {
        "item": {
          "reference": "urn:uuid:58c333ff-fec9-4cf0-8790-c59a47b73481"
        }
      }, {
        "item": {
          "reference": "urn:uuid:2e98004b-c9f6-47c7-aa9b-28c1e9f5e4bc"
        }
      }, {
        "item": {
          "reference": "urn:uuid:a1628a5c-5492-47d0-b573-e73e731b42e2"
        }
      }, {
        "item": {
          "reference": "urn:uuid:f13ea592-d0ef-4d73-b94a-b7559813b3ba"
        }
      }, {
        "item": {
          "reference": "urn:uuid:34d94df0-91de-4c47-b2cb-b6aecf9aea02"
        }
      }, {
        "item": {
          "reference": "urn:uuid:0caee580-9f01-4965-be6b-19b13a00c6de"
        }
      }, {
        "item": {
          "reference": "urn:uuid:81909cbd-d28e-481c-8ace-4fa41cc0d645"
        }
      }, {
        "item": {
          "reference": "urn:uuid:7aa20f9e-f054-4690-a140-9d445457f889"
        }
      }, {
        "item": {
          "reference": "urn:uuid:25713d28-c31b-4eb5-8d98-fa26c2103850"
        }
      }, {
        "item": {
          "reference": "urn:uuid:e2a5f5b5-12fd-4f3c-8499-2104d8853d8f"
        }
      }, {
        "item": {
          "reference": "urn:uuid:686890b8-cf83-4cee-862e-c70d820df354"
        }
      }, {
        "item": {
          "reference": "urn:uuid:57d003a9-5bef-4a27-8ee9-1b0de4a81795"
        }
      }, {
        "item": {
          "reference": "urn:uuid:ffb08ae4-68eb-460f-a862-0c3298a1aef0"
        }
      }, {
        "item": {
          "reference": "urn:uuid:b91e7426-2796-428c-a555-0d1f18104174"
        }
      }, {
        "item": {
          "reference": "urn:uuid:e7f78ec5-0aab-49d8-b94b-2fdc7b8d872c"
        }
      }, {
        "item": {
          "reference": "urn:uuid:28277a28-f7cc-4db8-8fe4-92932f2ce379"
        }
      }, {
        "item": {
          "reference": "urn:uuid:aeeec77c-bb0b-4cbe-9aac-8ae0abf64093"
        }
      }, {
        "item": {
          "reference": "urn:uuid:0ee8ac49-a51c-4e93-94b9-718b196a3ca0"
        }
      }, {
        "item": {
          "reference": "urn:uuid:e57b11d3-3654-4ad9-a0ff-07d20440ee0f"
        }
      }, {
        "item": {
          "reference": "urn:uuid:93106261-d0ea-4805-9300-89c9c3db0c72"
        }
      }, {
        "item": {
          "reference": "urn:uuid:eff5a7eb-58f9-440e-837e-88d081d71cf1"
        }
      }, {
        "item": {
          "reference": "urn:uuid:ad23f010-7f46-481e-abea-67c0b158a479"
        }
      }, {
        "item": {
          "reference": "urn:uuid:54e98995-d5b4-43cf-a680-078986c0fa34"
        }
      }, {
        "item": {
          "reference": "urn:uuid:16bd78a4-9bfb-4b44-9916-14924995b57d"
        }
      }, {
        "item": {
          "reference": "urn:uuid:9cf1bac3-c702-4226-b647-daf2d1cf799a"
        }
      }, {
        "item": {
          "reference": "urn:uuid:37288f41-c5e8-4d9d-b24c-94b890b6d2d4"
        }
      }, {
        "item": {
          "reference": "urn:uuid:b40bea2e-c89a-4551-adfa-1747beb26dc7"
        }
      }, {
        "item": {
          "reference": "urn:uuid:87497a43-05c4-4bc9-9d3a-154ed6b0122f"
        }
      }, {
        "item": {
          "reference": "urn:uuid:44b9e9e9-0273-444c-b1e3-e219020af812"
        }
      }, {
        "item": {
          "reference": "urn:uuid:42289da7-3f65-4681-a384-a016fe2cbdfb"
        }
      }, {
        "item": {
          "reference": "urn:uuid:4a2d46e7-e9d5-4c6d-92e4-cdc9b5155683"
        }
      }, {
        "item": {
          "reference": "urn:uuid:8c6ca8aa-a70b-4c18-9b63-2484bd0c1105"
        }
      }, {
        "item": {
          "reference": "urn:uuid:d148743a-e6b3-4335-8b9a-d9f190ff733c"
        }
      }, {
        "item": {
          "reference": "urn:uuid:59d20700-6ef6-419c-8014-d62faea4a0e6"
        }
      }, {
        "item": {
          "reference": "urn:uuid:ac5e0074-751f-4509-94e0-f5fa8e950495"
        }
      }, {
        "item": {
          "reference": "urn:uuid:9eb15030-7ee9-4736-92cb-cd4ae7c2cb6d"
        }
      }, {
        "item": {
          "reference": "urn:uuid:794b0d81-00b4-403a-b38a-cb7099cfd81f"
        }
      }, {
        "item": {
          "reference": "urn:uuid:bd61f84f-a0dd-46a0-ad56-e73919027ff8"
        }
      }, {
        "item": {
          "reference": "urn:uuid:56087b4f-72df-4fa7-ad32-6952a88f79bb"
        }
      }, {
        "item": {
          "reference": "urn:uuid:fcc4ddda-bfb5-4e76-8952-22e6796446df"
        }
      }, {
        "item": {
          "reference": "urn:uuid:26b03911-5432-46d9-b0c8-205d7ba17fe5"
        }
      }, {
        "item": {
          "reference": "urn:uuid:326b542d-9d72-4ffc-bd87-af95c8aca083"
        }
      }, {
        "item": {
          "reference": "urn:uuid:44ad7296-19b9-4508-871e-b5860f133923"
        }
      }, {
        "item": {
          "reference": "urn:uuid:c3ec2b2b-314d-4344-82f9-7753a7893b86"
        }
      }, {
        "item": {
          "reference": "urn:uuid:7a2a38b5-d27c-4b11-b760-becc501271b8"
        }
      }, {
        "item": {
          "reference": "urn:uuid:9ff150a6-2210-418e-9f54-931a5c43e9fb"
        }
      }, {
        "item": {
          "reference": "urn:uuid:5d9cfe8f-34d9-4610-b564-04baf9c695da"
        }
      }, {
        "item": {
          "reference": "urn:uuid:135f9917-9377-4740-a8d9-e5049d33aa11"
        }
      }, {
        "item": {
          "reference": "urn:uuid:1beba0c0-9321-40e6-98bc-f57fd1e01103"
        }
      }, {
        "item": {
          "reference": "urn:uuid:edf285a8-a15f-4074-ae0d-52b1b21e158a"
        }
      }, {
        "item": {
          "reference": "urn:uuid:37fa5e00-d5eb-47e2-a0c8-f34aa33cc8ef"
        }
      }, {
        "item": {
          "reference": "urn:uuid:2e050760-9a7c-497e-945e-b4a6e39d4cbc"
        }
      }, {
        "item": {
          "reference": "urn:uuid:e92c47e8-d80a-4435-9121-740aaa59565a"
        }
      }, {
        "item": {
          "reference": "urn:uuid:f3b56f3c-c92f-4e02-bfaf-7a13288071f6"
        }
      }, {
        "item": {
          "reference": "urn:uuid:f932b7d1-758b-46af-bd6a-13f03628567d"
        }
      }, {
        "item": {
          "reference": "urn:uuid:f6c712e4-6522-42f0-8c5e-43161462702d"
        }
      }, {
        "item": {
          "reference": "urn:uuid:eb8e4371-374f-4cdb-8384-b337e26e79fd"
        }
      }, {
        "item": {
          "reference": "urn:uuid:9b6e2010-8a51-4bc5-89d1-0c5ee2687bab"
        }
      }, {
        "item": {
          "reference": "urn:uuid:36ae8e62-57cb-450d-957d-e8ed667750eb"
        }
      }, {
        "item": {
          "reference": "urn:uuid:eea11126-bcb9-4fc1-9a89-3577fefcad9e"
        }
      }, {
        "item": {
          "reference": "urn:uuid:583ac00a-074f-4c16-bef5-fe74361f7e4f"
        }
      }, {
        "item": {
          "reference": "urn:uuid:37958e53-4652-4734-9b9c-c593600fc391"
        }
      }, {
        "item": {
          "reference": "urn:uuid:818350bf-11ca-42aa-b890-a9a853629030"
        }
      }, {
        "item": {
          "reference": "urn:uuid:a5114f25-1299-4449-905f-0a043a58c4ac"
        }
      }, {
        "item": {
          "reference": "urn:uuid:427e371b-6c39-43d4-9b24-9eef1eec6ea2"
        }
      }, {
        "item": {
          "reference": "urn:uuid:940bf284-c47b-4734-ab41-b5e38edaf761"
        }
      }, {
        "item": {
          "reference": "urn:uuid:2587faeb-e25a-43dc-a0f2-ccdb239c41f1"
        }
      }, {
        "item": {
          "reference": "urn:uuid:166f38d3-d3d9-456f-802d-2ac6ff956f3e"
        }
      }, {
        "item": {
          "reference": "urn:uuid:6cadaf7c-b5fe-42df-980f-03c599d4b607"
        }
      }, {
        "item": {
          "reference": "urn:uuid:7e561a96-8244-43c4-abf9-5905021ae2b5"
        }
      }, {
        "item": {
          "reference": "urn:uuid:e5ef9213-24a6-4804-8b6c-3c542f42a435"
        }
      }, {
        "item": {
          "reference": "urn:uuid:2f227bc3-3625-4c40-b7af-4490d7e2a6e7"
        }
      }, {
        "item": {
          "reference": "urn:uuid:eeb041fc-1ac9-4b1e-b541-7475c99e7460"
        }
      }, {
        "item": {
          "reference": "urn:uuid:d2b1c34b-989e-4142-b299-8a5bb0113bfa"
        }
      }, {
        "item": {
          "reference": "urn:uuid:eb22a545-b978-4311-ad25-9775e9e77ba0"
        }
      }, {
        "item": {
          "reference": "urn:uuid:cf1da92d-9b9b-4833-aa19-ba92fb2e92f0"
        }
      }, {
        "item": {
          "reference": "urn:uuid:3cbb8dcb-8a55-4d29-8a8a-3a04887349f7"
        }
      }, {
        "item": {
          "reference": "urn:uuid:6cdf06cb-a76a-4466-9045-f97057ef1c7a"
        }
      }, {
        "item": {
          "reference": "urn:uuid:bc3de631-cebd-4408-bd0e-9f7784331662"
        }
      }, {
        "item": {
          "reference": "urn:uuid:6c049927-eaa3-4b29-947e-1212eabfd20e"
        }
      }, {
        "item": {
          "reference": "urn:uuid:d09286ba-5e1b-49bc-a931-dafc03746124"
        }
      }, {
        "item": {
          "reference": "urn:uuid:9300b247-fd66-4d38-896f-f083e87a5807"
        }
      }, {
        "item": {
          "reference": "urn:uuid:d5e84104-a464-429b-aeb5-d77d93c238fb"
        }
      }, {
        "item": {
          "reference": "urn:uuid:dcfee9a4-1c98-445c-96dd-0095681ee0b2"
        }
      }, {
        "item": {
          "reference": "urn:uuid:f5f1bdc7-ae47-446e-8155-4bf8b6aec556"
        }
      }, {
        "item": {
          "reference": "urn:uuid:004365a6-3be8-4944-b61e-d9066d878f69"
        }
      }, {
        "item": {
          "reference": "urn:uuid:2fa2dc2c-5558-4fbc-a183-2ea8a071d3ef"
        }
      }, {
        "item": {
          "reference": "urn:uuid:12fceeca-75ba-495d-a108-3e2f265d9e63"
        }
      }, {
        "item": {
          "reference": "urn:uuid:97d74574-5b0e-4c4f-b549-cafbc6a304cd"
        }
      }, {
        "item": {
          "reference": "urn:uuid:dfc03f6f-8027-4313-8b06-426afefdc543"
        }
      }, {
        "item": {
          "reference": "urn:uuid:43826512-2cf7-4dd0-8f7a-2c1335b828a5"
        }
      }, {
        "item": {
          "reference": "urn:uuid:2a177283-e2a5-4817-9e51-e0d1d836bac5"
        }
      }, {
        "item": {
          "reference": "urn:uuid:5fbc8813-7b2b-4f92-ae1d-4a77e6c1e869"
        }
      }, {
        "item": {
          "reference": "urn:uuid:aac52b58-98c2-4729-a8db-adbe612f21c6"
        }
      }, {
        "item": {
          "reference": "urn:uuid:ae47a337-0658-42ba-8fcf-1cf60d6a44be"
        }
      }, {
        "item": {
          "reference": "urn:uuid:e9745e37-c0c7-4d7d-9e62-7e383534a1bb"
        }
      }, {
        "item": {
          "reference": "urn:uuid:6f3a401a-fa5a-48f9-b6bd-793ae3b4660c"
        }
      }, {
        "item": {
          "reference": "urn:uuid:87f9a718-0158-4e9a-9b48-ca5107bf370d"
        }
      }, {
        "item": {
          "reference": "urn:uuid:bd145d8d-01e5-4d20-a33c-01425a650a5e"
        }
      }, {
        "item": {
          "reference": "urn:uuid:ffbcf569-662b-49e1-b6f1-2dfe007e3a33"
        }
      }, {
        "item": {
          "reference": "urn:uuid:11330d34-155f-4795-a5e4-5ac0d85316ac"
        }
      } ]
    }
  } ]
}