{
  "resourceType": "Bundle",
  "identifier": {
    "type": {
      "text": "ClinicalDocument VersionNumber"
    },
    "value": "1"
  },
  "type": "message",
  "entry": [ {
    "fullUrl": "urn:uuid:7AEFFED7-78AF-4940-9EE2-5FAA3920ECFE",
    "resource": {
      "resourceType": "MessageHeader",
      "id": "7AEFFED7-78AF-4940-9EE2-5FAA3920ECFE",
      "event": {
        "system": "https://fhir.nhs.uk/STU3/CodeSystem/EventType-1",
        "code": "referral-1",
        "display": "Referral"
      },
      "destination": [ {
        "endpoint": "urn:nhs-uk:addressing:ods:RSHSO14A:DOSServiceID:2000006423"
      } ],
      "timestamp": "2021-04-06T11:33:35.000+00:00",
      "source": {
        "name": "NHS 111 Adaptor",
        "endpoint": "http://localhost:8080/report"
      },
      "reason": {
        "coding": [ {
          "system": "urn:nhs-itk:ns:201005:interaction",
          "code": "urn:nhs-itk:interaction:primaryEmergencyDepartmentRecipientNHS111CDADocument-v2-0"
        } ]
      }
    }
  }, {
    "fullUrl": "urn:uuid:ca5352bb-1bed-45a2-ad05-34e7616af2e3",
    "resource": {
      "resourceType": "Encounter",
      "id": "ca5352bb-1bed-45a2-ad05-34e7616af2e3",
      "identifier": [ {
        "system": "2.16.840.1.113883.2.1.3.2.4.18.34",
        "value": "029EE79C-BBD3-478A-93EE-979CB300212E"
      }, {
        "system": "2.16.840.1.113883.2.1.3.2.4.18.35",
        "value": "59132"
      }, {
        "system": "2.16.840.1.113883.2.1.3.2.4.18.49",
        "value": "029EE79C-BBD3-478A-93EE-979CB300212E"
      } ],
      "status": "finished",
      "type": [ {
        "text": "111 Encounter Referral"
      } ],
      "subject": {
        "reference": "urn:uuid:7caa3374-a574-4530-9cbd-0dcb80b77303"
      },
      "participant": [ {
        "type": [ {
          "coding": [ {
            "system": "http://hl7.org/fhir/ValueSet/encounter-participant-type",
            "code": "PPRF",
            "display": "Author"
          } ]
        } ],
        "individual": {
          "reference": "urn:uuid:ac45a766-2038-43fe-95b9-a39d24a3fe9a"
        }
      }, {
        "type": [ {
          "coding": [ {
            "system": "http://hl7.org/fhir/ValueSet/encounter-participant-type",
            "code": "ATND",
            "display": "Responsible Party"
          } ]
        } ],
        "individual": {
          "reference": "urn:uuid:46cc8c0c-a843-4289-98ac-8e62c10a3fe3"
        }
      } ],
      "period": {
        "start": "2021-04-06T11:33:35+00:00"
      },
      "location": [ {
        "location": {
          "reference": "urn:uuid:0b37a94c-e884-4c9e-a11f-a9e656c5fec3"
        },
        "status": "active"
      }, {
        "location": {
          "reference": "urn:uuid:ada3a3e8-35bb-4abd-80e5-025c78b4e4de"
        },
        "status": "completed"
      } ],
      "serviceProvider": {
        "reference": "urn:uuid:d2a242b3-262e-4920-a9d2-6ce25863d0ae"
      }
    }
  }, {
    "fullUrl": "urn:uuid:d2a242b3-262e-4920-a9d2-6ce25863d0ae",
    "resource": {
      "resourceType": "Organization",
      "id": "d2a242b3-262e-4920-a9d2-6ce25863d0ae",
      "active": true,
      "type": [ {
        "text": "CST"
      } ],
      "name": "SCAS111"
    }
  }, {
    "fullUrl": "urn:uuid:ac45a766-2038-43fe-95b9-a39d24a3fe9a",
    "resource": {
      "resourceType": "Practitioner",
      "id": "ac45a766-2038-43fe-95b9-a39d24a3fe9a",
      "active": true,
      "name": [ {
        "use": "official",
        "family": "McDonald",
        "given": [ "Denzle" ]
      } ]
    }
  }, {
    "fullUrl": "urn:uuid:46cc8c0c-a843-4289-98ac-8e62c10a3fe3",
    "resource": {
      "resourceType": "Practitioner",
      "id": "46cc8c0c-a843-4289-98ac-8e62c10a3fe3",
      "active": true,
      "name": [ {
        "use": "official",
        "family": "Black",
        "given": [ "John" ]
      } ]
    }
  }, {
    "fullUrl": "urn:uuid:0b37a94c-e884-4c9e-a11f-a9e656c5fec3",
    "resource": {
      "resourceType": "Location",
      "id": "0b37a94c-e884-4c9e-a11f-a9e656c5fec3",
      "managingOrganization": {
        "reference": "urn:uuid:54b26927-f4b4-4b6d-a3c4-8f9b1c5abe73"
      }
    }
  }, {
    "fullUrl": "urn:uuid:54b26927-f4b4-4b6d-a3c4-8f9b1c5abe73",
    "resource": {
      "resourceType": "Organization",
      "id": "54b26927-f4b4-4b6d-a3c4-8f9b1c5abe73",
      "identifier": [ {
        "value": "J82633"
      } ],
      "type": [ {
        "text": "GP Practice"
      } ],
      "name": "The Riverside Partnership ( Riverside Kelsey)",
      "telecom": [ {
        "system": "phone",
        "value": "tel:01730892412",
        "use": "work"
      } ],
      "address": [ {
        "use": "work",
        "line": [ "Riverside Kelsey Surgery", "75 Station Road", "Liss", "Hampshire" ],
        "postalCode": "GU33 7AD"
      } ]
    }
  }, {
    "fullUrl": "urn:uuid:ada3a3e8-35bb-4abd-80e5-025c78b4e4de",
    "resource": {
      "resourceType": "Location",
      "id": "ada3a3e8-35bb-4abd-80e5-025c78b4e4de",
      "name": "Incident Location",
      "address": {
        "type": "physical",
        "line": [ "Hampshire Partnership NHS Trust", "Tatchbury Mount Hospital Horseshoe Drive", "Calmore", "Southampton", "Hampshire" ],
        "postalCode": "SO40 2RZ"
      }
    }
  }, {
    "fullUrl": "urn:uuid:7caa3374-a574-4530-9cbd-0dcb80b77303",
    "resource": {
      "resourceType": "Patient",
      "id": "7caa3374-a574-4530-9cbd-0dcb80b77303",
      "identifier": [ {
        "extension": [ {
          "url": "https://fhir.hl7.org.uk/STU3/StructureDefinition/Extension-CareConnect-NHSNumberVerificationStatus-1",
          "valueCodeableConcept": {
            "coding": [ {
              "system": "https://fhir.hl7.org.uk/STU3/StructureDefinition/Extension-CareConnect-NHSNumberVerificationStatus-1",
              "code": "01"
            } ]
          }
        } ],
        "system": "https://fhir.nhs.uk/Id/nhs-number",
        "value": "9990004951"
      } ],
      "active": true,
      "name": [ {
        "use": "official",
        "family": "Xxtestpatientdfae",
        "given": [ "Btl-Donotuse" ]
      } ],
      "telecom": [ {
        "system": "phone",
        "value": "tel:07948625625",
        "use": "home"
      }, {
        "system": "phone",
        "value": "tel:07948625625"
      } ],
      "gender": "female",
      "birthDate": "2015-04-01",
      "address": [ {
        "use": "home",
        "line": [ "Hampshire Partnership NHS Trust", "Tatchbury Mount Hospital Horseshoe Drive", "Calmore", "Southampton", "Hampshire" ],
        "postalCode": "SO40 2RZ"
      } ],
      "generalPractitioner": [ {
        "reference": "urn:uuid:a9dda1de-e061-4edb-b814-1aa2b324b159"
      } ]
    }
  }, {
    "fullUrl": "urn:uuid:a9dda1de-e061-4edb-b814-1aa2b324b159",
    "resource": {
      "resourceType": "Organization",
      "id": "a9dda1de-e061-4edb-b814-1aa2b324b159",
      "identifier": [ {
        "value": "J82633"
      } ],
      "type": [ {
        "text": "GP Practice"
      } ],
      "name": "The Riverside Partnership ( Riverside Kelsey)",
      "telecom": [ {
        "system": "phone",
        "value": "tel:01730892412",
        "use": "work"
      } ],
      "address": [ {
        "use": "work",
        "line": [ "Riverside Kelsey Surgery", "75 Station Road", "Liss", "Hampshire" ],
        "postalCode": "GU33 7AD"
      } ]
    }
  }, {
    "fullUrl": "urn:uuid:bbc2b2cc-a98c-4a1a-8de6-beb8bca568f7",
    "resource": {
      "resourceType": "HealthcareService",
      "id": "bbc2b2cc-a98c-4a1a-8de6-beb8bca568f7",
      "active": true,
      "providedBy": {
        "reference": "urn:uuid:5c2bda03-3f48-49fc-869e-ed5100f31291"
      },
      "location": [ {
        "reference": "urn:uuid:007b56c6-b8c8-434d-9ccb-deabb545c822"
      } ],
      "name": "Urgent Treatment Centre (GP led), Royal South Hants Hospital"
    }
  }, {
    "fullUrl": "urn:uuid:007b56c6-b8c8-434d-9ccb-deabb545c822",
    "resource": {
      "resourceType": "Location",
      "id": "007b56c6-b8c8-434d-9ccb-deabb545c822",
      "managingOrganization": {
        "reference": "urn:uuid:5c2bda03-3f48-49fc-869e-ed5100f31291"
      }
    }
  }, {
    "fullUrl": "urn:uuid:5c2bda03-3f48-49fc-869e-ed5100f31291",
    "resource": {
      "resourceType": "Organization",
      "id": "5c2bda03-3f48-49fc-869e-ed5100f31291",
      "identifier": [ {
        "value": "RSHSO14A"
      } ],
      "type": [ {
        "coding": [ {
          "code": "PRCP",
          "display": "Urgent Treatment Centre (GP led), Royal South Hants Hospital"
        } ]
      } ],
      "name": "Urgent Treatment Centre (GP led), Royal South Hants Hospital"
    }
  }, {
    "fullUrl": "urn:uuid:d9db7ae7-ed09-4c7a-bc89-321cf836e214",
    "resource": {
      "resourceType": "ReferralRequest",
      "id": "d9db7ae7-ed09-4c7a-bc89-321cf836e214",
      "status": "active",
      "intent": "plan",
      "priority": "routine",
      "subject": {
        "reference": "urn:uuid:7caa3374-a574-4530-9cbd-0dcb80b77303"
      },
      "context": {
        "reference": "urn:uuid:ca5352bb-1bed-45a2-ad05-34e7616af2e3"
      },
      "occurrencePeriod": {
        "start": "2022-05-05T07:31:35+00:00",
        "end": "2022-05-05T08:31:35+00:00"
      },
      "authoredOn": "2021-04-06T11:33:27+00:00",
      "requester": {
        "agent": {
          "reference": "urn:uuid:a788f23c-ff5e-48c0-9193-99c42d3355ec"
        },
        "onBehalfOf": {
          "reference": "urn:uuid:d2a242b3-262e-4920-a9d2-6ce25863d0ae"
        }
      },
      "recipient": [ {
        "reference": "urn:uuid:bbc2b2cc-a98c-4a1a-8de6-beb8bca568f7"
      } ],
      "reasonReference": [ {
        "reference": "urn:uuid:904e01e3-5d58-4bcc-9c13-26e3da504ffd"
      } ],
      "supportingInfo": [ {
        "reference": "urn:uuid:53a19524-50a8-4669-ba44-4dc099e8aa01"
      } ]
    }
  }, {
    "fullUrl": "urn:uuid:53a19524-50a8-4669-ba44-4dc099e8aa01",
    "resource": {
      "resourceType": "ProcedureRequest",
      "id": "53a19524-50a8-4669-ba44-4dc099e8aa01",
      "status": "active",
      "intent": "plan",
      "priority": "routine",
      "doNotPerform": false,
      "code": {
        "coding": [ {
          "system": "2.16.840.1.113883.2.1.3.2.4.17.325",
          "code": "Dx06",
          "display": "To contact a local service within 6 hours"
        } ]
      },
      "subject": {
        "reference": "urn:uuid:7caa3374-a574-4530-9cbd-0dcb80b77303"
      },
      "occurrencePeriod": {
        "start": "2022-05-05T07:31:35+00:00",
        "end": "2022-05-05T08:31:35+00:00"
      },
      "reasonReference": [ {
        "reference": "urn:uuid:904e01e3-5d58-4bcc-9c13-26e3da504ffd"
      } ]
    }
  }, {
    "fullUrl": "urn:uuid:90898daf-32c5-4d19-8bf6-03bdc0ccf97d",
    "resource": {
      "resourceType": "Composition",
      "id": "90898daf-32c5-4d19-8bf6-03bdc0ccf97d",
      "identifier": {
        "use": "usual",
        "value": "A8E3FB32-6805-4191-B071-EA540A9318CD"
      },
      "status": "final",
      "type": {
        "coding": [ {
          "system": "http://snomed.info/sct",
          "code": "371531000",
          "display": "Report of clinical encounter (record artifact)"
        } ]
      },
      "subject": {
        "reference": "urn:uuid:7caa3374-a574-4530-9cbd-0dcb80b77303"
      },
      "encounter": {
        "reference": "urn:uuid:ca5352bb-1bed-45a2-ad05-34e7616af2e3"
      },
      "date": "2021-04-06T11:33:35+00:00",
      "author": [ {
        "reference": "urn:uuid:ac45a766-2038-43fe-95b9-a39d24a3fe9a"
      } ],
      "title": "111 Report",
      "confidentiality": "N",
      "section": [ {
        "section": [ {
          "title": "Patient's Reported Condition",
          "text": {
            "status": "generated",
            "div": "<div xmlns=\"http://www.w3.org/1999/xhtml\">&lt;content&gt;Pharmacy ITK Testing&lt;/content&gt;\n                                                    &lt;br/&gt;</div>"
          }
        }, {
          "title": "Pathways Disposition",
          "text": {
            "status": "generated",
            "div": "<div xmlns=\"http://www.w3.org/1999/xhtml\">To contact a local service within 6 hours (Dx06)                                         &lt;br/&gt;\n                                                    &lt;br/&gt;                                         Selected service: Urgent Treatment Centre (GP led), Royal South Hant&lt;br/&gt;</div>"
          }
        }, {
          "title": "Consultation Summary",
          "text": {
            "status": "generated",
            "div": "<div xmlns=\"http://www.w3.org/1999/xhtml\">Illness&lt;br/&gt;Warm to touch&lt;br/&gt;Nausea without vomiting&lt;br/&gt;Abdominal pain also present&lt;br/&gt;Moderately severe pain&lt;br/&gt;Flank pain&lt;br/&gt;Fever at time of assessment or in last 12 hours&lt;br/&gt;</div>"
          }
        }, {
          "title": "Pathways Assessment",
          "text": {
            "status": "generated",
            "div": "<div xmlns=\"http://www.w3.org/1999/xhtml\">An injury or health problem was the reason for the contact.&lt;br/&gt;Heavy bleeding had not occurred in the previous 30 minutes.&lt;br/&gt;An illness or health problem was the main problem.&lt;br/&gt;User Comments: Pharmacy ITK Testing&lt;br/&gt;The individual was not fighting for breath.&lt;br/&gt;The main reason for the contact was not an allergic reaction, chest/upper back pain, recent fit/seizure, suicide attempt, new confusion or suspected stroke.&lt;br/&gt;The main reason for contact was not declared diabetic hypo/hyperglycaemia or ICD shock.&lt;br/&gt;The skin on the torso felt normal, warm or hot.&lt;br/&gt;Pathway selected - Vomiting and/or Nausea&lt;br/&gt;The individual had not vomited.&lt;br/&gt;The individual did not also have diarrhoea.&lt;br/&gt;The symptoms did not follow drinking alcohol.&lt;br/&gt;Abdominal pain was also present.&lt;br/&gt;The pain interfered with normal activity.&lt;br/&gt;The individual was able to carry out most or all normal activities.&lt;br/&gt;The individual had not ingested a harmful or toxic substance.&lt;br/&gt;There had been no black and tarry or red/maroon bowel motions.&lt;br/&gt;There was no new or worsening confusion.&lt;br/&gt;Breathing harder or faster when doing nothing was not described.&lt;br/&gt;There was no new shoulder tip pain or pain in the lower right abdomen.&lt;br/&gt;The individual had not been in constant pain for 4 hours or more.&lt;br/&gt;There was no previous history of diabetes.&lt;br/&gt;There was flank pain.&lt;br/&gt;There was a fever at the time of assessment or within the previous 12 hours.&lt;br/&gt;There was no new, widespread, red rash.&lt;br/&gt;Instructions given were: The individual needs to contact a local service within 6 hours.&lt;br/&gt;Directory of Services referral: Urgent Treatment Centre (GP led), Royal South Hants Hospital&lt;br/&gt;</div>"
          }
        }, {
          "title": "Advice Given",
          "text": {
            "status": "generated",
            "div": "<div xmlns=\"http://www.w3.org/1999/xhtml\">I will arrange for a clinician to contact the individual. I need to ask some further questions in order to determine the best way to do this.&lt;br/&gt;If there are any new symptoms, or if the condition gets worse, changes or you have any other concerns, call us back.&lt;br/&gt;\n                                                    &lt;br/&gt;</div>"
          }
        }, {
          "title": "Information And Advice Given"
        }, {
          "title": "Disposition",
          "text": {
            "status": "generated",
            "div": "<div xmlns=\"http://www.w3.org/1999/xhtml\">&lt;content&gt;To contact a local service within 6 hours&lt;br/&gt;\n                                                    &lt;/content&gt;\n                                                    &lt;br/&gt;\n                                                    &lt;br/&gt;</div>"
          }
        } ]
      }, {
        "title": "CarePlan",
        "entry": [ {
          "reference": "urn:uuid:ffdf0201-ec33-4824-a6f2-56eba7cdeeda"
        } ]
      }, {
        "title": "ReferralRequest",
        "entry": [ {
          "reference": "urn:uuid:d9db7ae7-ed09-4c7a-bc89-321cf836e214"
        } ]
      }, {
        "title": "QuestionnaireResponse",
        "entry": [ {
          "reference": "urn:uuid:4dfdcd0e-e2f9-4543-9f39-596f881acffb"
        } ]
      }, {
        "title": "QuestionnaireResponse",
        "entry": [ {
          "reference": "urn:uuid:af0d2fca-691e-46db-9039-7dd23bed23f7"
        } ]
      }, {
        "title": "QuestionnaireResponse",
        "entry": [ {
          "reference": "urn:uuid:e05fca9e-c785-44e5-bcd2-1ae8f6909007"
        } ]
      }, {
        "title": "QuestionnaireResponse",
        "entry": [ {
          "reference": "urn:uuid:0704314b-e760-40c3-a9af-15f205aeea85"
        } ]
      }, {
        "title": "QuestionnaireResponse",
        "entry": [ {
          "reference": "urn:uuid:40f4686e-4c85-41b9-b860-45ddaeea91aa"
        } ]
      }, {
        "title": "QuestionnaireResponse",
        "entry": [ {
          "reference": "urn:uuid:a531ee4b-5775-4a5d-9454-de5c6f716272"
        } ]
      }, {
        "title": "QuestionnaireResponse",
        "entry": [ {
          "reference": "urn:uuid:a6f30339-f701-4e8d-82d8-ac11672545d5"
        } ]
      }, {
        "title": "QuestionnaireResponse",
        "entry": [ {
          "reference": "urn:uuid:b3c8950f-5986-45b3-aeac-aeb67c11321b"
        } ]
      }, {
        "title": "QuestionnaireResponse",
        "entry": [ {
          "reference": "urn:uuid:cc6be4c5-e5de-46ab-8f41-3f28318c9466"
        } ]
      }, {
        "title": "QuestionnaireResponse",
        "entry": [ {
          "reference": "urn:uuid:da158118-87e6-40ce-96ae-9c4356e67526"
        } ]
      }, {
        "title": "QuestionnaireResponse",
        "entry": [ {
          "reference": "urn:uuid:69371e52-af53-4d8e-8a9b-4ebd5e0fdfab"
        } ]
      }, {
        "title": "QuestionnaireResponse",
        "entry": [ {
          "reference": "urn:uuid:3b8aa114-67b5-4ea1-8025-95fc0a865426"
        } ]
      }, {
        "title": "QuestionnaireResponse",
        "entry": [ {
          "reference": "urn:uuid:85eaac36-6143-4e01-a1db-a20d288ee200"
        } ]
      }, {
        "title": "QuestionnaireResponse",
        "entry": [ {
          "reference": "urn:uuid:436b8eee-d4ac-4bfa-b45f-ae76c6bcf6e8"
        } ]
      }, {
        "title": "QuestionnaireResponse",
        "entry": [ {
          "reference": "urn:uuid:6c5f2b85-b8e6-45f8-a77d-040ba2ac057a"
        } ]
      }, {
        "title": "QuestionnaireResponse",
        "entry": [ {
          "reference": "urn:uuid:eea98210-8a28-4035-a1a9-70919032d6f9"
        } ]
      }, {
        "title": "QuestionnaireResponse",
        "entry": [ {
          "reference": "urn:uuid:78a3ec5a-8bb2-4435-8315-c68465f212ea"
        } ]
      }, {
        "title": "QuestionnaireResponse",
        "entry": [ {
          "reference": "urn:uuid:1675df09-ff6f-4c00-ae79-298d4b6f65fd"
        } ]
      }, {
        "title": "QuestionnaireResponse",
        "entry": [ {
          "reference": "urn:uuid:e2c4e9af-bf14-4358-84bf-7089f3bfcbb6"
        } ]
      }, {
        "title": "QuestionnaireResponse",
        "entry": [ {
          "reference": "urn:uuid:946e3df7-268c-4120-b37c-25ec2c4a74d8"
        } ]
      }, {
        "title": "QuestionnaireResponse",
        "entry": [ {
          "reference": "urn:uuid:4e1680eb-29f7-47c8-86f6-1544c4d1cb13"
        } ]
      }, {
        "title": "QuestionnaireResponse",
        "entry": [ {
          "reference": "urn:uuid:1e5495eb-583d-42ec-8678-7bd174eab0f2"
        } ]
      }, {
        "title": "QuestionnaireResponse",
        "entry": [ {
          "reference": "urn:uuid:8082b984-54bd-4958-8be0-3f4382222ee0"
        } ]
      }, {
        "title": "QuestionnaireResponse",
        "entry": [ {
          "reference": "urn:uuid:01024c16-498f-4e77-a29e-de63c191d28e"
        } ]
      }, {
        "title": "QuestionnaireResponse",
        "entry": [ {
          "reference": "urn:uuid:4b130a6e-f5de-47b3-870e-419049a021fa"
        } ]
      }, {
        "title": "QuestionnaireResponse",
        "entry": [ {
          "reference": "urn:uuid:e784166e-c43f-46b9-ba18-c6e50ec2c49b"
        } ]
      }, {
        "title": "QuestionnaireResponse",
        "entry": [ {
          "reference": "urn:uuid:524b9023-cce0-4c32-b271-e3a0b2f56748"
        } ]
      }, {
        "title": "QuestionnaireResponse",
        "entry": [ {
          "reference": "urn:uuid:ac13272e-4f19-4b8a-8983-f4fb72e90594"
        } ]
      }, {
        "title": "QuestionnaireResponse",
        "entry": [ {
          "reference": "urn:uuid:1921dab6-d1f7-4454-b3cc-88e943a8afed"
        } ]
      }, {
        "title": "QuestionnaireResponse",
        "entry": [ {
          "reference": "urn:uuid:1fe3bdd2-98ec-4dd5-80dd-c1feddd6a03e"
        } ]
      }, {
        "title": "QuestionnaireResponse",
        "entry": [ {
          "reference": "urn:uuid:d3b0d0da-7937-4a02-974c-cf46b51144ec"
        } ]
      }, {
        "title": "QuestionnaireResponse",
        "entry": [ {
          "reference": "urn:uuid:a0ebed66-b3de-42a4-bb68-2c7feeef3769"
        } ]
      }, {
        "title": "QuestionnaireResponse",
        "entry": [ {
          "reference": "urn:uuid:9b3c98fc-fb8b-4314-b590-013dbafc389a"
        } ]
      }, {
        "title": "QuestionnaireResponse",
        "entry": [ {
          "reference": "urn:uuid:0e233c03-4fe5-4600-9c3f-aa4c8305f19f"
        } ]
      }, {
        "title": "QuestionnaireResponse",
        "entry": [ {
          "reference": "urn:uuid:f72fe83d-9aa8-4ab5-a2f4-27a7c411357e"
        } ]
      }, {
        "title": "QuestionnaireResponse",
        "entry": [ {
          "reference": "urn:uuid:a49437dc-e219-4e1e-9407-cc8f11374c85"
        } ]
      }, {
        "title": "QuestionnaireResponse",
        "entry": [ {
          "reference": "urn:uuid:d2ca1395-ddeb-4c09-a702-3d8e60b12f9d"
        } ]
      }, {
        "title": "QuestionnaireResponse",
        "entry": [ {
          "reference": "urn:uuid:fdd46f5f-2fab-4c40-9d16-f56db9f35d62"
        } ]
      }, {
        "title": "QuestionnaireResponse",
        "entry": [ {
          "reference": "urn:uuid:44c75c91-3069-40ca-91bb-17ff317c6a73"
        } ]
      }, {
        "title": "QuestionnaireResponse",
        "entry": [ {
          "reference": "urn:uuid:35d50c78-8e9a-45bd-a6c9-09bed8692888"
        } ]
      }, {
        "title": "QuestionnaireResponse",
        "entry": [ {
          "reference": "urn:uuid:953e75e1-ae19-4d78-8b65-333d07bdf9d5"
        } ]
      }, {
        "title": "QuestionnaireResponse",
        "entry": [ {
          "reference": "urn:uuid:477b211d-1d85-453d-92ea-f89dcd5bce72"
        } ]
      }, {
        "title": "QuestionnaireResponse",
        "entry": [ {
          "reference": "urn:uuid:28280b12-6d46-4162-b350-b124e98cbc05"
        } ]
      }, {
        "title": "QuestionnaireResponse",
        "entry": [ {
          "reference": "urn:uuid:cfc7d678-b95c-4f1f-9f5d-f0a0709c15b4"
        } ]
      }, {
        "title": "QuestionnaireResponse",
        "entry": [ {
          "reference": "urn:uuid:6cf8244e-1b4c-45a2-b3a6-a5bea49430eb"
        } ]
      }, {
        "title": "QuestionnaireResponse",
        "entry": [ {
          "reference": "urn:uuid:bbbdcf87-8c4d-420d-a77a-5446254f4b23"
        } ]
      }, {
        "title": "QuestionnaireResponse",
        "entry": [ {
          "reference": "urn:uuid:ed4d248b-0569-461c-aefb-d4d0c0179db9"
        } ]
      }, {
        "title": "QuestionnaireResponse",
        "entry": [ {
          "reference": "urn:uuid:0644bac4-5fd3-4d21-a1c5-304b850dde65"
        } ]
      }, {
        "title": "QuestionnaireResponse",
        "entry": [ {
          "reference": "urn:uuid:95e46bea-7060-475a-94bb-81b3a0cd7457"
        } ]
      }, {
        "title": "QuestionnaireResponse",
        "entry": [ {
          "reference": "urn:uuid:112c0118-79f8-4603-be52-c3672ae008b4"
        } ]
      }, {
        "title": "QuestionnaireResponse",
        "entry": [ {
          "reference": "urn:uuid:61d3275e-d80d-4fea-ab1a-5918af06b707"
        } ]
      }, {
        "title": "QuestionnaireResponse",
        "entry": [ {
          "reference": "urn:uuid:98d9f5b3-1c28-4f89-bca6-d05533819318"
        } ]
      }, {
        "title": "QuestionnaireResponse",
        "entry": [ {
          "reference": "urn:uuid:38efe7d6-843d-4c3c-a812-f24cba4c0aa2"
        } ]
      }, {
        "title": "QuestionnaireResponse",
        "entry": [ {
          "reference": "urn:uuid:c572981e-63a7-4b94-9101-aeb32f038347"
        } ]
      }, {
        "title": "QuestionnaireResponse",
        "entry": [ {
          "reference": "urn:uuid:d1f6c11d-cc13-4340-b367-f9a88ce8dcbd"
        } ]
      }, {
        "title": "QuestionnaireResponse",
        "entry": [ {
          "reference": "urn:uuid:d0fc4739-40ed-417b-a034-1c271cbf6b27"
        } ]
      }, {
        "title": "QuestionnaireResponse",
        "entry": [ {
          "reference": "urn:uuid:2a005118-3931-452e-a4a0-a41ee670a601"
        } ]
      }, {
        "title": "QuestionnaireResponse",
        "entry": [ {
          "reference": "urn:uuid:91a28d2c-220f-4f9b-920d-506a54386fe6"
        } ]
      }, {
        "title": "QuestionnaireResponse",
        "entry": [ {
          "reference": "urn:uuid:70cdcfeb-8142-438b-804e-f8bdf47f0797"
        } ]
      }, {
        "title": "QuestionnaireResponse",
        "entry": [ {
          "reference": "urn:uuid:c9dbf0ee-4a12-411a-93de-e5b581edbb8d"
        } ]
      }, {
        "title": "QuestionnaireResponse",
        "entry": [ {
          "reference": "urn:uuid:b4ddca8f-2d84-4e3b-ba85-45c0a281f5d0"
        } ]
      }, {
        "title": "QuestionnaireResponse",
        "entry": [ {
          "reference": "urn:uuid:b7e4f35a-02cf-4095-a318-3d2a78e51758"
        } ]
      }, {
        "title": "QuestionnaireResponse",
        "entry": [ {
          "reference": "urn:uuid:54334a57-dc53-42f1-b499-889a2b3229ac"
        } ]
      }, {
        "title": "QuestionnaireResponse",
        "entry": [ {
          "reference": "urn:uuid:239de084-57dc-4543-a0d6-ebbc7e9e6fb6"
        } ]
      }, {
        "title": "QuestionnaireResponse",
        "entry": [ {
          "reference": "urn:uuid:037762bd-1a88-4f8a-9e83-ba17f64fbd47"
        } ]
      }, {
        "title": "QuestionnaireResponse",
        "entry": [ {
          "reference": "urn:uuid:e6af3125-52dc-48f3-ac54-a57a04ee3213"
        } ]
      }, {
        "title": "QuestionnaireResponse",
        "entry": [ {
          "reference": "urn:uuid:44f73417-b49f-4df3-af63-bcf7263fbe5a"
        } ]
      }, {
        "title": "QuestionnaireResponse",
        "entry": [ {
          "reference": "urn:uuid:5c1066a7-3000-4dbd-bf92-6f27d3cca344"
        } ]
      }, {
        "title": "QuestionnaireResponse",
        "entry": [ {
          "reference": "urn:uuid:960c6cb6-1fa0-4a48-95c9-f77fd3e92c5b"
        } ]
      }, {
        "title": "QuestionnaireResponse",
        "entry": [ {
          "reference": "urn:uuid:79fd4f01-2110-48b7-a766-30c03ce1e879"
        } ]
      }, {
        "title": "QuestionnaireResponse",
        "entry": [ {
          "reference": "urn:uuid:9c5cbd0f-eec0-4f4b-9827-5ddc8e932cf3"
        } ]
      }, {
        "title": "QuestionnaireResponse",
        "entry": [ {
          "reference": "urn:uuid:f70a8f27-9355-412a-a128-82d9c2ffd68f"
        } ]
      }, {
        "title": "QuestionnaireResponse",
        "entry": [ {
          "reference": "urn:uuid:1608da41-3ddd-4d94-9b7a-248a39f48d76"
        } ]
      } ]
    }
  }, {
    "fullUrl": "urn:uuid:ffdf0201-ec33-4824-a6f2-56eba7cdeeda",
    "resource": {
      "resourceType": "CarePlan",
      "id": "ffdf0201-ec33-4824-a6f2-56eba7cdeeda",
      "status": "completed",
      "intent": "plan",
      "title": "Information And Advice Given",
      "subject": {
        "reference": "urn:uuid:7caa3374-a574-4530-9cbd-0dcb80b77303"
      },
      "context": {
        "reference": "urn:uuid:ca5352bb-1bed-45a2-ad05-34e7616af2e3"
      },
      "period": {
        "start": "2021-04-06T11:33:35+00:00"
      },
      "author": [ {
        "reference": "urn:uuid:54b26927-f4b4-4b6d-a3c4-8f9b1c5abe73"
      } ],
      "addresses": [ {
        "reference": "urn:uuid:904e01e3-5d58-4bcc-9c13-26e3da504ffd"
      } ]
    }
  }, {
    "fullUrl": "urn:uuid:2f109f2d-90c2-4b2b-8c3d-ad50d3baea3b",
    "resource": {
      "resourceType": "Consent",
      "id": "2f109f2d-90c2-4b2b-8c3d-ad50d3baea3b",
      "identifier": {
        "use": "usual",
        "value": "A8E3FB32-6805-4191-B071-EA540A9318CD"
      },
      "status": "active",
      "patient": {
        "reference": "urn:uuid:7caa3374-a574-4530-9cbd-0dcb80b77303"
      },
      "period": {
        "start": "2021-04-06T11:33:35+00:00"
      },
      "consentingParty": [ {
        "reference": "urn:uuid:7caa3374-a574-4530-9cbd-0dcb80b77303"
      } ],
      "action": [ {
        "coding": [ {
          "system": "http://snomed.info/sct",
          "code": "425691002",
          "display": "Consent given for electronic record sharing"
        } ],
        "text": "Consent given for electronic record sharing"
      } ],
      "organization": [ {
        "reference": "urn:uuid:d2a242b3-262e-4920-a9d2-6ce25863d0ae"
      } ],
      "policyRule": "http://hl7.org/fhir/ConsentPolicy/opt-out",
      "data": [ {
        "meaning": "related",
        "reference": {
          "reference": "urn:uuid:ca5352bb-1bed-45a2-ad05-34e7616af2e3"
        }
      } ]
    }
  }, {
    "fullUrl": "urn:uuid:904e01e3-5d58-4bcc-9c13-26e3da504ffd",
    "resource": {
      "resourceType": "Condition",
      "id": "904e01e3-5d58-4bcc-9c13-26e3da504ffd",
      "clinicalStatus": "active",
      "verificationStatus": "unknown",
      "subject": {
        "reference": "urn:uuid:7caa3374-a574-4530-9cbd-0dcb80b77303"
      },
      "context": {
        "reference": "urn:uuid:ca5352bb-1bed-45a2-ad05-34e7616af2e3"
      },
      "evidence": [ {
        "detail": [ {
          "reference": "urn:uuid:4dfdcd0e-e2f9-4543-9f39-596f881acffb"
        } ]
      }, {
        "detail": [ {
          "reference": "urn:uuid:af0d2fca-691e-46db-9039-7dd23bed23f7"
        } ]
      }, {
        "detail": [ {
          "reference": "urn:uuid:e05fca9e-c785-44e5-bcd2-1ae8f6909007"
        } ]
      }, {
        "detail": [ {
          "reference": "urn:uuid:0704314b-e760-40c3-a9af-15f205aeea85"
        } ]
      }, {
        "detail": [ {
          "reference": "urn:uuid:40f4686e-4c85-41b9-b860-45ddaeea91aa"
        } ]
      }, {
        "detail": [ {
          "reference": "urn:uuid:a531ee4b-5775-4a5d-9454-de5c6f716272"
        } ]
      }, {
        "detail": [ {
          "reference": "urn:uuid:a6f30339-f701-4e8d-82d8-ac11672545d5"
        } ]
      }, {
        "detail": [ {
          "reference": "urn:uuid:b3c8950f-5986-45b3-aeac-aeb67c11321b"
        } ]
      }, {
        "detail": [ {
          "reference": "urn:uuid:cc6be4c5-e5de-46ab-8f41-3f28318c9466"
        } ]
      }, {
        "detail": [ {
          "reference": "urn:uuid:da158118-87e6-40ce-96ae-9c4356e67526"
        } ]
      }, {
        "detail": [ {
          "reference": "urn:uuid:69371e52-af53-4d8e-8a9b-4ebd5e0fdfab"
        } ]
      }, {
        "detail": [ {
          "reference": "urn:uuid:3b8aa114-67b5-4ea1-8025-95fc0a865426"
        } ]
      }, {
        "detail": [ {
          "reference": "urn:uuid:85eaac36-6143-4e01-a1db-a20d288ee200"
        } ]
      }, {
        "detail": [ {
          "reference": "urn:uuid:436b8eee-d4ac-4bfa-b45f-ae76c6bcf6e8"
        } ]
      }, {
        "detail": [ {
          "reference": "urn:uuid:6c5f2b85-b8e6-45f8-a77d-040ba2ac057a"
        } ]
      }, {
        "detail": [ {
          "reference": "urn:uuid:eea98210-8a28-4035-a1a9-70919032d6f9"
        } ]
      }, {
        "detail": [ {
          "reference": "urn:uuid:78a3ec5a-8bb2-4435-8315-c68465f212ea"
        } ]
      }, {
        "detail": [ {
          "reference": "urn:uuid:1675df09-ff6f-4c00-ae79-298d4b6f65fd"
        } ]
      }, {
        "detail": [ {
          "reference": "urn:uuid:e2c4e9af-bf14-4358-84bf-7089f3bfcbb6"
        } ]
      }, {
        "detail": [ {
          "reference": "urn:uuid:946e3df7-268c-4120-b37c-25ec2c4a74d8"
        } ]
      }, {
        "detail": [ {
          "reference": "urn:uuid:4e1680eb-29f7-47c8-86f6-1544c4d1cb13"
        } ]
      }, {
        "detail": [ {
          "reference": "urn:uuid:1e5495eb-583d-42ec-8678-7bd174eab0f2"
        } ]
      }, {
        "detail": [ {
          "reference": "urn:uuid:8082b984-54bd-4958-8be0-3f4382222ee0"
        } ]
      }, {
        "detail": [ {
          "reference": "urn:uuid:01024c16-498f-4e77-a29e-de63c191d28e"
        } ]
      }, {
        "detail": [ {
          "reference": "urn:uuid:4b130a6e-f5de-47b3-870e-419049a021fa"
        } ]
      }, {
        "detail": [ {
          "reference": "urn:uuid:e784166e-c43f-46b9-ba18-c6e50ec2c49b"
        } ]
      }, {
        "detail": [ {
          "reference": "urn:uuid:524b9023-cce0-4c32-b271-e3a0b2f56748"
        } ]
      }, {
        "detail": [ {
          "reference": "urn:uuid:ac13272e-4f19-4b8a-8983-f4fb72e90594"
        } ]
      }, {
        "detail": [ {
          "reference": "urn:uuid:1921dab6-d1f7-4454-b3cc-88e943a8afed"
        } ]
      }, {
        "detail": [ {
          "reference": "urn:uuid:1fe3bdd2-98ec-4dd5-80dd-c1feddd6a03e"
        } ]
      }, {
        "detail": [ {
          "reference": "urn:uuid:d3b0d0da-7937-4a02-974c-cf46b51144ec"
        } ]
      }, {
        "detail": [ {
          "reference": "urn:uuid:a0ebed66-b3de-42a4-bb68-2c7feeef3769"
        } ]
      }, {
        "detail": [ {
          "reference": "urn:uuid:9b3c98fc-fb8b-4314-b590-013dbafc389a"
        } ]
      }, {
        "detail": [ {
          "reference": "urn:uuid:0e233c03-4fe5-4600-9c3f-aa4c8305f19f"
        } ]
      }, {
        "detail": [ {
          "reference": "urn:uuid:f72fe83d-9aa8-4ab5-a2f4-27a7c411357e"
        } ]
      }, {
        "detail": [ {
          "reference": "urn:uuid:a49437dc-e219-4e1e-9407-cc8f11374c85"
        } ]
      }, {
        "detail": [ {
          "reference": "urn:uuid:d2ca1395-ddeb-4c09-a702-3d8e60b12f9d"
        } ]
      }, {
        "detail": [ {
          "reference": "urn:uuid:fdd46f5f-2fab-4c40-9d16-f56db9f35d62"
        } ]
      }, {
        "detail": [ {
          "reference": "urn:uuid:44c75c91-3069-40ca-91bb-17ff317c6a73"
        } ]
      }, {
        "detail": [ {
          "reference": "urn:uuid:35d50c78-8e9a-45bd-a6c9-09bed8692888"
        } ]
      }, {
        "detail": [ {
          "reference": "urn:uuid:953e75e1-ae19-4d78-8b65-333d07bdf9d5"
        } ]
      }, {
        "detail": [ {
          "reference": "urn:uuid:477b211d-1d85-453d-92ea-f89dcd5bce72"
        } ]
      }, {
        "detail": [ {
          "reference": "urn:uuid:28280b12-6d46-4162-b350-b124e98cbc05"
        } ]
      }, {
        "detail": [ {
          "reference": "urn:uuid:cfc7d678-b95c-4f1f-9f5d-f0a0709c15b4"
        } ]
      }, {
        "detail": [ {
          "reference": "urn:uuid:6cf8244e-1b4c-45a2-b3a6-a5bea49430eb"
        } ]
      }, {
        "detail": [ {
          "reference": "urn:uuid:bbbdcf87-8c4d-420d-a77a-5446254f4b23"
        } ]
      }, {
        "detail": [ {
          "reference": "urn:uuid:ed4d248b-0569-461c-aefb-d4d0c0179db9"
        } ]
      }, {
        "detail": [ {
          "reference": "urn:uuid:0644bac4-5fd3-4d21-a1c5-304b850dde65"
        } ]
      }, {
        "detail": [ {
          "reference": "urn:uuid:95e46bea-7060-475a-94bb-81b3a0cd7457"
        } ]
      }, {
        "detail": [ {
          "reference": "urn:uuid:112c0118-79f8-4603-be52-c3672ae008b4"
        } ]
      }, {
        "detail": [ {
          "reference": "urn:uuid:61d3275e-d80d-4fea-ab1a-5918af06b707"
        } ]
      }, {
        "detail": [ {
          "reference": "urn:uuid:98d9f5b3-1c28-4f89-bca6-d05533819318"
        } ]
      }, {
        "detail": [ {
          "reference": "urn:uuid:38efe7d6-843d-4c3c-a812-f24cba4c0aa2"
        } ]
      }, {
        "detail": [ {
          "reference": "urn:uuid:c572981e-63a7-4b94-9101-aeb32f038347"
        } ]
      }, {
        "detail": [ {
          "reference": "urn:uuid:d1f6c11d-cc13-4340-b367-f9a88ce8dcbd"
        } ]
      }, {
        "detail": [ {
          "reference": "urn:uuid:d0fc4739-40ed-417b-a034-1c271cbf6b27"
        } ]
      }, {
        "detail": [ {
          "reference": "urn:uuid:2a005118-3931-452e-a4a0-a41ee670a601"
        } ]
      }, {
        "detail": [ {
          "reference": "urn:uuid:91a28d2c-220f-4f9b-920d-506a54386fe6"
        } ]
      }, {
        "detail": [ {
          "reference": "urn:uuid:70cdcfeb-8142-438b-804e-f8bdf47f0797"
        } ]
      }, {
        "detail": [ {
          "reference": "urn:uuid:c9dbf0ee-4a12-411a-93de-e5b581edbb8d"
        } ]
      }, {
        "detail": [ {
          "reference": "urn:uuid:b4ddca8f-2d84-4e3b-ba85-45c0a281f5d0"
        } ]
      }, {
        "detail": [ {
          "reference": "urn:uuid:b7e4f35a-02cf-4095-a318-3d2a78e51758"
        } ]
      }, {
        "detail": [ {
          "reference": "urn:uuid:54334a57-dc53-42f1-b499-889a2b3229ac"
        } ]
      }, {
        "detail": [ {
          "reference": "urn:uuid:239de084-57dc-4543-a0d6-ebbc7e9e6fb6"
        } ]
      }, {
        "detail": [ {
          "reference": "urn:uuid:037762bd-1a88-4f8a-9e83-ba17f64fbd47"
        } ]
      }, {
        "detail": [ {
          "reference": "urn:uuid:e6af3125-52dc-48f3-ac54-a57a04ee3213"
        } ]
      }, {
        "detail": [ {
          "reference": "urn:uuid:44f73417-b49f-4df3-af63-bcf7263fbe5a"
        } ]
      }, {
        "detail": [ {
          "reference": "urn:uuid:5c1066a7-3000-4dbd-bf92-6f27d3cca344"
        } ]
      }, {
        "detail": [ {
          "reference": "urn:uuid:960c6cb6-1fa0-4a48-95c9-f77fd3e92c5b"
        } ]
      }, {
        "detail": [ {
          "reference": "urn:uuid:79fd4f01-2110-48b7-a766-30c03ce1e879"
        } ]
      }, {
        "detail": [ {
          "reference": "urn:uuid:9c5cbd0f-eec0-4f4b-9827-5ddc8e932cf3"
        } ]
      }, {
        "detail": [ {
          "reference": "urn:uuid:f70a8f27-9355-412a-a128-82d9c2ffd68f"
        } ]
      }, {
        "detail": [ {
          "reference": "urn:uuid:1608da41-3ddd-4d94-9b7a-248a39f48d76"
        } ]
      } ]
    }
  }, {
    "fullUrl": "urn:uuid:4dfdcd0e-e2f9-4543-9f39-596f881acffb",
    "resource": {
      "resourceType": "QuestionnaireResponse",
      "id": "4dfdcd0e-e2f9-4543-9f39-596f881acffb",
      "identifier": {
        "value": "59132"
      },
      "questionnaire": {
        "reference": "urn:uuid:1a45ed2b-90d5-4af1-83a8-b8ea22bb293c"
      },
      "status": "completed",
      "subject": {
        "reference": "urn:uuid:7caa3374-a574-4530-9cbd-0dcb80b77303"
      },
      "context": {
        "reference": "urn:uuid:ca5352bb-1bed-45a2-ad05-34e7616af2e3"
      },
      "authored": "2021-04-06T11:33:34+00:00",
      "item": [ {
        "linkId": "Tx220074",
        "text": "What is the reason for the contact?",
        "answer": [ {
          "valueString": "an injury or other health problem"
        } ]
      } ]
    }
  }, {
    "fullUrl": "urn:uuid:1a45ed2b-90d5-4af1-83a8-b8ea22bb293c",
    "resource": {
      "resourceType": "Questionnaire",
      "id": "1a45ed2b-90d5-4af1-83a8-b8ea22bb293c",
      "identifier": [ {
        "value": "59132"
      } ],
      "version": "2021-04-06T11:33:34.963Z",
      "status": "active",
      "experimental": false,
      "date": "2021-04-06T11:33:34+00:00",
      "publisher": "User ID: 'MCDONALDD' User name: 'Denzle McDonald' User skill set: 'T3'",
      "lastReviewDate": "2021-04-06",
      "subjectType": [ "Patient" ],
      "item": [ {
        "linkId": "59132",
        "prefix": "5",
        "text": "What is the reason for the contact?",
        "type": "choice",
        "required": true,
        "repeats": false,
        "option": [ {
          "valueString": "an injury or other health problem, Selected: true"
        }, {
          "valueString": "labour or childbirth, Selected: false"
        }, {
          "valueString": "a need to access another healthcare service, Selected: false"
        }, {
          "valueString": "a healthcare professional requesting contact with another clinician, Selected: false"
        }, {
          "valueString": "a report of results or tests, Selected: false"
        }, {
          "valueString": "a possible failure of contraception, Selected: false"
        }, {
          "valueString": "more, Selected: false"
        } ]
      } ]
    }
  }, {
    "fullUrl": "urn:uuid:af0d2fca-691e-46db-9039-7dd23bed23f7",
    "resource": {
      "resourceType": "QuestionnaireResponse",
      "id": "af0d2fca-691e-46db-9039-7dd23bed23f7",
      "identifier": {
        "value": "59132"
      },
      "questionnaire": {
        "reference": "urn:uuid:ad1bcdde-a571-4b5d-8361-f413c0e140e2"
      },
      "status": "completed",
      "subject": {
        "reference": "urn:uuid:7caa3374-a574-4530-9cbd-0dcb80b77303"
      },
      "context": {
        "reference": "urn:uuid:ca5352bb-1bed-45a2-ad05-34e7616af2e3"
      },
      "authored": "2021-04-06T11:33:34+00:00",
      "item": [ {
        "linkId": "Tx221807",
        "text": "STRING:to'Immediatethreatstolife(SPA/OOHversion)'-'Majorbloodloss'stem",
        "answer": [ {
          "valueString": "\"present\""
        } ]
      } ]
    }
  }, {
    "fullUrl": "urn:uuid:ad1bcdde-a571-4b5d-8361-f413c0e140e2",
    "resource": {
      "resourceType": "Questionnaire",
      "id": "ad1bcdde-a571-4b5d-8361-f413c0e140e2",
      "identifier": [ {
        "value": "59132"
      } ],
      "version": "2021-04-06T11:33:34.963Z",
      "status": "active",
      "experimental": false,
      "date": "2021-04-06T11:33:34+00:00",
      "publisher": "User ID: 'MCDONALDD' User name: 'Denzle McDonald' User skill set: 'T3'",
      "lastReviewDate": "2021-04-06",
      "subjectType": [ "Patient" ],
      "item": [ {
        "linkId": "59132",
        "prefix": "400",
        "text": "STRING:to'Immediatethreatstolife(SPA/OOHversion)'-'Majorbloodloss'stem",
        "type": "choice",
        "required": true,
        "repeats": false,
        "option": [ {
          "valueString": "\"present\", Selected: true"
        } ]
      } ]
    }
  }, {
    "fullUrl": "urn:uuid:e05fca9e-c785-44e5-bcd2-1ae8f6909007",
    "resource": {
      "resourceType": "QuestionnaireResponse",
      "id": "e05fca9e-c785-44e5-bcd2-1ae8f6909007",
      "identifier": {
        "value": "59132"
      },
      "questionnaire": {
        "reference": "urn:uuid:e5281e9e-76c4-44a9-b177-bd3ee2a40774"
      },
      "status": "completed",
      "subject": {
        "reference": "urn:uuid:7caa3374-a574-4530-9cbd-0dcb80b77303"
      },
      "context": {
        "reference": "urn:uuid:ca5352bb-1bed-45a2-ad05-34e7616af2e3"
      },
      "authored": "2021-04-06T11:33:34+00:00"
    }
  }, {
    "fullUrl": "urn:uuid:e5281e9e-76c4-44a9-b177-bd3ee2a40774",
    "resource": {
      "resourceType": "Questionnaire",
      "id": "e5281e9e-76c4-44a9-b177-bd3ee2a40774",
      "identifier": [ {
        "value": "59132"
      } ],
      "version": "2021-04-06T11:33:34.963Z",
      "status": "active",
      "experimental": false,
      "date": "2021-04-06T11:33:34+00:00",
      "publisher": "User ID: 'MCDONALDD' User name: 'Denzle McDonald' User skill set: 'T3'",
      "lastReviewDate": "2021-04-06",
      "subjectType": [ "Patient" ]
    }
  }, {
    "fullUrl": "urn:uuid:0704314b-e760-40c3-a9af-15f205aeea85",
    "resource": {
      "resourceType": "QuestionnaireResponse",
      "id": "0704314b-e760-40c3-a9af-15f205aeea85",
      "identifier": {
        "value": "59132"
      },
      "questionnaire": {
        "reference": "urn:uuid:fff66f93-5fc0-4fa8-9398-bf3b8e253a6b"
      },
      "status": "completed",
      "subject": {
        "reference": "urn:uuid:7caa3374-a574-4530-9cbd-0dcb80b77303"
      },
      "context": {
        "reference": "urn:uuid:ca5352bb-1bed-45a2-ad05-34e7616af2e3"
      },
      "authored": "2021-04-06T11:33:34+00:00",
      "item": [ {
        "linkId": "Tx221799",
        "text": "STRING:injury,illnessorlabourestablishedinEntryFlow",
        "answer": [ {
          "valueString": "\"present\""
        } ]
      } ]
    }
  }, {
    "fullUrl": "urn:uuid:fff66f93-5fc0-4fa8-9398-bf3b8e253a6b",
    "resource": {
      "resourceType": "Questionnaire",
      "id": "fff66f93-5fc0-4fa8-9398-bf3b8e253a6b",
      "identifier": [ {
        "value": "59132"
      } ],
      "version": "2021-04-06T11:33:34.963Z",
      "status": "active",
      "experimental": false,
      "date": "2021-04-06T11:33:34+00:00",
      "publisher": "User ID: 'MCDONALDD' User name: 'Denzle McDonald' User skill set: 'T3'",
      "lastReviewDate": "2021-04-06",
      "subjectType": [ "Patient" ],
      "item": [ {
        "linkId": "59132",
        "prefix": "0",
        "text": "STRING:injury,illnessorlabourestablishedinEntryFlow",
        "type": "choice",
        "required": true,
        "repeats": false,
        "option": [ {
          "valueString": "\"present\", Selected: true"
        } ]
      } ]
    }
  }, {
    "fullUrl": "urn:uuid:40f4686e-4c85-41b9-b860-45ddaeea91aa",
    "resource": {
      "resourceType": "QuestionnaireResponse",
      "id": "40f4686e-4c85-41b9-b860-45ddaeea91aa",
      "identifier": {
        "value": "59132"
      },
      "questionnaire": {
        "reference": "urn:uuid:7aeadaa7-2c85-469b-b0a9-a8b975b8af29"
      },
      "status": "completed",
      "subject": {
        "reference": "urn:uuid:7caa3374-a574-4530-9cbd-0dcb80b77303"
      },
      "context": {
        "reference": "urn:uuid:ca5352bb-1bed-45a2-ad05-34e7616af2e3"
      },
      "authored": "2021-04-06T11:33:34+00:00",
      "item": [ {
        "linkId": "Tx221421",
        "text": "Have you been bleeding RED BLOOD very heavily IN THE LAST 30 MINUTES?",
        "answer": [ {
          "valueString": "no"
        } ]
      } ]
    }
  }, {
    "fullUrl": "urn:uuid:7aeadaa7-2c85-469b-b0a9-a8b975b8af29",
    "resource": {
      "resourceType": "Questionnaire",
      "id": "7aeadaa7-2c85-469b-b0a9-a8b975b8af29",
      "identifier": [ {
        "value": "59132"
      } ],
      "version": "2021-04-06T11:33:34.963Z",
      "status": "active",
      "experimental": false,
      "date": "2021-04-06T11:33:34+00:00",
      "publisher": "User ID: 'MCDONALDD' User name: 'Denzle McDonald' User skill set: 'T3'",
      "lastReviewDate": "2021-04-06",
      "subjectType": [ "Patient" ],
      "item": [ {
        "linkId": "59132",
        "prefix": "200",
        "text": "Have you been bleeding RED BLOOD very heavily IN THE LAST 30 MINUTES?",
        "type": "choice",
        "required": true,
        "repeats": false,
        "option": [ {
          "valueString": "yes, Selected: false"
        }, {
          "valueString": "not sure, Selected: false"
        }, {
          "valueString": "no, Selected: true"
        } ]
      } ]
    }
  }, {
    "fullUrl": "urn:uuid:a531ee4b-5775-4a5d-9454-de5c6f716272",
    "resource": {
      "resourceType": "QuestionnaireResponse",
      "id": "a531ee4b-5775-4a5d-9454-de5c6f716272",
      "identifier": {
        "value": "59132"
      },
      "questionnaire": {
        "reference": "urn:uuid:0d898b6b-40ab-4d55-8051-e10668bcbbf9"
      },
      "status": "completed",
      "subject": {
        "reference": "urn:uuid:7caa3374-a574-4530-9cbd-0dcb80b77303"
      },
      "context": {
        "reference": "urn:uuid:ca5352bb-1bed-45a2-ad05-34e7616af2e3"
      },
      "authored": "2021-04-06T11:33:34+00:00",
      "item": [ {
        "linkId": "Tx221343",
        "text": "SocialConcernsExcluded",
        "answer": [ {
          "valueString": "*"
        } ]
      } ]
    }
  }, {
    "fullUrl": "urn:uuid:0d898b6b-40ab-4d55-8051-e10668bcbbf9",
    "resource": {
      "resourceType": "Questionnaire",
      "id": "0d898b6b-40ab-4d55-8051-e10668bcbbf9",
      "identifier": [ {
        "value": "59132"
      } ],
      "version": "2021-04-06T11:33:34.963Z",
      "status": "active",
      "experimental": false,
      "date": "2021-04-06T11:33:34+00:00",
      "publisher": "User ID: 'MCDONALDD' User name: 'Denzle McDonald' User skill set: 'T3'",
      "lastReviewDate": "2021-04-06",
      "subjectType": [ "Patient" ],
      "item": [ {
        "linkId": "59132",
        "prefix": "2600",
        "text": "SocialConcernsExcluded",
        "type": "choice",
        "required": true,
        "repeats": false,
        "option": [ {
          "valueString": "==\"present\", Selected: false"
        }, {
          "valueString": "*, Selected: true"
        } ]
      } ]
    }
  }, {
    "fullUrl": "urn:uuid:a6f30339-f701-4e8d-82d8-ac11672545d5",
    "resource": {
      "resourceType": "QuestionnaireResponse",
      "id": "a6f30339-f701-4e8d-82d8-ac11672545d5",
      "identifier": {
        "value": "59132"
      },
      "questionnaire": {
        "reference": "urn:uuid:0f097448-1dcf-4c7e-9f43-11e9eae0fa26"
      },
      "status": "completed",
      "subject": {
        "reference": "urn:uuid:7caa3374-a574-4530-9cbd-0dcb80b77303"
      },
      "context": {
        "reference": "urn:uuid:ca5352bb-1bed-45a2-ad05-34e7616af2e3"
      },
      "authored": "2021-04-06T11:33:34+00:00",
      "item": [ {
        "linkId": "Tx130011",
        "text": "What is the main problem?",
        "answer": [ {
          "valueString": "illness or other health problem (specify)"
        } ]
      } ]
    }
  }, {
    "fullUrl": "urn:uuid:0f097448-1dcf-4c7e-9f43-11e9eae0fa26",
    "resource": {
      "resourceType": "Questionnaire",
      "id": "0f097448-1dcf-4c7e-9f43-11e9eae0fa26",
      "identifier": [ {
        "value": "59132"
      } ],
      "version": "2021-04-06T11:33:34.963Z",
      "status": "active",
      "experimental": false,
      "date": "2021-04-06T11:33:34+00:00",
      "publisher": "User ID: 'MCDONALDD' User name: 'Denzle McDonald' User skill set: 'T3'",
      "lastReviewDate": "2021-04-06",
      "subjectType": [ "Patient" ],
      "item": [ {
        "linkId": "59132",
        "prefix": "2500",
        "text": "What is the main problem?",
        "type": "choice",
        "required": true,
        "repeats": false,
        "option": [ {
          "valueString": "the individual has been told to follow a particular course of action (specify), Selected: false"
        }, {
          "valueString": "the individual is an identified frequent caller, Selected: false"
        }, {
          "valueString": "injury (specify), Selected: false"
        }, {
          "valueString": "illness or other health problem (specify), Selected: true"
        }, {
          "valueString": "child protection/vulnerable adult concern, Selected: false"
        }, {
          "valueString": "social or domestic emergency, Selected: false"
        }, {
          "valueString": "the environment potentially poses an immediate threat to life (specify), Selected: false"
        } ]
      } ]
    }
  }, {
    "fullUrl": "urn:uuid:b3c8950f-5986-45b3-aeac-aeb67c11321b",
    "resource": {
      "resourceType": "QuestionnaireResponse",
      "id": "b3c8950f-5986-45b3-aeac-aeb67c11321b",
      "identifier": {
        "value": "59132"
      },
      "questionnaire": {
        "reference": "urn:uuid:b68369ca-f213-4276-afde-0a86a10aa81e"
      },
      "status": "completed",
      "subject": {
        "reference": "urn:uuid:7caa3374-a574-4530-9cbd-0dcb80b77303"
      },
      "context": {
        "reference": "urn:uuid:ca5352bb-1bed-45a2-ad05-34e7616af2e3"
      },
      "authored": "2021-04-06T11:33:34+00:00"
    }
  }, {
    "fullUrl": "urn:uuid:b68369ca-f213-4276-afde-0a86a10aa81e",
    "resource": {
      "resourceType": "Questionnaire",
      "id": "b68369ca-f213-4276-afde-0a86a10aa81e",
      "identifier": [ {
        "value": "59132"
      } ],
      "version": "2021-04-06T11:33:34.963Z",
      "status": "active",
      "experimental": false,
      "date": "2021-04-06T11:33:34+00:00",
      "publisher": "User ID: 'MCDONALDD' User name: 'Denzle McDonald' User skill set: 'T3'",
      "lastReviewDate": "2021-04-06",
      "subjectType": [ "Patient" ]
    }
  }, {
    "fullUrl": "urn:uuid:cc6be4c5-e5de-46ab-8f41-3f28318c9466",
    "resource": {
      "resourceType": "QuestionnaireResponse",
      "id": "cc6be4c5-e5de-46ab-8f41-3f28318c9466",
      "identifier": {
        "value": "59132"
      },
      "questionnaire": {
        "reference": "urn:uuid:ff507341-8a4e-44bb-8cc4-a00cbe9d7f5a"
      },
      "status": "completed",
      "subject": {
        "reference": "urn:uuid:7caa3374-a574-4530-9cbd-0dcb80b77303"
      },
      "context": {
        "reference": "urn:uuid:ca5352bb-1bed-45a2-ad05-34e7616af2e3"
      },
      "authored": "2021-04-06T11:33:34+00:00",
      "item": [ {
        "linkId": "Tx61025",
        "text": "Are you so breathless that speaking more than a few words is impossible?",
        "answer": [ {
          "valueString": "no"
        } ]
      } ]
    }
  }, {
    "fullUrl": "urn:uuid:ff507341-8a4e-44bb-8cc4-a00cbe9d7f5a",
    "resource": {
      "resourceType": "Questionnaire",
      "id": "ff507341-8a4e-44bb-8cc4-a00cbe9d7f5a",
      "identifier": [ {
        "value": "59132"
      } ],
      "version": "2021-04-06T11:33:34.963Z",
      "status": "active",
      "experimental": false,
      "date": "2021-04-06T11:33:34+00:00",
      "publisher": "User ID: 'MCDONALDD' User name: 'Denzle McDonald' User skill set: 'T3'",
      "lastReviewDate": "2021-04-06",
      "subjectType": [ "Patient" ],
      "item": [ {
        "linkId": "59132",
        "prefix": "0",
        "text": "Are you so breathless that speaking more than a few words is impossible?",
        "type": "choice",
        "required": true,
        "repeats": false,
        "option": [ {
          "valueString": "yes, Selected: false"
        }, {
          "valueString": "not sure, Selected: false"
        }, {
          "valueString": "no, Selected: true"
        } ]
      } ]
    }
  }, {
    "fullUrl": "urn:uuid:da158118-87e6-40ce-96ae-9c4356e67526",
    "resource": {
      "resourceType": "QuestionnaireResponse",
      "id": "da158118-87e6-40ce-96ae-9c4356e67526",
      "identifier": {
        "value": "59132"
      },
      "questionnaire": {
        "reference": "urn:uuid:ee8277f0-61b1-40b6-9cd9-909674ed8838"
      },
      "status": "completed",
      "subject": {
        "reference": "urn:uuid:7caa3374-a574-4530-9cbd-0dcb80b77303"
      },
      "context": {
        "reference": "urn:uuid:ca5352bb-1bed-45a2-ad05-34e7616af2e3"
      },
      "authored": "2021-04-06T11:33:34+00:00",
      "item": [ {
        "linkId": "Tx220845",
        "text": "SYSTEM_FLUPANDEMIC",
        "answer": [ {
          "valueString": "*"
        } ]
      } ]
    }
  }, {
    "fullUrl": "urn:uuid:ee8277f0-61b1-40b6-9cd9-909674ed8838",
    "resource": {
      "resourceType": "Questionnaire",
      "id": "ee8277f0-61b1-40b6-9cd9-909674ed8838",
      "identifier": [ {
        "value": "59132"
      } ],
      "version": "2021-04-06T11:33:34.963Z",
      "status": "active",
      "experimental": false,
      "date": "2021-04-06T11:33:34+00:00",
      "publisher": "User ID: 'MCDONALDD' User name: 'Denzle McDonald' User skill set: 'T3'",
      "lastReviewDate": "2021-04-06",
      "subjectType": [ "Patient" ],
      "item": [ {
        "linkId": "59132",
        "prefix": "100",
        "text": "SYSTEM_FLUPANDEMIC",
        "type": "choice",
        "required": true,
        "repeats": false,
        "option": [ {
          "valueString": "==\"pandemic\", Selected: false"
        }, {
          "valueString": "*, Selected: true"
        } ]
      } ]
    }
  }, {
    "fullUrl": "urn:uuid:69371e52-af53-4d8e-8a9b-4ebd5e0fdfab",
    "resource": {
      "resourceType": "QuestionnaireResponse",
      "id": "69371e52-af53-4d8e-8a9b-4ebd5e0fdfab",
      "identifier": {
        "value": "59132"
      },
      "questionnaire": {
        "reference": "urn:uuid:af250af7-f534-423a-9cf2-984eb785b8c4"
      },
      "status": "completed",
      "subject": {
        "reference": "urn:uuid:7caa3374-a574-4530-9cbd-0dcb80b77303"
      },
      "context": {
        "reference": "urn:uuid:ca5352bb-1bed-45a2-ad05-34e7616af2e3"
      },
      "authored": "2021-04-06T11:33:34+00:00",
      "item": [ {
        "linkId": "Tx220044",
        "text": "WHAT IS SAID TO BE THE MAIN REASON FOR THIS CONTACT?",
        "answer": [ {
          "valueString": "more"
        } ]
      } ]
    }
  }, {
    "fullUrl": "urn:uuid:af250af7-f534-423a-9cf2-984eb785b8c4",
    "resource": {
      "resourceType": "Questionnaire",
      "id": "af250af7-f534-423a-9cf2-984eb785b8c4",
      "identifier": [ {
        "value": "59132"
      } ],
      "version": "2021-04-06T11:33:34.963Z",
      "status": "active",
      "experimental": false,
      "date": "2021-04-06T11:33:34+00:00",
      "publisher": "User ID: 'MCDONALDD' User name: 'Denzle McDonald' User skill set: 'T3'",
      "lastReviewDate": "2021-04-06",
      "subjectType": [ "Patient" ],
      "item": [ {
        "linkId": "59132",
        "prefix": "5000",
        "text": "WHAT IS SAID TO BE THE MAIN REASON FOR THIS CONTACT?",
        "type": "choice",
        "required": true,
        "repeats": false,
        "option": [ {
          "valueString": "a probable allergic reaction now, Selected: false"
        }, {
          "valueString": "chest or upper back pain, Selected: false"
        }, {
          "valueString": "a probable fit or seizure within the last 12 hours, Selected: false"
        }, {
          "valueString": "a suicide attempt, Selected: false"
        }, {
          "valueString": "new confusion now, Selected: false"
        }, {
          "valueString": "a probable stroke or mini stroke, Selected: false"
        }, {
          "valueString": "more, Selected: true"
        } ]
      } ]
    }
  }, {
    "fullUrl": "urn:uuid:3b8aa114-67b5-4ea1-8025-95fc0a865426",
    "resource": {
      "resourceType": "QuestionnaireResponse",
      "id": "3b8aa114-67b5-4ea1-8025-95fc0a865426",
      "identifier": {
        "value": "59132"
      },
      "questionnaire": {
        "reference": "urn:uuid:caf6579a-e591-4230-9235-af83b3bb5c63"
      },
      "status": "completed",
      "subject": {
        "reference": "urn:uuid:7caa3374-a574-4530-9cbd-0dcb80b77303"
      },
      "context": {
        "reference": "urn:uuid:ca5352bb-1bed-45a2-ad05-34e7616af2e3"
      },
      "authored": "2021-04-06T11:33:34+00:00",
      "item": [ {
        "linkId": "Tx223029",
        "text": "WHAT IS SAID TO BE THE MAIN REASON FOR THIS CONTACT?",
        "answer": [ {
          "valueString": "none of the above"
        } ]
      } ]
    }
  }, {
    "fullUrl": "urn:uuid:caf6579a-e591-4230-9235-af83b3bb5c63",
    "resource": {
      "resourceType": "Questionnaire",
      "id": "caf6579a-e591-4230-9235-af83b3bb5c63",
      "identifier": [ {
        "value": "59132"
      } ],
      "version": "2021-04-06T11:33:34.963Z",
      "status": "active",
      "experimental": false,
      "date": "2021-04-06T11:33:34+00:00",
      "publisher": "User ID: 'MCDONALDD' User name: 'Denzle McDonald' User skill set: 'T3'",
      "lastReviewDate": "2021-04-06",
      "subjectType": [ "Patient" ],
      "item": [ {
        "linkId": "59132",
        "prefix": "4100",
        "text": "WHAT IS SAID TO BE THE MAIN REASON FOR THIS CONTACT?",
        "type": "choice",
        "required": true,
        "repeats": false,
        "option": [ {
          "valueString": "a diabetic hypo (low blood sugar) or a diabetic hyper (high blood sugar), Selected: false"
        }, {
          "valueString": "recovery from an ICD (implanted cardioverter defibrillator) shock, Selected: false"
        }, {
          "valueString": "none of the above, Selected: true"
        } ]
      } ]
    }
  }, {
    "fullUrl": "urn:uuid:85eaac36-6143-4e01-a1db-a20d288ee200",
    "resource": {
      "resourceType": "QuestionnaireResponse",
      "id": "85eaac36-6143-4e01-a1db-a20d288ee200",
      "identifier": {
        "value": "59132"
      },
      "questionnaire": {
        "reference": "urn:uuid:dd21a520-e749-4185-8e04-741a32275743"
      },
      "status": "completed",
      "subject": {
        "reference": "urn:uuid:7caa3374-a574-4530-9cbd-0dcb80b77303"
      },
      "context": {
        "reference": "urn:uuid:ca5352bb-1bed-45a2-ad05-34e7616af2e3"
      },
      "authored": "2021-04-06T11:33:34+00:00",
      "item": [ {
        "linkId": "Tx223142",
        "text": "Does the skin on the chest, back or abdomen feel a normal temperature?",
        "answer": [ {
          "valueString": "yes - normal, warm or hot"
        } ]
      } ]
    }
  }, {
    "fullUrl": "urn:uuid:dd21a520-e749-4185-8e04-741a32275743",
    "resource": {
      "resourceType": "Questionnaire",
      "id": "dd21a520-e749-4185-8e04-741a32275743",
      "identifier": [ {
        "value": "59132"
      } ],
      "version": "2021-04-06T11:33:34.963Z",
      "status": "active",
      "experimental": false,
      "date": "2021-04-06T11:33:34+00:00",
      "publisher": "User ID: 'MCDONALDD' User name: 'Denzle McDonald' User skill set: 'T3'",
      "lastReviewDate": "2021-04-06",
      "subjectType": [ "Patient" ],
      "item": [ {
        "linkId": "59132",
        "prefix": "4400",
        "text": "Does the skin on the chest, back or abdomen feel a normal temperature?",
        "type": "choice",
        "required": true,
        "repeats": false,
        "option": [ {
          "valueString": "yes - normal, warm or hot, Selected: true"
        }, {
          "valueString": "not sure, Selected: false"
        }, {
          "valueString": "no - cool OR cold, Selected: false"
        }, {
          "valueString": "not safe to touch, Selected: false"
        } ]
      } ]
    }
  }, {
    "fullUrl": "urn:uuid:436b8eee-d4ac-4bfa-b45f-ae76c6bcf6e8",
    "resource": {
      "resourceType": "QuestionnaireResponse",
      "id": "436b8eee-d4ac-4bfa-b45f-ae76c6bcf6e8",
      "identifier": {
        "value": "59132"
      },
      "questionnaire": {
        "reference": "urn:uuid:66c5d1cb-b34d-42dd-82f0-8a509d715793"
      },
      "status": "completed",
      "subject": {
        "reference": "urn:uuid:7caa3374-a574-4530-9cbd-0dcb80b77303"
      },
      "context": {
        "reference": "urn:uuid:ca5352bb-1bed-45a2-ad05-34e7616af2e3"
      },
      "authored": "2021-04-06T11:33:34+00:00",
      "item": [ {
        "linkId": "Tx221724",
        "text": "STRING:ShockAsked",
        "answer": [ {
          "valueString": "\"present\""
        } ]
      } ]
    }
  }, {
    "fullUrl": "urn:uuid:66c5d1cb-b34d-42dd-82f0-8a509d715793",
    "resource": {
      "resourceType": "Questionnaire",
      "id": "66c5d1cb-b34d-42dd-82f0-8a509d715793",
      "identifier": [ {
        "value": "59132"
      } ],
      "version": "2021-04-06T11:33:34.963Z",
      "status": "active",
      "experimental": false,
      "date": "2021-04-06T11:33:34+00:00",
      "publisher": "User ID: 'MCDONALDD' User name: 'Denzle McDonald' User skill set: 'T3'",
      "lastReviewDate": "2021-04-06",
      "subjectType": [ "Patient" ],
      "item": [ {
        "linkId": "59132",
        "prefix": "3300",
        "text": "STRING:ShockAsked",
        "type": "choice",
        "required": true,
        "repeats": false,
        "option": [ {
          "valueString": "\"present\", Selected: true"
        } ]
      } ]
    }
  }, {
    "fullUrl": "urn:uuid:6c5f2b85-b8e6-45f8-a77d-040ba2ac057a",
    "resource": {
      "resourceType": "QuestionnaireResponse",
      "id": "6c5f2b85-b8e6-45f8-a77d-040ba2ac057a",
      "identifier": {
        "value": "59132"
      },
      "questionnaire": {
        "reference": "urn:uuid:68d77337-5e8c-43a0-b762-d340897adf5d"
      },
      "status": "completed",
      "subject": {
        "reference": "urn:uuid:7caa3374-a574-4530-9cbd-0dcb80b77303"
      },
      "context": {
        "reference": "urn:uuid:ca5352bb-1bed-45a2-ad05-34e7616af2e3"
      },
      "authored": "2021-04-06T11:33:34+00:00"
    }
  }, {
    "fullUrl": "urn:uuid:68d77337-5e8c-43a0-b762-d340897adf5d",
    "resource": {
      "resourceType": "Questionnaire",
      "id": "68d77337-5e8c-43a0-b762-d340897adf5d",
      "identifier": [ {
        "value": "59132"
      } ],
      "version": "2021-04-06T11:33:34.963Z",
      "status": "active",
      "experimental": false,
      "date": "2021-04-06T11:33:34+00:00",
      "publisher": "User ID: 'MCDONALDD' User name: 'Denzle McDonald' User skill set: 'T3'",
      "lastReviewDate": "2021-04-06",
      "subjectType": [ "Patient" ]
    }
  }, {
    "fullUrl": "urn:uuid:eea98210-8a28-4035-a1a9-70919032d6f9",
    "resource": {
      "resourceType": "QuestionnaireResponse",
      "id": "eea98210-8a28-4035-a1a9-70919032d6f9",
      "identifier": {
        "value": "59132"
      },
      "questionnaire": {
        "reference": "urn:uuid:5bd1f48a-1c3c-480c-bfa8-7179926c3434"
      },
      "status": "completed",
      "subject": {
        "reference": "urn:uuid:7caa3374-a574-4530-9cbd-0dcb80b77303"
      },
      "context": {
        "reference": "urn:uuid:ca5352bb-1bed-45a2-ad05-34e7616af2e3"
      },
      "authored": "2021-04-06T11:33:34+00:00",
      "item": [ {
        "linkId": "Tx223272",
        "text": "SYSTEM_VHF",
        "answer": [ {
          "valueString": "*"
        } ]
      } ]
    }
  }, {
    "fullUrl": "urn:uuid:5bd1f48a-1c3c-480c-bfa8-7179926c3434",
    "resource": {
      "resourceType": "Questionnaire",
      "id": "5bd1f48a-1c3c-480c-bfa8-7179926c3434",
      "identifier": [ {
        "value": "59132"
      } ],
      "version": "2021-04-06T11:33:34.963Z",
      "status": "active",
      "experimental": false,
      "date": "2021-04-06T11:33:34+00:00",
      "publisher": "User ID: 'MCDONALDD' User name: 'Denzle McDonald' User skill set: 'T3'",
      "lastReviewDate": "2021-04-06",
      "subjectType": [ "Patient" ],
      "item": [ {
        "linkId": "59132",
        "prefix": "0",
        "text": "SYSTEM_VHF",
        "type": "choice",
        "required": true,
        "repeats": false,
        "option": [ {
          "valueString": "==\"vhf\", Selected: false"
        }, {
          "valueString": "*, Selected: true"
        } ]
      } ]
    }
  }, {
    "fullUrl": "urn:uuid:78a3ec5a-8bb2-4435-8315-c68465f212ea",
    "resource": {
      "resourceType": "QuestionnaireResponse",
      "id": "78a3ec5a-8bb2-4435-8315-c68465f212ea",
      "identifier": {
        "value": "59132"
      },
      "questionnaire": {
        "reference": "urn:uuid:49a8bda8-92b8-4332-9c16-bf9d96a9aa57"
      },
      "status": "completed",
      "subject": {
        "reference": "urn:uuid:7caa3374-a574-4530-9cbd-0dcb80b77303"
      },
      "context": {
        "reference": "urn:uuid:ca5352bb-1bed-45a2-ad05-34e7616af2e3"
      },
      "authored": "2021-04-06T11:33:34+00:00",
      "item": [ {
        "linkId": "Tx222416",
        "text": "Have you actually vomited?",
        "answer": [ {
          "valueString": "no"
        } ]
      } ]
    }
  }, {
    "fullUrl": "urn:uuid:49a8bda8-92b8-4332-9c16-bf9d96a9aa57",
    "resource": {
      "resourceType": "Questionnaire",
      "id": "49a8bda8-92b8-4332-9c16-bf9d96a9aa57",
      "identifier": [ {
        "value": "59132"
      } ],
      "version": "2021-04-06T11:33:34.963Z",
      "status": "active",
      "experimental": false,
      "date": "2021-04-06T11:33:34+00:00",
      "publisher": "User ID: 'MCDONALDD' User name: 'Denzle McDonald' User skill set: 'T3'",
      "lastReviewDate": "2021-04-06",
      "subjectType": [ "Patient" ],
      "item": [ {
        "linkId": "59132",
        "prefix": "30400",
        "text": "Have you actually vomited?",
        "type": "choice",
        "required": true,
        "repeats": false,
        "option": [ {
          "valueString": "yes, Selected: false"
        }, {
          "valueString": "not sure, Selected: false"
        }, {
          "valueString": "no, Selected: true"
        } ]
      } ]
    }
  }, {
    "fullUrl": "urn:uuid:1675df09-ff6f-4c00-ae79-298d4b6f65fd",
    "resource": {
      "resourceType": "QuestionnaireResponse",
      "id": "1675df09-ff6f-4c00-ae79-298d4b6f65fd",
      "identifier": {
        "value": "59132"
      },
      "questionnaire": {
        "reference": "urn:uuid:e22bfcc3-adb1-4a11-a141-73196e19d426"
      },
      "status": "completed",
      "subject": {
        "reference": "urn:uuid:7caa3374-a574-4530-9cbd-0dcb80b77303"
      },
      "context": {
        "reference": "urn:uuid:ca5352bb-1bed-45a2-ad05-34e7616af2e3"
      },
      "authored": "2021-04-06T11:33:34+00:00",
      "item": [ {
        "linkId": "Tx220964",
        "text": "Have you got diarrhoea as well?",
        "answer": [ {
          "valueString": "no"
        } ]
      } ]
    }
  }, {
    "fullUrl": "urn:uuid:e22bfcc3-adb1-4a11-a141-73196e19d426",
    "resource": {
      "resourceType": "Questionnaire",
      "id": "e22bfcc3-adb1-4a11-a141-73196e19d426",
      "identifier": [ {
        "value": "59132"
      } ],
      "version": "2021-04-06T11:33:34.963Z",
      "status": "active",
      "experimental": false,
      "date": "2021-04-06T11:33:34+00:00",
      "publisher": "User ID: 'MCDONALDD' User name: 'Denzle McDonald' User skill set: 'T3'",
      "lastReviewDate": "2021-04-06",
      "subjectType": [ "Patient" ],
      "item": [ {
        "linkId": "59132",
        "prefix": "100",
        "text": "Have you got diarrhoea as well?",
        "type": "choice",
        "required": true,
        "repeats": false,
        "option": [ {
          "valueString": "yes, Selected: false"
        }, {
          "valueString": "not sure, Selected: false"
        }, {
          "valueString": "no, Selected: true"
        } ]
      } ]
    }
  }, {
    "fullUrl": "urn:uuid:e2c4e9af-bf14-4358-84bf-7089f3bfcbb6",
    "resource": {
      "resourceType": "QuestionnaireResponse",
      "id": "e2c4e9af-bf14-4358-84bf-7089f3bfcbb6",
      "identifier": {
        "value": "59132"
      },
      "questionnaire": {
        "reference": "urn:uuid:605ea330-53a9-4fb8-a614-f249a1eb9e9b"
      },
      "status": "completed",
      "subject": {
        "reference": "urn:uuid:7caa3374-a574-4530-9cbd-0dcb80b77303"
      },
      "context": {
        "reference": "urn:uuid:ca5352bb-1bed-45a2-ad05-34e7616af2e3"
      },
      "authored": "2021-04-06T11:33:34+00:00",
      "item": [ {
        "linkId": "Tx221277",
        "text": "Vomiting",
        "answer": [ {
          "valueString": "*"
        } ]
      } ]
    }
  }, {
    "fullUrl": "urn:uuid:605ea330-53a9-4fb8-a614-f249a1eb9e9b",
    "resource": {
      "resourceType": "Questionnaire",
      "id": "605ea330-53a9-4fb8-a614-f249a1eb9e9b",
      "identifier": [ {
        "value": "59132"
      } ],
      "version": "2021-04-06T11:33:34.963Z",
      "status": "active",
      "experimental": false,
      "date": "2021-04-06T11:33:34+00:00",
      "publisher": "User ID: 'MCDONALDD' User name: 'Denzle McDonald' User skill set: 'T3'",
      "lastReviewDate": "2021-04-06",
      "subjectType": [ "Patient" ],
      "item": [ {
        "linkId": "59132",
        "prefix": "400",
        "text": "Vomiting",
        "type": "choice",
        "required": true,
        "repeats": false,
        "option": [ {
          "valueString": "==\"present\", Selected: false"
        }, {
          "valueString": "*, Selected: true"
        } ]
      } ]
    }
  }, {
    "fullUrl": "urn:uuid:946e3df7-268c-4120-b37c-25ec2c4a74d8",
    "resource": {
      "resourceType": "QuestionnaireResponse",
      "id": "946e3df7-268c-4120-b37c-25ec2c4a74d8",
      "identifier": {
        "value": "59132"
      },
      "questionnaire": {
        "reference": "urn:uuid:89b6e057-7846-4110-87dd-6459ed08560c"
      },
      "status": "completed",
      "subject": {
        "reference": "urn:uuid:7caa3374-a574-4530-9cbd-0dcb80b77303"
      },
      "context": {
        "reference": "urn:uuid:ca5352bb-1bed-45a2-ad05-34e7616af2e3"
      },
      "authored": "2021-04-06T11:33:34+00:00",
      "item": [ {
        "linkId": "Tx221183",
        "text": "Did the symptoms come on after drinking alcohol?",
        "answer": [ {
          "valueString": "no"
        } ]
      } ]
    }
  }, {
    "fullUrl": "urn:uuid:89b6e057-7846-4110-87dd-6459ed08560c",
    "resource": {
      "resourceType": "Questionnaire",
      "id": "89b6e057-7846-4110-87dd-6459ed08560c",
      "identifier": [ {
        "value": "59132"
      } ],
      "version": "2021-04-06T11:33:34.963Z",
      "status": "active",
      "experimental": false,
      "date": "2021-04-06T11:33:34+00:00",
      "publisher": "User ID: 'MCDONALDD' User name: 'Denzle McDonald' User skill set: 'T3'",
      "lastReviewDate": "2021-04-06",
      "subjectType": [ "Patient" ],
      "item": [ {
        "linkId": "59132",
        "prefix": "300",
        "text": "Did the symptoms come on after drinking alcohol?",
        "type": "choice",
        "required": true,
        "repeats": false,
        "option": [ {
          "valueString": "yes, Selected: false"
        }, {
          "valueString": "not sure, Selected: false"
        }, {
          "valueString": "no, Selected: true"
        } ]
      } ]
    }
  }, {
    "fullUrl": "urn:uuid:4e1680eb-29f7-47c8-86f6-1544c4d1cb13",
    "resource": {
      "resourceType": "QuestionnaireResponse",
      "id": "4e1680eb-29f7-47c8-86f6-1544c4d1cb13",
      "identifier": {
        "value": "59132"
      },
      "questionnaire": {
        "reference": "urn:uuid:5e5a990d-cb7a-4244-9877-0af8e5d9194c"
      },
      "status": "completed",
      "subject": {
        "reference": "urn:uuid:7caa3374-a574-4530-9cbd-0dcb80b77303"
      },
      "context": {
        "reference": "urn:uuid:ca5352bb-1bed-45a2-ad05-34e7616af2e3"
      },
      "authored": "2021-04-06T11:33:34+00:00",
      "item": [ {
        "linkId": "Tx221277",
        "text": "Vomiting",
        "answer": [ {
          "valueString": "*"
        } ]
      } ]
    }
  }, {
    "fullUrl": "urn:uuid:5e5a990d-cb7a-4244-9877-0af8e5d9194c",
    "resource": {
      "resourceType": "Questionnaire",
      "id": "5e5a990d-cb7a-4244-9877-0af8e5d9194c",
      "identifier": [ {
        "value": "59132"
      } ],
      "version": "2021-04-06T11:33:34.963Z",
      "status": "active",
      "experimental": false,
      "date": "2021-04-06T11:33:34+00:00",
      "publisher": "User ID: 'MCDONALDD' User name: 'Denzle McDonald' User skill set: 'T3'",
      "lastReviewDate": "2021-04-06",
      "subjectType": [ "Patient" ],
      "item": [ {
        "linkId": "59132",
        "prefix": "1000",
        "text": "Vomiting",
        "type": "choice",
        "required": true,
        "repeats": false,
        "option": [ {
          "valueString": "==\"present\", Selected: false"
        }, {
          "valueString": "*, Selected: true"
        } ]
      } ]
    }
  }, {
    "fullUrl": "urn:uuid:1e5495eb-583d-42ec-8678-7bd174eab0f2",
    "resource": {
      "resourceType": "QuestionnaireResponse",
      "id": "1e5495eb-583d-42ec-8678-7bd174eab0f2",
      "identifier": {
        "value": "59132"
      },
      "questionnaire": {
        "reference": "urn:uuid:52140fd5-2268-433c-9d3a-b02e41f0bf51"
      },
      "status": "completed",
      "subject": {
        "reference": "urn:uuid:7caa3374-a574-4530-9cbd-0dcb80b77303"
      },
      "context": {
        "reference": "urn:uuid:ca5352bb-1bed-45a2-ad05-34e7616af2e3"
      },
      "authored": "2021-04-06T11:33:34+00:00",
      "item": [ {
        "linkId": "Tx220825",
        "text": "Have you also got any pain in the abdomen?",
        "answer": [ {
          "valueString": "yes"
        } ]
      } ]
    }
  }, {
    "fullUrl": "urn:uuid:52140fd5-2268-433c-9d3a-b02e41f0bf51",
    "resource": {
      "resourceType": "Questionnaire",
      "id": "52140fd5-2268-433c-9d3a-b02e41f0bf51",
      "identifier": [ {
        "value": "59132"
      } ],
      "version": "2021-04-06T11:33:34.963Z",
      "status": "active",
      "experimental": false,
      "date": "2021-04-06T11:33:34+00:00",
      "publisher": "User ID: 'MCDONALDD' User name: 'Denzle McDonald' User skill set: 'T3'",
      "lastReviewDate": "2021-04-06",
      "subjectType": [ "Patient" ],
      "item": [ {
        "linkId": "59132",
        "prefix": "1500",
        "text": "Have you also got any pain in the abdomen?",
        "type": "choice",
        "required": true,
        "repeats": false,
        "option": [ {
          "valueString": "yes, Selected: true"
        }, {
          "valueString": "not sure, Selected: false"
        }, {
          "valueString": "no, Selected: false"
        } ]
      } ]
    }
  }, {
    "fullUrl": "urn:uuid:8082b984-54bd-4958-8be0-3f4382222ee0",
    "resource": {
      "resourceType": "QuestionnaireResponse",
      "id": "8082b984-54bd-4958-8be0-3f4382222ee0",
      "identifier": {
        "value": "59132"
      },
      "questionnaire": {
        "reference": "urn:uuid:97fce2b0-519f-4ec9-a985-353b54c9ec3a"
      },
      "status": "completed",
      "subject": {
        "reference": "urn:uuid:7caa3374-a574-4530-9cbd-0dcb80b77303"
      },
      "context": {
        "reference": "urn:uuid:ca5352bb-1bed-45a2-ad05-34e7616af2e3"
      },
      "authored": "2021-04-06T11:33:34+00:00",
      "item": [ {
        "linkId": "Tx224927",
        "text": "STRING:VomitingAnd/OrNauseaWithAbdominalPainPW",
        "answer": [ {
          "valueString": "\"present\""
        } ]
      } ]
    }
  }, {
    "fullUrl": "urn:uuid:97fce2b0-519f-4ec9-a985-353b54c9ec3a",
    "resource": {
      "resourceType": "Questionnaire",
      "id": "97fce2b0-519f-4ec9-a985-353b54c9ec3a",
      "identifier": [ {
        "value": "59132"
      } ],
      "version": "2021-04-06T11:33:34.963Z",
      "status": "active",
      "experimental": false,
      "date": "2021-04-06T11:33:34+00:00",
      "publisher": "User ID: 'MCDONALDD' User name: 'Denzle McDonald' User skill set: 'T3'",
      "lastReviewDate": "2021-04-06",
      "subjectType": [ "Patient" ],
      "item": [ {
        "linkId": "59132",
        "prefix": "64600",
        "text": "STRING:VomitingAnd/OrNauseaWithAbdominalPainPW",
        "type": "choice",
        "required": true,
        "repeats": false,
        "option": [ {
          "valueString": "\"present\", Selected: true"
        } ]
      } ]
    }
  }, {
    "fullUrl": "urn:uuid:01024c16-498f-4e77-a29e-de63c191d28e",
    "resource": {
      "resourceType": "QuestionnaireResponse",
      "id": "01024c16-498f-4e77-a29e-de63c191d28e",
      "identifier": {
        "value": "59132"
      },
      "questionnaire": {
        "reference": "urn:uuid:25b4550b-4c86-41b6-b5f1-c522c53cfabd"
      },
      "status": "completed",
      "subject": {
        "reference": "urn:uuid:7caa3374-a574-4530-9cbd-0dcb80b77303"
      },
      "context": {
        "reference": "urn:uuid:ca5352bb-1bed-45a2-ad05-34e7616af2e3"
      },
      "authored": "2021-04-06T11:33:34+00:00",
      "item": [ {
        "linkId": "Tx224907",
        "text": "STRING:GITSymptomWithAbdominalPain",
        "answer": [ {
          "valueString": "\"present\""
        } ]
      } ]
    }
  }, {
    "fullUrl": "urn:uuid:25b4550b-4c86-41b6-b5f1-c522c53cfabd",
    "resource": {
      "resourceType": "Questionnaire",
      "id": "25b4550b-4c86-41b6-b5f1-c522c53cfabd",
      "identifier": [ {
        "value": "59132"
      } ],
      "version": "2021-04-06T11:33:34.963Z",
      "status": "active",
      "experimental": false,
      "date": "2021-04-06T11:33:34+00:00",
      "publisher": "User ID: 'MCDONALDD' User name: 'Denzle McDonald' User skill set: 'T3'",
      "lastReviewDate": "2021-04-06",
      "subjectType": [ "Patient" ],
      "item": [ {
        "linkId": "59132",
        "prefix": "64700",
        "text": "STRING:GITSymptomWithAbdominalPain",
        "type": "choice",
        "required": true,
        "repeats": false,
        "option": [ {
          "valueString": "\"present\", Selected: true"
        } ]
      } ]
    }
  }, {
    "fullUrl": "urn:uuid:4b130a6e-f5de-47b3-870e-419049a021fa",
    "resource": {
      "resourceType": "QuestionnaireResponse",
      "id": "4b130a6e-f5de-47b3-870e-419049a021fa",
      "identifier": {
        "value": "59132"
      },
      "questionnaire": {
        "reference": "urn:uuid:5ab44244-9881-4106-a14f-910f3875e585"
      },
      "status": "completed",
      "subject": {
        "reference": "urn:uuid:7caa3374-a574-4530-9cbd-0dcb80b77303"
      },
      "context": {
        "reference": "urn:uuid:ca5352bb-1bed-45a2-ad05-34e7616af2e3"
      },
      "authored": "2021-04-06T11:33:34+00:00"
    }
  }, {
    "fullUrl": "urn:uuid:5ab44244-9881-4106-a14f-910f3875e585",
    "resource": {
      "resourceType": "Questionnaire",
      "id": "5ab44244-9881-4106-a14f-910f3875e585",
      "identifier": [ {
        "value": "59132"
      } ],
      "version": "2021-04-06T11:33:34.963Z",
      "status": "active",
      "experimental": false,
      "date": "2021-04-06T11:33:34+00:00",
      "publisher": "User ID: 'MCDONALDD' User name: 'Denzle McDonald' User skill set: 'T3'",
      "lastReviewDate": "2021-04-06",
      "subjectType": [ "Patient" ]
    }
  }, {
    "fullUrl": "urn:uuid:e784166e-c43f-46b9-ba18-c6e50ec2c49b",
    "resource": {
      "resourceType": "QuestionnaireResponse",
      "id": "e784166e-c43f-46b9-ba18-c6e50ec2c49b",
      "identifier": {
        "value": "59132"
      },
      "questionnaire": {
        "reference": "urn:uuid:d2c5b5eb-53e4-419d-a033-d49b8045ba14"
      },
      "status": "completed",
      "subject": {
        "reference": "urn:uuid:7caa3374-a574-4530-9cbd-0dcb80b77303"
      },
      "context": {
        "reference": "urn:uuid:ca5352bb-1bed-45a2-ad05-34e7616af2e3"
      },
      "authored": "2021-04-06T11:33:34+00:00",
      "item": [ {
        "linkId": "Tx221039",
        "text": "PATIENT_AGEGROUP",
        "answer": [ {
          "valueString": "==\"CHILD\""
        } ]
      } ]
    }
  }, {
    "fullUrl": "urn:uuid:d2c5b5eb-53e4-419d-a033-d49b8045ba14",
    "resource": {
      "resourceType": "Questionnaire",
      "id": "d2c5b5eb-53e4-419d-a033-d49b8045ba14",
      "identifier": [ {
        "value": "59132"
      } ],
      "version": "2021-04-06T11:33:34.963Z",
      "status": "active",
      "experimental": false,
      "date": "2021-04-06T11:33:34+00:00",
      "publisher": "User ID: 'MCDONALDD' User name: 'Denzle McDonald' User skill set: 'T3'",
      "lastReviewDate": "2021-04-06",
      "subjectType": [ "Patient" ],
      "item": [ {
        "linkId": "59132",
        "prefix": "0",
        "text": "PATIENT_AGEGROUP",
        "type": "choice",
        "required": true,
        "repeats": false,
        "option": [ {
          "valueString": "==\"ADULT\", Selected: false"
        }, {
          "valueString": "==\"CHILD\", Selected: true"
        }, {
          "valueString": "==\"TODDLER\", Selected: false"
        }, {
          "valueString": "==\"INFANT\", Selected: false"
        }, {
          "valueString": "==\"NEONATE\", Selected: false"
        }, {
          "valueString": "*, Selected: false"
        } ]
      } ]
    }
  }, {
    "fullUrl": "urn:uuid:524b9023-cce0-4c32-b271-e3a0b2f56748",
    "resource": {
      "resourceType": "QuestionnaireResponse",
      "id": "524b9023-cce0-4c32-b271-e3a0b2f56748",
      "identifier": {
        "value": "59132"
      },
      "questionnaire": {
        "reference": "urn:uuid:4a422a42-c242-4738-b318-b49337492364"
      },
      "status": "completed",
      "subject": {
        "reference": "urn:uuid:7caa3374-a574-4530-9cbd-0dcb80b77303"
      },
      "context": {
        "reference": "urn:uuid:ca5352bb-1bed-45a2-ad05-34e7616af2e3"
      },
      "authored": "2021-04-06T11:33:34+00:00",
      "item": [ {
        "linkId": "Tx224919",
        "text": "PATIENT_AGE",
        "answer": [ {
          "valueString": "<11"
        } ]
      } ]
    }
  }, {
    "fullUrl": "urn:uuid:4a422a42-c242-4738-b318-b49337492364",
    "resource": {
      "resourceType": "Questionnaire",
      "id": "4a422a42-c242-4738-b318-b49337492364",
      "identifier": [ {
        "value": "59132"
      } ],
      "version": "2021-04-06T11:33:34.963Z",
      "status": "active",
      "experimental": false,
      "date": "2021-04-06T11:33:34+00:00",
      "publisher": "User ID: 'MCDONALDD' User name: 'Denzle McDonald' User skill set: 'T3'",
      "lastReviewDate": "2021-04-06",
      "subjectType": [ "Patient" ],
      "item": [ {
        "linkId": "59132",
        "prefix": "15300",
        "text": "PATIENT_AGE",
        "type": "choice",
        "required": true,
        "repeats": false,
        "option": [ {
          "valueString": "<11, Selected: true"
        }, {
          "valueString": "<13, Selected: false"
        }, {
          "valueString": ">=13, Selected: false"
        }, {
          "valueString": "*, Selected: false"
        } ]
      } ]
    }
  }, {
    "fullUrl": "urn:uuid:ac13272e-4f19-4b8a-8983-f4fb72e90594",
    "resource": {
      "resourceType": "QuestionnaireResponse",
      "id": "ac13272e-4f19-4b8a-8983-f4fb72e90594",
      "identifier": {
        "value": "59132"
      },
      "questionnaire": {
        "reference": "urn:uuid:b607aa75-6774-4077-a1b5-48779dfb9eff"
      },
      "status": "completed",
      "subject": {
        "reference": "urn:uuid:7caa3374-a574-4530-9cbd-0dcb80b77303"
      },
      "context": {
        "reference": "urn:uuid:ca5352bb-1bed-45a2-ad05-34e7616af2e3"
      },
      "authored": "2021-04-06T11:33:34+00:00",
      "item": [ {
        "linkId": "Tx224498",
        "text": "STRING:Under11",
        "answer": [ {
          "valueString": "\"present\""
        } ]
      } ]
    }
  }, {
    "fullUrl": "urn:uuid:b607aa75-6774-4077-a1b5-48779dfb9eff",
    "resource": {
      "resourceType": "Questionnaire",
      "id": "b607aa75-6774-4077-a1b5-48779dfb9eff",
      "identifier": [ {
        "value": "59132"
      } ],
      "version": "2021-04-06T11:33:34.963Z",
      "status": "active",
      "experimental": false,
      "date": "2021-04-06T11:33:34+00:00",
      "publisher": "User ID: 'MCDONALDD' User name: 'Denzle McDonald' User skill set: 'T3'",
      "lastReviewDate": "2021-04-06",
      "subjectType": [ "Patient" ],
      "item": [ {
        "linkId": "59132",
        "prefix": "14800",
        "text": "STRING:Under11",
        "type": "choice",
        "required": true,
        "repeats": false,
        "option": [ {
          "valueString": "\"present\", Selected: true"
        } ]
      } ]
    }
  }, {
    "fullUrl": "urn:uuid:1921dab6-d1f7-4454-b3cc-88e943a8afed",
    "resource": {
      "resourceType": "QuestionnaireResponse",
      "id": "1921dab6-d1f7-4454-b3cc-88e943a8afed",
      "identifier": {
        "value": "59132"
      },
      "questionnaire": {
        "reference": "urn:uuid:5d0723ea-087e-4bea-a3a5-8534e3adeeef"
      },
      "status": "completed",
      "subject": {
        "reference": "urn:uuid:7caa3374-a574-4530-9cbd-0dcb80b77303"
      },
      "context": {
        "reference": "urn:uuid:ca5352bb-1bed-45a2-ad05-34e7616af2e3"
      },
      "authored": "2021-04-06T11:33:34+00:00",
      "item": [ {
        "linkId": "Tx224906",
        "text": "AbdominalPainPW",
        "answer": [ {
          "valueString": "*"
        } ]
      } ]
    }
  }, {
    "fullUrl": "urn:uuid:5d0723ea-087e-4bea-a3a5-8534e3adeeef",
    "resource": {
      "resourceType": "Questionnaire",
      "id": "5d0723ea-087e-4bea-a3a5-8534e3adeeef",
      "identifier": [ {
        "value": "59132"
      } ],
      "version": "2021-04-06T11:33:34.963Z",
      "status": "active",
      "experimental": false,
      "date": "2021-04-06T11:33:34+00:00",
      "publisher": "User ID: 'MCDONALDD' User name: 'Denzle McDonald' User skill set: 'T3'",
      "lastReviewDate": "2021-04-06",
      "subjectType": [ "Patient" ],
      "item": [ {
        "linkId": "59132",
        "prefix": "15600",
        "text": "AbdominalPainPW",
        "type": "choice",
        "required": true,
        "repeats": false,
        "option": [ {
          "valueString": "==\"present\", Selected: false"
        }, {
          "valueString": "*, Selected: true"
        } ]
      } ]
    }
  }, {
    "fullUrl": "urn:uuid:1fe3bdd2-98ec-4dd5-80dd-c1feddd6a03e",
    "resource": {
      "resourceType": "QuestionnaireResponse",
      "id": "1fe3bdd2-98ec-4dd5-80dd-c1feddd6a03e",
      "identifier": {
        "value": "59132"
      },
      "questionnaire": {
        "reference": "urn:uuid:0c1d0466-f77c-4461-96e8-d8c5a0d7a788"
      },
      "status": "completed",
      "subject": {
        "reference": "urn:uuid:7caa3374-a574-4530-9cbd-0dcb80b77303"
      },
      "context": {
        "reference": "urn:uuid:ca5352bb-1bed-45a2-ad05-34e7616af2e3"
      },
      "authored": "2021-04-06T11:33:34+00:00",
      "item": [ {
        "linkId": "Tx225151",
        "text": "RectalBleedingwithAbdominalPainPW",
        "answer": [ {
          "valueString": "*"
        } ]
      } ]
    }
  }, {
    "fullUrl": "urn:uuid:0c1d0466-f77c-4461-96e8-d8c5a0d7a788",
    "resource": {
      "resourceType": "Questionnaire",
      "id": "0c1d0466-f77c-4461-96e8-d8c5a0d7a788",
      "identifier": [ {
        "value": "59132"
      } ],
      "version": "2021-04-06T11:33:34.963Z",
      "status": "active",
      "experimental": false,
      "date": "2021-04-06T11:33:34+00:00",
      "publisher": "User ID: 'MCDONALDD' User name: 'Denzle McDonald' User skill set: 'T3'",
      "lastReviewDate": "2021-04-06",
      "subjectType": [ "Patient" ],
      "item": [ {
        "linkId": "59132",
        "prefix": "21300",
        "text": "RectalBleedingwithAbdominalPainPW",
        "type": "choice",
        "required": true,
        "repeats": false,
        "option": [ {
          "valueString": "==\"present\", Selected: false"
        }, {
          "valueString": "*, Selected: true"
        } ]
      } ]
    }
  }, {
    "fullUrl": "urn:uuid:d3b0d0da-7937-4a02-974c-cf46b51144ec",
    "resource": {
      "resourceType": "QuestionnaireResponse",
      "id": "d3b0d0da-7937-4a02-974c-cf46b51144ec",
      "identifier": {
        "value": "59132"
      },
      "questionnaire": {
        "reference": "urn:uuid:1b486d23-82ad-4602-aa06-cffb952ab5f6"
      },
      "status": "completed",
      "subject": {
        "reference": "urn:uuid:7caa3374-a574-4530-9cbd-0dcb80b77303"
      },
      "context": {
        "reference": "urn:uuid:ca5352bb-1bed-45a2-ad05-34e7616af2e3"
      },
      "authored": "2021-04-06T11:33:34+00:00",
      "item": [ {
        "linkId": "Tx224908",
        "text": "GITSymptomWithAbdominalPain",
        "answer": [ {
          "valueString": "==\"present\""
        } ]
      } ]
    }
  }, {
    "fullUrl": "urn:uuid:1b486d23-82ad-4602-aa06-cffb952ab5f6",
    "resource": {
      "resourceType": "Questionnaire",
      "id": "1b486d23-82ad-4602-aa06-cffb952ab5f6",
      "identifier": [ {
        "value": "59132"
      } ],
      "version": "2021-04-06T11:33:34.963Z",
      "status": "active",
      "experimental": false,
      "date": "2021-04-06T11:33:34+00:00",
      "publisher": "User ID: 'MCDONALDD' User name: 'Denzle McDonald' User skill set: 'T3'",
      "lastReviewDate": "2021-04-06",
      "subjectType": [ "Patient" ],
      "item": [ {
        "linkId": "59132",
        "prefix": "15700",
        "text": "GITSymptomWithAbdominalPain",
        "type": "choice",
        "required": true,
        "repeats": false,
        "option": [ {
          "valueString": "==\"present\", Selected: true"
        }, {
          "valueString": "*, Selected: false"
        } ]
      } ]
    }
  }, {
    "fullUrl": "urn:uuid:a0ebed66-b3de-42a4-bb68-2c7feeef3769",
    "resource": {
      "resourceType": "QuestionnaireResponse",
      "id": "a0ebed66-b3de-42a4-bb68-2c7feeef3769",
      "identifier": {
        "value": "59132"
      },
      "questionnaire": {
        "reference": "urn:uuid:fb8aa7d3-d988-42f3-8764-29bde4cedd7d"
      },
      "status": "completed",
      "subject": {
        "reference": "urn:uuid:7caa3374-a574-4530-9cbd-0dcb80b77303"
      },
      "context": {
        "reference": "urn:uuid:ca5352bb-1bed-45a2-ad05-34e7616af2e3"
      },
      "authored": "2021-04-06T11:33:34+00:00"
    }
  }, {
    "fullUrl": "urn:uuid:fb8aa7d3-d988-42f3-8764-29bde4cedd7d",
    "resource": {
      "resourceType": "Questionnaire",
      "id": "fb8aa7d3-d988-42f3-8764-29bde4cedd7d",
      "identifier": [ {
        "value": "59132"
      } ],
      "version": "2021-04-06T11:33:34.963Z",
      "status": "active",
      "experimental": false,
      "date": "2021-04-06T11:33:34+00:00",
      "publisher": "User ID: 'MCDONALDD' User name: 'Denzle McDonald' User skill set: 'T3'",
      "lastReviewDate": "2021-04-06",
      "subjectType": [ "Patient" ]
    }
  }, {
    "fullUrl": "urn:uuid:9b3c98fc-fb8b-4314-b590-013dbafc389a",
    "resource": {
      "resourceType": "QuestionnaireResponse",
      "id": "9b3c98fc-fb8b-4314-b590-013dbafc389a",
      "identifier": {
        "value": "59132"
      },
      "questionnaire": {
        "reference": "urn:uuid:9e70d36c-ab9c-463d-a8c9-de6add4a4ce7"
      },
      "status": "completed",
      "subject": {
        "reference": "urn:uuid:7caa3374-a574-4530-9cbd-0dcb80b77303"
      },
      "context": {
        "reference": "urn:uuid:ca5352bb-1bed-45a2-ad05-34e7616af2e3"
      },
      "authored": "2021-04-06T11:33:34+00:00",
      "item": [ {
        "linkId": "Tx221039",
        "text": "PATIENT_AGEGROUP",
        "answer": [ {
          "valueString": "==\"CHILD\""
        } ]
      } ]
    }
  }, {
    "fullUrl": "urn:uuid:9e70d36c-ab9c-463d-a8c9-de6add4a4ce7",
    "resource": {
      "resourceType": "Questionnaire",
      "id": "9e70d36c-ab9c-463d-a8c9-de6add4a4ce7",
      "identifier": [ {
        "value": "59132"
      } ],
      "version": "2021-04-06T11:33:34.963Z",
      "status": "active",
      "experimental": false,
      "date": "2021-04-06T11:33:34+00:00",
      "publisher": "User ID: 'MCDONALDD' User name: 'Denzle McDonald' User skill set: 'T3'",
      "lastReviewDate": "2021-04-06",
      "subjectType": [ "Patient" ],
      "item": [ {
        "linkId": "59132",
        "prefix": "0",
        "text": "PATIENT_AGEGROUP",
        "type": "choice",
        "required": true,
        "repeats": false,
        "option": [ {
          "valueString": "==\"ADULT\", Selected: false"
        }, {
          "valueString": "==\"CHILD\", Selected: true"
        }, {
          "valueString": "==\"TODDLER\", Selected: false"
        }, {
          "valueString": "==\"INFANT\", Selected: false"
        }, {
          "valueString": "==\"NEONATE\", Selected: false"
        }, {
          "valueString": "*, Selected: false"
        } ]
      } ]
    }
  }, {
    "fullUrl": "urn:uuid:0e233c03-4fe5-4600-9c3f-aa4c8305f19f",
    "resource": {
      "resourceType": "QuestionnaireResponse",
      "id": "0e233c03-4fe5-4600-9c3f-aa4c8305f19f",
      "identifier": {
        "value": "59132"
      },
      "questionnaire": {
        "reference": "urn:uuid:975253cb-0f0a-4a9f-b43f-ea1af6e06911"
      },
      "status": "completed",
      "subject": {
        "reference": "urn:uuid:7caa3374-a574-4530-9cbd-0dcb80b77303"
      },
      "context": {
        "reference": "urn:uuid:ca5352bb-1bed-45a2-ad05-34e7616af2e3"
      },
      "authored": "2021-04-06T11:33:34+00:00",
      "item": [ {
        "linkId": "Tx220156",
        "text": "How bad is the pain?",
        "answer": [ {
          "valueString": "bad enough to interfere with normal activity"
        } ]
      } ]
    }
  }, {
    "fullUrl": "urn:uuid:975253cb-0f0a-4a9f-b43f-ea1af6e06911",
    "resource": {
      "resourceType": "Questionnaire",
      "id": "975253cb-0f0a-4a9f-b43f-ea1af6e06911",
      "identifier": [ {
        "value": "59132"
      } ],
      "version": "2021-04-06T11:33:34.963Z",
      "status": "active",
      "experimental": false,
      "date": "2021-04-06T11:33:34+00:00",
      "publisher": "User ID: 'MCDONALDD' User name: 'Denzle McDonald' User skill set: 'T3'",
      "lastReviewDate": "2021-04-06",
      "subjectType": [ "Patient" ],
      "item": [ {
        "linkId": "59132",
        "prefix": "6500",
        "text": "How bad is the pain?",
        "type": "choice",
        "required": true,
        "repeats": false,
        "option": [ {
          "valueString": "so bad that doing anything is impossible, Selected: false"
        }, {
          "valueString": "bad enough to interfere with normal activity, Selected: true"
        }, {
          "valueString": "neither of the above, Selected: false"
        } ]
      } ]
    }
  }, {
    "fullUrl": "urn:uuid:f72fe83d-9aa8-4ab5-a2f4-27a7c411357e",
    "resource": {
      "resourceType": "QuestionnaireResponse",
      "id": "f72fe83d-9aa8-4ab5-a2f4-27a7c411357e",
      "identifier": {
        "value": "59132"
      },
      "questionnaire": {
        "reference": "urn:uuid:f1ed912f-a852-4afe-a3c4-228afa39fa71"
      },
      "status": "completed",
      "subject": {
        "reference": "urn:uuid:7caa3374-a574-4530-9cbd-0dcb80b77303"
      },
      "context": {
        "reference": "urn:uuid:ca5352bb-1bed-45a2-ad05-34e7616af2e3"
      },
      "authored": "2021-04-06T11:33:34+00:00",
      "item": [ {
        "linkId": "Tx224664",
        "text": "STRING:ModeratePain",
        "answer": [ {
          "valueString": "\"present\""
        } ]
      } ]
    }
  }, {
    "fullUrl": "urn:uuid:f1ed912f-a852-4afe-a3c4-228afa39fa71",
    "resource": {
      "resourceType": "Questionnaire",
      "id": "f1ed912f-a852-4afe-a3c4-228afa39fa71",
      "identifier": [ {
        "value": "59132"
      } ],
      "version": "2021-04-06T11:33:34.963Z",
      "status": "active",
      "experimental": false,
      "date": "2021-04-06T11:33:34+00:00",
      "publisher": "User ID: 'MCDONALDD' User name: 'Denzle McDonald' User skill set: 'T3'",
      "lastReviewDate": "2021-04-06",
      "subjectType": [ "Patient" ],
      "item": [ {
        "linkId": "59132",
        "prefix": "6600",
        "text": "STRING:ModeratePain",
        "type": "choice",
        "required": true,
        "repeats": false,
        "option": [ {
          "valueString": "\"present\", Selected: true"
        } ]
      } ]
    }
  }, {
    "fullUrl": "urn:uuid:a49437dc-e219-4e1e-9407-cc8f11374c85",
    "resource": {
      "resourceType": "QuestionnaireResponse",
      "id": "a49437dc-e219-4e1e-9407-cc8f11374c85",
      "identifier": {
        "value": "59132"
      },
      "questionnaire": {
        "reference": "urn:uuid:3f044b88-beb6-4570-8e24-9eaabeefd444"
      },
      "status": "completed",
      "subject": {
        "reference": "urn:uuid:7caa3374-a574-4530-9cbd-0dcb80b77303"
      },
      "context": {
        "reference": "urn:uuid:ca5352bb-1bed-45a2-ad05-34e7616af2e3"
      },
      "authored": "2021-04-06T11:33:34+00:00",
      "item": [ {
        "linkId": "Tx170003",
        "text": "PATIENT_PARTY",
        "answer": [ {
          "valueString": "==1"
        } ]
      } ]
    }
  }, {
    "fullUrl": "urn:uuid:3f044b88-beb6-4570-8e24-9eaabeefd444",
    "resource": {
      "resourceType": "Questionnaire",
      "id": "3f044b88-beb6-4570-8e24-9eaabeefd444",
      "identifier": [ {
        "value": "59132"
      } ],
      "version": "2021-04-06T11:33:34.963Z",
      "status": "active",
      "experimental": false,
      "date": "2021-04-06T11:33:34+00:00",
      "publisher": "User ID: 'MCDONALDD' User name: 'Denzle McDonald' User skill set: 'T3'",
      "lastReviewDate": "2021-04-06",
      "subjectType": [ "Patient" ],
      "item": [ {
        "linkId": "59132",
        "prefix": "6800",
        "text": "PATIENT_PARTY",
        "type": "choice",
        "required": true,
        "repeats": false,
        "option": [ {
          "valueString": "==1, Selected: true"
        }, {
          "valueString": "==3, Selected: false"
        }, {
          "valueString": "*, Selected: false"
        } ]
      } ]
    }
  }, {
    "fullUrl": "urn:uuid:d2ca1395-ddeb-4c09-a702-3d8e60b12f9d",
    "resource": {
      "resourceType": "QuestionnaireResponse",
      "id": "d2ca1395-ddeb-4c09-a702-3d8e60b12f9d",
      "identifier": {
        "value": "59132"
      },
      "questionnaire": {
        "reference": "urn:uuid:fca7e6a9-7a64-49bc-b757-4c04969bcfd4"
      },
      "status": "completed",
      "subject": {
        "reference": "urn:uuid:7caa3374-a574-4530-9cbd-0dcb80b77303"
      },
      "context": {
        "reference": "urn:uuid:ca5352bb-1bed-45a2-ad05-34e7616af2e3"
      },
      "authored": "2021-04-06T11:33:34+00:00",
      "item": [ {
        "linkId": "Tx224190",
        "text": "Are you so ill that you have stopped doing ALL of your usual activities?",
        "answer": [ {
          "valueString": "no - well enough to do MOST or all activities"
        } ]
      } ]
    }
  }, {
    "fullUrl": "urn:uuid:fca7e6a9-7a64-49bc-b757-4c04969bcfd4",
    "resource": {
      "resourceType": "Questionnaire",
      "id": "fca7e6a9-7a64-49bc-b757-4c04969bcfd4",
      "identifier": [ {
        "value": "59132"
      } ],
      "version": "2021-04-06T11:33:34.963Z",
      "status": "active",
      "experimental": false,
      "date": "2021-04-06T11:33:34+00:00",
      "publisher": "User ID: 'MCDONALDD' User name: 'Denzle McDonald' User skill set: 'T3'",
      "lastReviewDate": "2021-04-06",
      "subjectType": [ "Patient" ],
      "item": [ {
        "linkId": "59132",
        "prefix": "6900",
        "text": "Are you so ill that you have stopped doing ALL of your usual activities?",
        "type": "choice",
        "required": true,
        "repeats": false,
        "option": [ {
          "valueString": "yes - so ill they have stopped doing ALL normal activities, Selected: false"
        }, {
          "valueString": "no - unwell but able to do SOME normal activities, Selected: false"
        }, {
          "valueString": "no - well enough to do MOST or all activities, Selected: true"
        } ]
      } ]
    }
  }, {
    "fullUrl": "urn:uuid:fdd46f5f-2fab-4c40-9d16-f56db9f35d62",
    "resource": {
      "resourceType": "QuestionnaireResponse",
      "id": "fdd46f5f-2fab-4c40-9d16-f56db9f35d62",
      "identifier": {
        "value": "59132"
      },
      "questionnaire": {
        "reference": "urn:uuid:9b6c1a75-dd01-4651-85dd-5ae6f53a88df"
      },
      "status": "completed",
      "subject": {
        "reference": "urn:uuid:7caa3374-a574-4530-9cbd-0dcb80b77303"
      },
      "context": {
        "reference": "urn:uuid:ca5352bb-1bed-45a2-ad05-34e7616af2e3"
      },
      "authored": "2021-04-06T11:33:34+00:00",
      "item": [ {
        "linkId": "Tx224916",
        "text": "FlankPainPW",
        "answer": [ {
          "valueString": "*"
        } ]
      } ]
    }
  }, {
    "fullUrl": "urn:uuid:9b6c1a75-dd01-4651-85dd-5ae6f53a88df",
    "resource": {
      "resourceType": "Questionnaire",
      "id": "9b6c1a75-dd01-4651-85dd-5ae6f53a88df",
      "identifier": [ {
        "value": "59132"
      } ],
      "version": "2021-04-06T11:33:34.963Z",
      "status": "active",
      "experimental": false,
      "date": "2021-04-06T11:33:34+00:00",
      "publisher": "User ID: 'MCDONALDD' User name: 'Denzle McDonald' User skill set: 'T3'",
      "lastReviewDate": "2021-04-06",
      "subjectType": [ "Patient" ],
      "item": [ {
        "linkId": "59132",
        "prefix": "26500",
        "text": "FlankPainPW",
        "type": "choice",
        "required": true,
        "repeats": false,
        "option": [ {
          "valueString": "==\"present\", Selected: false"
        }, {
          "valueString": "*, Selected: true"
        } ]
      } ]
    }
  }, {
    "fullUrl": "urn:uuid:44c75c91-3069-40ca-91bb-17ff317c6a73",
    "resource": {
      "resourceType": "QuestionnaireResponse",
      "id": "44c75c91-3069-40ca-91bb-17ff317c6a73",
      "identifier": {
        "value": "59132"
      },
      "questionnaire": {
        "reference": "urn:uuid:1caf557d-7260-4678-b2ab-8221a608ad63"
      },
      "status": "completed",
      "subject": {
        "reference": "urn:uuid:7caa3374-a574-4530-9cbd-0dcb80b77303"
      },
      "context": {
        "reference": "urn:uuid:ca5352bb-1bed-45a2-ad05-34e7616af2e3"
      },
      "authored": "2021-04-06T11:33:34+00:00",
      "item": [ {
        "linkId": "Tx222766",
        "text": "PregnancyOver20Weeks",
        "answer": [ {
          "valueString": "*"
        } ]
      } ]
    }
  }, {
    "fullUrl": "urn:uuid:1caf557d-7260-4678-b2ab-8221a608ad63",
    "resource": {
      "resourceType": "Questionnaire",
      "id": "1caf557d-7260-4678-b2ab-8221a608ad63",
      "identifier": [ {
        "value": "59132"
      } ],
      "version": "2021-04-06T11:33:34.963Z",
      "status": "active",
      "experimental": false,
      "date": "2021-04-06T11:33:34+00:00",
      "publisher": "User ID: 'MCDONALDD' User name: 'Denzle McDonald' User skill set: 'T3'",
      "lastReviewDate": "2021-04-06",
      "subjectType": [ "Patient" ],
      "item": [ {
        "linkId": "59132",
        "prefix": "16100",
        "text": "PregnancyOver20Weeks",
        "type": "choice",
        "required": true,
        "repeats": false,
        "option": [ {
          "valueString": "==\"present\", Selected: false"
        }, {
          "valueString": "*, Selected: true"
        } ]
      } ]
    }
  }, {
    "fullUrl": "urn:uuid:35d50c78-8e9a-45bd-a6c9-09bed8692888",
    "resource": {
      "resourceType": "QuestionnaireResponse",
      "id": "35d50c78-8e9a-45bd-a6c9-09bed8692888",
      "identifier": {
        "value": "59132"
      },
      "questionnaire": {
        "reference": "urn:uuid:6b772271-c3ee-4abc-b073-b07823477339"
      },
      "status": "completed",
      "subject": {
        "reference": "urn:uuid:7caa3374-a574-4530-9cbd-0dcb80b77303"
      },
      "context": {
        "reference": "urn:uuid:ca5352bb-1bed-45a2-ad05-34e7616af2e3"
      },
      "authored": "2021-04-06T11:33:34+00:00",
      "item": [ {
        "linkId": "Tx225151",
        "text": "RectalBleedingwithAbdominalPainPW",
        "answer": [ {
          "valueString": "*"
        } ]
      } ]
    }
  }, {
    "fullUrl": "urn:uuid:6b772271-c3ee-4abc-b073-b07823477339",
    "resource": {
      "resourceType": "Questionnaire",
      "id": "6b772271-c3ee-4abc-b073-b07823477339",
      "identifier": [ {
        "value": "59132"
      } ],
      "version": "2021-04-06T11:33:34.963Z",
      "status": "active",
      "experimental": false,
      "date": "2021-04-06T11:33:34+00:00",
      "publisher": "User ID: 'MCDONALDD' User name: 'Denzle McDonald' User skill set: 'T3'",
      "lastReviewDate": "2021-04-06",
      "subjectType": [ "Patient" ],
      "item": [ {
        "linkId": "59132",
        "prefix": "26200",
        "text": "RectalBleedingwithAbdominalPainPW",
        "type": "choice",
        "required": true,
        "repeats": false,
        "option": [ {
          "valueString": "==\"present\", Selected: false"
        }, {
          "valueString": "*, Selected: true"
        } ]
      } ]
    }
  }, {
    "fullUrl": "urn:uuid:953e75e1-ae19-4d78-8b65-333d07bdf9d5",
    "resource": {
      "resourceType": "QuestionnaireResponse",
      "id": "953e75e1-ae19-4d78-8b65-333d07bdf9d5",
      "identifier": {
        "value": "59132"
      },
      "questionnaire": {
        "reference": "urn:uuid:2e568120-194d-41b4-9379-bf3c674f5d87"
      },
      "status": "completed",
      "subject": {
        "reference": "urn:uuid:7caa3374-a574-4530-9cbd-0dcb80b77303"
      },
      "context": {
        "reference": "urn:uuid:ca5352bb-1bed-45a2-ad05-34e7616af2e3"
      },
      "authored": "2021-04-06T11:33:34+00:00",
      "item": [ {
        "linkId": "Tx221119",
        "text": "SeverelyIll",
        "answer": [ {
          "valueString": "*"
        } ]
      } ]
    }
  }, {
    "fullUrl": "urn:uuid:2e568120-194d-41b4-9379-bf3c674f5d87",
    "resource": {
      "resourceType": "Questionnaire",
      "id": "2e568120-194d-41b4-9379-bf3c674f5d87",
      "identifier": [ {
        "value": "59132"
      } ],
      "version": "2021-04-06T11:33:34.963Z",
      "status": "active",
      "experimental": false,
      "date": "2021-04-06T11:33:34+00:00",
      "publisher": "User ID: 'MCDONALDD' User name: 'Denzle McDonald' User skill set: 'T3'",
      "lastReviewDate": "2021-04-06",
      "subjectType": [ "Patient" ],
      "item": [ {
        "linkId": "59132",
        "prefix": "7500",
        "text": "SeverelyIll",
        "type": "choice",
        "required": true,
        "repeats": false,
        "option": [ {
          "valueString": "==\"present\", Selected: false"
        }, {
          "valueString": "*, Selected: true"
        } ]
      } ]
    }
  }, {
    "fullUrl": "urn:uuid:477b211d-1d85-453d-92ea-f89dcd5bce72",
    "resource": {
      "resourceType": "QuestionnaireResponse",
      "id": "477b211d-1d85-453d-92ea-f89dcd5bce72",
      "identifier": {
        "value": "59132"
      },
      "questionnaire": {
        "reference": "urn:uuid:2067e93d-dc64-4ab4-97b7-999c2b1e727d"
      },
      "status": "completed",
      "subject": {
        "reference": "urn:uuid:7caa3374-a574-4530-9cbd-0dcb80b77303"
      },
      "context": {
        "reference": "urn:uuid:ca5352bb-1bed-45a2-ad05-34e7616af2e3"
      },
      "authored": "2021-04-06T11:33:34+00:00",
      "item": [ {
        "linkId": "Tx224934",
        "text": "GroinPainOrSwellingPWAbdominalPainPW",
        "answer": [ {
          "valueString": "*"
        } ]
      } ]
    }
  }, {
    "fullUrl": "urn:uuid:2067e93d-dc64-4ab4-97b7-999c2b1e727d",
    "resource": {
      "resourceType": "Questionnaire",
      "id": "2067e93d-dc64-4ab4-97b7-999c2b1e727d",
      "identifier": [ {
        "value": "59132"
      } ],
      "version": "2021-04-06T11:33:34.963Z",
      "status": "active",
      "experimental": false,
      "date": "2021-04-06T11:33:34+00:00",
      "publisher": "User ID: 'MCDONALDD' User name: 'Denzle McDonald' User skill set: 'T3'",
      "lastReviewDate": "2021-04-06",
      "subjectType": [ "Patient" ],
      "item": [ {
        "linkId": "59132",
        "prefix": "23300",
        "text": "GroinPainOrSwellingPWAbdominalPainPW",
        "type": "choice",
        "required": true,
        "repeats": false,
        "option": [ {
          "valueString": "==\"present\", Selected: false"
        }, {
          "valueString": "*, Selected: true"
        } ]
      } ]
    }
  }, {
    "fullUrl": "urn:uuid:28280b12-6d46-4162-b350-b124e98cbc05",
    "resource": {
      "resourceType": "QuestionnaireResponse",
      "id": "28280b12-6d46-4162-b350-b124e98cbc05",
      "identifier": {
        "value": "59132"
      },
      "questionnaire": {
        "reference": "urn:uuid:ffbdc2fb-6a48-43da-8bd2-75c4f56922f5"
      },
      "status": "completed",
      "subject": {
        "reference": "urn:uuid:7caa3374-a574-4530-9cbd-0dcb80b77303"
      },
      "context": {
        "reference": "urn:uuid:ca5352bb-1bed-45a2-ad05-34e7616af2e3"
      },
      "authored": "2021-04-06T11:33:34+00:00",
      "item": [ {
        "linkId": "Tx224906",
        "text": "AbdominalPainPW",
        "answer": [ {
          "valueString": "*"
        } ]
      } ]
    }
  }, {
    "fullUrl": "urn:uuid:ffbdc2fb-6a48-43da-8bd2-75c4f56922f5",
    "resource": {
      "resourceType": "Questionnaire",
      "id": "ffbdc2fb-6a48-43da-8bd2-75c4f56922f5",
      "identifier": [ {
        "value": "59132"
      } ],
      "version": "2021-04-06T11:33:34.963Z",
      "status": "active",
      "experimental": false,
      "date": "2021-04-06T11:33:34+00:00",
      "publisher": "User ID: 'MCDONALDD' User name: 'Denzle McDonald' User skill set: 'T3'",
      "lastReviewDate": "2021-04-06",
      "subjectType": [ "Patient" ],
      "item": [ {
        "linkId": "59132",
        "prefix": "23400",
        "text": "AbdominalPainPW",
        "type": "choice",
        "required": true,
        "repeats": false,
        "option": [ {
          "valueString": "==\"present\", Selected: false"
        }, {
          "valueString": "*, Selected: true"
        } ]
      } ]
    }
  }, {
    "fullUrl": "urn:uuid:cfc7d678-b95c-4f1f-9f5d-f0a0709c15b4",
    "resource": {
      "resourceType": "QuestionnaireResponse",
      "id": "cfc7d678-b95c-4f1f-9f5d-f0a0709c15b4",
      "identifier": {
        "value": "59132"
      },
      "questionnaire": {
        "reference": "urn:uuid:6a1db618-c4cd-4990-822b-292899089e96"
      },
      "status": "completed",
      "subject": {
        "reference": "urn:uuid:7caa3374-a574-4530-9cbd-0dcb80b77303"
      },
      "context": {
        "reference": "urn:uuid:ca5352bb-1bed-45a2-ad05-34e7616af2e3"
      },
      "authored": "2021-04-06T11:33:34+00:00",
      "item": [ {
        "linkId": "Tx224928",
        "text": "VomitingAnd/OrNauseaWithAbdominalPainPW",
        "answer": [ {
          "valueString": "==\"present\""
        } ]
      } ]
    }
  }, {
    "fullUrl": "urn:uuid:6a1db618-c4cd-4990-822b-292899089e96",
    "resource": {
      "resourceType": "Questionnaire",
      "id": "6a1db618-c4cd-4990-822b-292899089e96",
      "identifier": [ {
        "value": "59132"
      } ],
      "version": "2021-04-06T11:33:34.963Z",
      "status": "active",
      "experimental": false,
      "date": "2021-04-06T11:33:34+00:00",
      "publisher": "User ID: 'MCDONALDD' User name: 'Denzle McDonald' User skill set: 'T3'",
      "lastReviewDate": "2021-04-06",
      "subjectType": [ "Patient" ],
      "item": [ {
        "linkId": "59132",
        "prefix": "23500",
        "text": "VomitingAnd/OrNauseaWithAbdominalPainPW",
        "type": "choice",
        "required": true,
        "repeats": false,
        "option": [ {
          "valueString": "==\"present\", Selected: true"
        }, {
          "valueString": "*, Selected: false"
        } ]
      } ]
    }
  }, {
    "fullUrl": "urn:uuid:6cf8244e-1b4c-45a2-b3a6-a5bea49430eb",
    "resource": {
      "resourceType": "QuestionnaireResponse",
      "id": "6cf8244e-1b4c-45a2-b3a6-a5bea49430eb",
      "identifier": {
        "value": "59132"
      },
      "questionnaire": {
        "reference": "urn:uuid:b2d37f1d-55e8-490f-a322-1a6e2c9996fd"
      },
      "status": "completed",
      "subject": {
        "reference": "urn:uuid:7caa3374-a574-4530-9cbd-0dcb80b77303"
      },
      "context": {
        "reference": "urn:uuid:ca5352bb-1bed-45a2-ad05-34e7616af2e3"
      },
      "authored": "2021-04-06T11:33:34+00:00",
      "item": [ {
        "linkId": "Tx221017",
        "text": "PATIENT_GENDER",
        "answer": [ {
          "valueString": "==\"F\""
        } ]
      } ]
    }
  }, {
    "fullUrl": "urn:uuid:b2d37f1d-55e8-490f-a322-1a6e2c9996fd",
    "resource": {
      "resourceType": "Questionnaire",
      "id": "b2d37f1d-55e8-490f-a322-1a6e2c9996fd",
      "identifier": [ {
        "value": "59132"
      } ],
      "version": "2021-04-06T11:33:34.963Z",
      "status": "active",
      "experimental": false,
      "date": "2021-04-06T11:33:34+00:00",
      "publisher": "User ID: 'MCDONALDD' User name: 'Denzle McDonald' User skill set: 'T3'",
      "lastReviewDate": "2021-04-06",
      "subjectType": [ "Patient" ],
      "item": [ {
        "linkId": "59132",
        "prefix": "9000",
        "text": "PATIENT_GENDER",
        "type": "choice",
        "required": true,
        "repeats": false,
        "option": [ {
          "valueString": "==\"M\", Selected: false"
        }, {
          "valueString": "==\"F\", Selected: true"
        }, {
          "valueString": "==\"U\", Selected: false"
        }, {
          "valueString": "*, Selected: false"
        } ]
      } ]
    }
  }, {
    "fullUrl": "urn:uuid:bbbdcf87-8c4d-420d-a77a-5446254f4b23",
    "resource": {
      "resourceType": "QuestionnaireResponse",
      "id": "bbbdcf87-8c4d-420d-a77a-5446254f4b23",
      "identifier": {
        "value": "59132"
      },
      "questionnaire": {
        "reference": "urn:uuid:86556eca-f69d-4e38-8815-ab631442a5f9"
      },
      "status": "completed",
      "subject": {
        "reference": "urn:uuid:7caa3374-a574-4530-9cbd-0dcb80b77303"
      },
      "context": {
        "reference": "urn:uuid:ca5352bb-1bed-45a2-ad05-34e7616af2e3"
      },
      "authored": "2021-04-06T11:33:34+00:00"
    }
  }, {
    "fullUrl": "urn:uuid:86556eca-f69d-4e38-8815-ab631442a5f9",
    "resource": {
      "resourceType": "Questionnaire",
      "id": "86556eca-f69d-4e38-8815-ab631442a5f9",
      "identifier": [ {
        "value": "59132"
      } ],
      "version": "2021-04-06T11:33:34.963Z",
      "status": "active",
      "experimental": false,
      "date": "2021-04-06T11:33:34+00:00",
      "publisher": "User ID: 'MCDONALDD' User name: 'Denzle McDonald' User skill set: 'T3'",
      "lastReviewDate": "2021-04-06",
      "subjectType": [ "Patient" ]
    }
  }, {
    "fullUrl": "urn:uuid:ed4d248b-0569-461c-aefb-d4d0c0179db9",
    "resource": {
      "resourceType": "QuestionnaireResponse",
      "id": "ed4d248b-0569-461c-aefb-d4d0c0179db9",
      "identifier": {
        "value": "59132"
      },
      "questionnaire": {
        "reference": "urn:uuid:9f6dd63b-0ab4-403a-9038-068afeb44a46"
      },
      "status": "completed",
      "subject": {
        "reference": "urn:uuid:7caa3374-a574-4530-9cbd-0dcb80b77303"
      },
      "context": {
        "reference": "urn:uuid:ca5352bb-1bed-45a2-ad05-34e7616af2e3"
      },
      "authored": "2021-04-06T11:33:34+00:00",
      "item": [ {
        "linkId": "Tx221114",
        "text": "Pregnancy",
        "answer": [ {
          "valueString": "*"
        } ]
      } ]
    }
  }, {
    "fullUrl": "urn:uuid:9f6dd63b-0ab4-403a-9038-068afeb44a46",
    "resource": {
      "resourceType": "Questionnaire",
      "id": "9f6dd63b-0ab4-403a-9038-068afeb44a46",
      "identifier": [ {
        "value": "59132"
      } ],
      "version": "2021-04-06T11:33:34.963Z",
      "status": "active",
      "experimental": false,
      "date": "2021-04-06T11:33:34+00:00",
      "publisher": "User ID: 'MCDONALDD' User name: 'Denzle McDonald' User skill set: 'T3'",
      "lastReviewDate": "2021-04-06",
      "subjectType": [ "Patient" ],
      "item": [ {
        "linkId": "59132",
        "prefix": "64500",
        "text": "Pregnancy",
        "type": "choice",
        "required": true,
        "repeats": false,
        "option": [ {
          "valueString": "==\"present\", Selected: false"
        }, {
          "valueString": "*, Selected: true"
        } ]
      } ]
    }
  }, {
    "fullUrl": "urn:uuid:0644bac4-5fd3-4d21-a1c5-304b850dde65",
    "resource": {
      "resourceType": "QuestionnaireResponse",
      "id": "0644bac4-5fd3-4d21-a1c5-304b850dde65",
      "identifier": {
        "value": "59132"
      },
      "questionnaire": {
        "reference": "urn:uuid:f870b505-03b0-4da9-89bd-528a2a10b883"
      },
      "status": "completed",
      "subject": {
        "reference": "urn:uuid:7caa3374-a574-4530-9cbd-0dcb80b77303"
      },
      "context": {
        "reference": "urn:uuid:ca5352bb-1bed-45a2-ad05-34e7616af2e3"
      },
      "authored": "2021-04-06T11:33:34+00:00",
      "item": [ {
        "linkId": "Tx221338",
        "text": ">=11yearsConfirmed",
        "answer": [ {
          "valueString": "*"
        } ]
      } ]
    }
  }, {
    "fullUrl": "urn:uuid:f870b505-03b0-4da9-89bd-528a2a10b883",
    "resource": {
      "resourceType": "Questionnaire",
      "id": "f870b505-03b0-4da9-89bd-528a2a10b883",
      "identifier": [ {
        "value": "59132"
      } ],
      "version": "2021-04-06T11:33:34.963Z",
      "status": "active",
      "experimental": false,
      "date": "2021-04-06T11:33:34+00:00",
      "publisher": "User ID: 'MCDONALDD' User name: 'Denzle McDonald' User skill set: 'T3'",
      "lastReviewDate": "2021-04-06",
      "subjectType": [ "Patient" ],
      "item": [ {
        "linkId": "59132",
        "prefix": "65600",
        "text": ">=11yearsConfirmed",
        "type": "choice",
        "required": true,
        "repeats": false,
        "option": [ {
          "valueString": "==\"present\", Selected: false"
        }, {
          "valueString": "*, Selected: true"
        } ]
      } ]
    }
  }, {
    "fullUrl": "urn:uuid:95e46bea-7060-475a-94bb-81b3a0cd7457",
    "resource": {
      "resourceType": "QuestionnaireResponse",
      "id": "95e46bea-7060-475a-94bb-81b3a0cd7457",
      "identifier": {
        "value": "59132"
      },
      "questionnaire": {
        "reference": "urn:uuid:ec0d5671-01e8-42c4-864a-f2d383855f22"
      },
      "status": "completed",
      "subject": {
        "reference": "urn:uuid:7caa3374-a574-4530-9cbd-0dcb80b77303"
      },
      "context": {
        "reference": "urn:uuid:ca5352bb-1bed-45a2-ad05-34e7616af2e3"
      },
      "authored": "2021-04-06T11:33:34+00:00",
      "item": [ {
        "linkId": "Tx221119",
        "text": "SeverelyIll",
        "answer": [ {
          "valueString": "*"
        } ]
      } ]
    }
  }, {
    "fullUrl": "urn:uuid:ec0d5671-01e8-42c4-864a-f2d383855f22",
    "resource": {
      "resourceType": "Questionnaire",
      "id": "ec0d5671-01e8-42c4-864a-f2d383855f22",
      "identifier": [ {
        "value": "59132"
      } ],
      "version": "2021-04-06T11:33:34.963Z",
      "status": "active",
      "experimental": false,
      "date": "2021-04-06T11:33:34+00:00",
      "publisher": "User ID: 'MCDONALDD' User name: 'Denzle McDonald' User skill set: 'T3'",
      "lastReviewDate": "2021-04-06",
      "subjectType": [ "Patient" ],
      "item": [ {
        "linkId": "59132",
        "prefix": "46200",
        "text": "SeverelyIll",
        "type": "choice",
        "required": true,
        "repeats": false,
        "option": [ {
          "valueString": "==\"present\", Selected: false"
        }, {
          "valueString": "*, Selected: true"
        } ]
      } ]
    }
  }, {
    "fullUrl": "urn:uuid:112c0118-79f8-4603-be52-c3672ae008b4",
    "resource": {
      "resourceType": "QuestionnaireResponse",
      "id": "112c0118-79f8-4603-be52-c3672ae008b4",
      "identifier": {
        "value": "59132"
      },
      "questionnaire": {
        "reference": "urn:uuid:bc8beb3f-9c3f-48db-9d80-95361b1a22eb"
      },
      "status": "completed",
      "subject": {
        "reference": "urn:uuid:7caa3374-a574-4530-9cbd-0dcb80b77303"
      },
      "context": {
        "reference": "urn:uuid:ca5352bb-1bed-45a2-ad05-34e7616af2e3"
      },
      "authored": "2021-04-06T11:33:34+00:00",
      "item": [ {
        "linkId": "Tx220947",
        "text": "SeverePain",
        "answer": [ {
          "valueString": "*"
        } ]
      } ]
    }
  }, {
    "fullUrl": "urn:uuid:bc8beb3f-9c3f-48db-9d80-95361b1a22eb",
    "resource": {
      "resourceType": "Questionnaire",
      "id": "bc8beb3f-9c3f-48db-9d80-95361b1a22eb",
      "identifier": [ {
        "value": "59132"
      } ],
      "version": "2021-04-06T11:33:34.963Z",
      "status": "active",
      "experimental": false,
      "date": "2021-04-06T11:33:34+00:00",
      "publisher": "User ID: 'MCDONALDD' User name: 'Denzle McDonald' User skill set: 'T3'",
      "lastReviewDate": "2021-04-06",
      "subjectType": [ "Patient" ],
      "item": [ {
        "linkId": "59132",
        "prefix": "64600",
        "text": "SeverePain",
        "type": "choice",
        "required": true,
        "repeats": false,
        "option": [ {
          "valueString": "==\"present\", Selected: false"
        }, {
          "valueString": "*, Selected: true"
        } ]
      } ]
    }
  }, {
    "fullUrl": "urn:uuid:61d3275e-d80d-4fea-ab1a-5918af06b707",
    "resource": {
      "resourceType": "QuestionnaireResponse",
      "id": "61d3275e-d80d-4fea-ab1a-5918af06b707",
      "identifier": {
        "value": "59132"
      },
      "questionnaire": {
        "reference": "urn:uuid:0f4ebb20-b085-4d11-a1e6-c43f50583c44"
      },
      "status": "completed",
      "subject": {
        "reference": "urn:uuid:7caa3374-a574-4530-9cbd-0dcb80b77303"
      },
      "context": {
        "reference": "urn:uuid:ca5352bb-1bed-45a2-ad05-34e7616af2e3"
      },
      "authored": "2021-04-06T11:33:34+00:00",
      "item": [ {
        "linkId": "Tx220114",
        "text": "Have you taken anything that might be harmful or poisonous?",
        "answer": [ {
          "valueString": "no"
        } ]
      } ]
    }
  }, {
    "fullUrl": "urn:uuid:0f4ebb20-b085-4d11-a1e6-c43f50583c44",
    "resource": {
      "resourceType": "Questionnaire",
      "id": "0f4ebb20-b085-4d11-a1e6-c43f50583c44",
      "identifier": [ {
        "value": "59132"
      } ],
      "version": "2021-04-06T11:33:34.963Z",
      "status": "active",
      "experimental": false,
      "date": "2021-04-06T11:33:34+00:00",
      "publisher": "User ID: 'MCDONALDD' User name: 'Denzle McDonald' User skill set: 'T3'",
      "lastReviewDate": "2021-04-06",
      "subjectType": [ "Patient" ],
      "item": [ {
        "linkId": "59132",
        "prefix": "30300",
        "text": "Have you taken anything that might be harmful or poisonous?",
        "type": "choice",
        "required": true,
        "repeats": false,
        "option": [ {
          "valueString": "yes (specify substance if known), Selected: false"
        }, {
          "valueString": "not sure, Selected: false"
        }, {
          "valueString": "no, Selected: true"
        } ]
      } ]
    }
  }, {
    "fullUrl": "urn:uuid:98d9f5b3-1c28-4f89-bca6-d05533819318",
    "resource": {
      "resourceType": "QuestionnaireResponse",
      "id": "98d9f5b3-1c28-4f89-bca6-d05533819318",
      "identifier": {
        "value": "59132"
      },
      "questionnaire": {
        "reference": "urn:uuid:7caf26b5-9085-4aa9-9d83-7270b1d32735"
      },
      "status": "completed",
      "subject": {
        "reference": "urn:uuid:7caa3374-a574-4530-9cbd-0dcb80b77303"
      },
      "context": {
        "reference": "urn:uuid:ca5352bb-1bed-45a2-ad05-34e7616af2e3"
      },
      "authored": "2021-04-06T11:33:34+00:00",
      "item": [ {
        "linkId": "Tx221176",
        "text": "PregnancyUnder20Weeks",
        "answer": [ {
          "valueString": "*"
        } ]
      } ]
    }
  }, {
    "fullUrl": "urn:uuid:7caf26b5-9085-4aa9-9d83-7270b1d32735",
    "resource": {
      "resourceType": "Questionnaire",
      "id": "7caf26b5-9085-4aa9-9d83-7270b1d32735",
      "identifier": [ {
        "value": "59132"
      } ],
      "version": "2021-04-06T11:33:34.963Z",
      "status": "active",
      "experimental": false,
      "date": "2021-04-06T11:33:34+00:00",
      "publisher": "User ID: 'MCDONALDD' User name: 'Denzle McDonald' User skill set: 'T3'",
      "lastReviewDate": "2021-04-06",
      "subjectType": [ "Patient" ],
      "item": [ {
        "linkId": "59132",
        "prefix": "7700",
        "text": "PregnancyUnder20Weeks",
        "type": "choice",
        "required": true,
        "repeats": false,
        "option": [ {
          "valueString": "==\"present\", Selected: false"
        }, {
          "valueString": "*, Selected: true"
        } ]
      } ]
    }
  }, {
    "fullUrl": "urn:uuid:38efe7d6-843d-4c3c-a812-f24cba4c0aa2",
    "resource": {
      "resourceType": "QuestionnaireResponse",
      "id": "38efe7d6-843d-4c3c-a812-f24cba4c0aa2",
      "identifier": {
        "value": "59132"
      },
      "questionnaire": {
        "reference": "urn:uuid:fff14e52-8016-4716-b504-b37798bd87c2"
      },
      "status": "completed",
      "subject": {
        "reference": "urn:uuid:7caa3374-a574-4530-9cbd-0dcb80b77303"
      },
      "context": {
        "reference": "urn:uuid:ca5352bb-1bed-45a2-ad05-34e7616af2e3"
      },
      "authored": "2021-04-06T11:33:34+00:00",
      "item": [ {
        "linkId": "Tx221338",
        "text": ">=11yearsConfirmed",
        "answer": [ {
          "valueString": "*"
        } ]
      } ]
    }
  }, {
    "fullUrl": "urn:uuid:fff14e52-8016-4716-b504-b37798bd87c2",
    "resource": {
      "resourceType": "Questionnaire",
      "id": "fff14e52-8016-4716-b504-b37798bd87c2",
      "identifier": [ {
        "value": "59132"
      } ],
      "version": "2021-04-06T11:33:34.963Z",
      "status": "active",
      "experimental": false,
      "date": "2021-04-06T11:33:34+00:00",
      "publisher": "User ID: 'MCDONALDD' User name: 'Denzle McDonald' User skill set: 'T3'",
      "lastReviewDate": "2021-04-06",
      "subjectType": [ "Patient" ],
      "item": [ {
        "linkId": "59132",
        "prefix": "8200",
        "text": ">=11yearsConfirmed",
        "type": "choice",
        "required": true,
        "repeats": false,
        "option": [ {
          "valueString": "==\"present\", Selected: false"
        }, {
          "valueString": "*, Selected: true"
        } ]
      } ]
    }
  }, {
    "fullUrl": "urn:uuid:c572981e-63a7-4b94-9101-aeb32f038347",
    "resource": {
      "resourceType": "QuestionnaireResponse",
      "id": "c572981e-63a7-4b94-9101-aeb32f038347",
      "identifier": {
        "value": "59132"
      },
      "questionnaire": {
        "reference": "urn:uuid:b1e14c7f-723f-4ed8-95a9-3be20e3349be"
      },
      "status": "completed",
      "subject": {
        "reference": "urn:uuid:7caa3374-a574-4530-9cbd-0dcb80b77303"
      },
      "context": {
        "reference": "urn:uuid:ca5352bb-1bed-45a2-ad05-34e7616af2e3"
      },
      "authored": "2021-04-06T11:33:34+00:00",
      "item": [ {
        "linkId": "Tx1033",
        "text": "Have you passed a bowel motion that looks like either of the following?",
        "answer": [ {
          "valueString": "no"
        } ]
      } ]
    }
  }, {
    "fullUrl": "urn:uuid:b1e14c7f-723f-4ed8-95a9-3be20e3349be",
    "resource": {
      "resourceType": "Questionnaire",
      "id": "b1e14c7f-723f-4ed8-95a9-3be20e3349be",
      "identifier": [ {
        "value": "59132"
      } ],
      "version": "2021-04-06T11:33:34.963Z",
      "status": "active",
      "experimental": false,
      "date": "2021-04-06T11:33:34+00:00",
      "publisher": "User ID: 'MCDONALDD' User name: 'Denzle McDonald' User skill set: 'T3'",
      "lastReviewDate": "2021-04-06",
      "subjectType": [ "Patient" ],
      "item": [ {
        "linkId": "59132",
        "prefix": "65200",
        "text": "Have you passed a bowel motion that looks like either of the following?",
        "type": "choice",
        "required": true,
        "repeats": false,
        "option": [ {
          "valueString": "black and tarry, Selected: false"
        }, {
          "valueString": "red or maroon, Selected: false"
        }, {
          "valueString": "not sure, Selected: false"
        }, {
          "valueString": "no, Selected: true"
        } ]
      } ]
    }
  }, {
    "fullUrl": "urn:uuid:d1f6c11d-cc13-4340-b367-f9a88ce8dcbd",
    "resource": {
      "resourceType": "QuestionnaireResponse",
      "id": "d1f6c11d-cc13-4340-b367-f9a88ce8dcbd",
      "identifier": {
        "value": "59132"
      },
      "questionnaire": {
        "reference": "urn:uuid:2e17081f-ac6d-49cc-a58a-c9eddeb11cea"
      },
      "status": "completed",
      "subject": {
        "reference": "urn:uuid:7caa3374-a574-4530-9cbd-0dcb80b77303"
      },
      "context": {
        "reference": "urn:uuid:ca5352bb-1bed-45a2-ad05-34e7616af2e3"
      },
      "authored": "2021-04-06T11:33:34+00:00",
      "item": [ {
        "linkId": "Tx223274",
        "text": "VHFSymptom",
        "answer": [ {
          "valueString": "*"
        } ]
      } ]
    }
  }, {
    "fullUrl": "urn:uuid:2e17081f-ac6d-49cc-a58a-c9eddeb11cea",
    "resource": {
      "resourceType": "Questionnaire",
      "id": "2e17081f-ac6d-49cc-a58a-c9eddeb11cea",
      "identifier": [ {
        "value": "59132"
      } ],
      "version": "2021-04-06T11:33:34.963Z",
      "status": "active",
      "experimental": false,
      "date": "2021-04-06T11:33:34+00:00",
      "publisher": "User ID: 'MCDONALDD' User name: 'Denzle McDonald' User skill set: 'T3'",
      "lastReviewDate": "2021-04-06",
      "subjectType": [ "Patient" ],
      "item": [ {
        "linkId": "59132",
        "prefix": "34000",
        "text": "VHFSymptom",
        "type": "choice",
        "required": true,
        "repeats": false,
        "option": [ {
          "valueString": "==\"present\", Selected: false"
        }, {
          "valueString": "*, Selected: true"
        } ]
      } ]
    }
  }, {
    "fullUrl": "urn:uuid:d0fc4739-40ed-417b-a034-1c271cbf6b27",
    "resource": {
      "resourceType": "QuestionnaireResponse",
      "id": "d0fc4739-40ed-417b-a034-1c271cbf6b27",
      "identifier": {
        "value": "59132"
      },
      "questionnaire": {
        "reference": "urn:uuid:7e98852e-8031-47a9-a8db-b1dec7fd5423"
      },
      "status": "completed",
      "subject": {
        "reference": "urn:uuid:7caa3374-a574-4530-9cbd-0dcb80b77303"
      },
      "context": {
        "reference": "urn:uuid:ca5352bb-1bed-45a2-ad05-34e7616af2e3"
      },
      "authored": "2021-04-06T11:33:34+00:00",
      "item": [ {
        "linkId": "Tx224075",
        "text": "SeverelyIllandConfused",
        "answer": [ {
          "valueString": "*"
        } ]
      } ]
    }
  }, {
    "fullUrl": "urn:uuid:7e98852e-8031-47a9-a8db-b1dec7fd5423",
    "resource": {
      "resourceType": "Questionnaire",
      "id": "7e98852e-8031-47a9-a8db-b1dec7fd5423",
      "identifier": [ {
        "value": "59132"
      } ],
      "version": "2021-04-06T11:33:34.963Z",
      "status": "active",
      "experimental": false,
      "date": "2021-04-06T11:33:34+00:00",
      "publisher": "User ID: 'MCDONALDD' User name: 'Denzle McDonald' User skill set: 'T3'",
      "lastReviewDate": "2021-04-06",
      "subjectType": [ "Patient" ],
      "item": [ {
        "linkId": "59132",
        "prefix": "47300",
        "text": "SeverelyIllandConfused",
        "type": "choice",
        "required": true,
        "repeats": false,
        "option": [ {
          "valueString": "==\"present\", Selected: false"
        }, {
          "valueString": "*, Selected: true"
        } ]
      } ]
    }
  }, {
    "fullUrl": "urn:uuid:2a005118-3931-452e-a4a0-a41ee670a601",
    "resource": {
      "resourceType": "QuestionnaireResponse",
      "id": "2a005118-3931-452e-a4a0-a41ee670a601",
      "identifier": {
        "value": "59132"
      },
      "questionnaire": {
        "reference": "urn:uuid:9245a8da-ee4c-40e7-a978-b67bc5d6a6b1"
      },
      "status": "completed",
      "subject": {
        "reference": "urn:uuid:7caa3374-a574-4530-9cbd-0dcb80b77303"
      },
      "context": {
        "reference": "urn:uuid:ca5352bb-1bed-45a2-ad05-34e7616af2e3"
      },
      "authored": "2021-04-06T11:33:34+00:00",
      "item": [ {
        "linkId": "Tx221119",
        "text": "SeverelyIll",
        "answer": [ {
          "valueString": "*"
        } ]
      } ]
    }
  }, {
    "fullUrl": "urn:uuid:9245a8da-ee4c-40e7-a978-b67bc5d6a6b1",
    "resource": {
      "resourceType": "Questionnaire",
      "id": "9245a8da-ee4c-40e7-a978-b67bc5d6a6b1",
      "identifier": [ {
        "value": "59132"
      } ],
      "version": "2021-04-06T11:33:34.963Z",
      "status": "active",
      "experimental": false,
      "date": "2021-04-06T11:33:34+00:00",
      "publisher": "User ID: 'MCDONALDD' User name: 'Denzle McDonald' User skill set: 'T3'",
      "lastReviewDate": "2021-04-06",
      "subjectType": [ "Patient" ],
      "item": [ {
        "linkId": "59132",
        "prefix": "55200",
        "text": "SeverelyIll",
        "type": "choice",
        "required": true,
        "repeats": false,
        "option": [ {
          "valueString": "==\"present\", Selected: false"
        }, {
          "valueString": "*, Selected: true"
        } ]
      } ]
    }
  }, {
    "fullUrl": "urn:uuid:91a28d2c-220f-4f9b-920d-506a54386fe6",
    "resource": {
      "resourceType": "QuestionnaireResponse",
      "id": "91a28d2c-220f-4f9b-920d-506a54386fe6",
      "identifier": {
        "value": "59132"
      },
      "questionnaire": {
        "reference": "urn:uuid:1934cbe5-2c0e-46a2-a564-298f95128248"
      },
      "status": "completed",
      "subject": {
        "reference": "urn:uuid:7caa3374-a574-4530-9cbd-0dcb80b77303"
      },
      "context": {
        "reference": "urn:uuid:ca5352bb-1bed-45a2-ad05-34e7616af2e3"
      },
      "authored": "2021-04-06T11:33:34+00:00",
      "item": [ {
        "linkId": "Tx223485",
        "text": "ConfusionDeclared",
        "answer": [ {
          "valueString": "*"
        } ]
      } ]
    }
  }, {
    "fullUrl": "urn:uuid:1934cbe5-2c0e-46a2-a564-298f95128248",
    "resource": {
      "resourceType": "Questionnaire",
      "id": "1934cbe5-2c0e-46a2-a564-298f95128248",
      "identifier": [ {
        "value": "59132"
      } ],
      "version": "2021-04-06T11:33:34.963Z",
      "status": "active",
      "experimental": false,
      "date": "2021-04-06T11:33:34+00:00",
      "publisher": "User ID: 'MCDONALDD' User name: 'Denzle McDonald' User skill set: 'T3'",
      "lastReviewDate": "2021-04-06",
      "subjectType": [ "Patient" ],
      "item": [ {
        "linkId": "59132",
        "prefix": "55600",
        "text": "ConfusionDeclared",
        "type": "choice",
        "required": true,
        "repeats": false,
        "option": [ {
          "valueString": "==\"present\", Selected: false"
        }, {
          "valueString": "*, Selected: true"
        } ]
      } ]
    }
  }, {
    "fullUrl": "urn:uuid:70cdcfeb-8142-438b-804e-f8bdf47f0797",
    "resource": {
      "resourceType": "QuestionnaireResponse",
      "id": "70cdcfeb-8142-438b-804e-f8bdf47f0797",
      "identifier": {
        "value": "59132"
      },
      "questionnaire": {
        "reference": "urn:uuid:ea5549c3-11fb-4c81-acc5-6277271bb461"
      },
      "status": "completed",
      "subject": {
        "reference": "urn:uuid:7caa3374-a574-4530-9cbd-0dcb80b77303"
      },
      "context": {
        "reference": "urn:uuid:ca5352bb-1bed-45a2-ad05-34e7616af2e3"
      },
      "authored": "2021-04-06T11:33:34+00:00",
      "item": [ {
        "linkId": "Tx1213",
        "text": "Have you suddenly become confused OR more confused than usual?",
        "answer": [ {
          "valueString": "no"
        } ]
      } ]
    }
  }, {
    "fullUrl": "urn:uuid:ea5549c3-11fb-4c81-acc5-6277271bb461",
    "resource": {
      "resourceType": "Questionnaire",
      "id": "ea5549c3-11fb-4c81-acc5-6277271bb461",
      "identifier": [ {
        "value": "59132"
      } ],
      "version": "2021-04-06T11:33:34.963Z",
      "status": "active",
      "experimental": false,
      "date": "2021-04-06T11:33:34+00:00",
      "publisher": "User ID: 'MCDONALDD' User name: 'Denzle McDonald' User skill set: 'T3'",
      "lastReviewDate": "2021-04-06",
      "subjectType": [ "Patient" ],
      "item": [ {
        "linkId": "59132",
        "prefix": "55500",
        "text": "Have you suddenly become confused OR more confused than usual?",
        "type": "choice",
        "required": true,
        "repeats": false,
        "option": [ {
          "valueString": "yes, Selected: false"
        }, {
          "valueString": "not sure, Selected: false"
        }, {
          "valueString": "no, Selected: true"
        } ]
      } ]
    }
  }, {
    "fullUrl": "urn:uuid:c9dbf0ee-4a12-411a-93de-e5b581edbb8d",
    "resource": {
      "resourceType": "QuestionnaireResponse",
      "id": "c9dbf0ee-4a12-411a-93de-e5b581edbb8d",
      "identifier": {
        "value": "59132"
      },
      "questionnaire": {
        "reference": "urn:uuid:14ba0916-5131-4de0-9e30-c4279d710da6"
      },
      "status": "completed",
      "subject": {
        "reference": "urn:uuid:7caa3374-a574-4530-9cbd-0dcb80b77303"
      },
      "context": {
        "reference": "urn:uuid:ca5352bb-1bed-45a2-ad05-34e7616af2e3"
      },
      "authored": "2021-04-06T11:33:34+00:00",
      "item": [ {
        "linkId": "Tx220164",
        "text": "Are you breathing faster or harder when doing nothing at all?",
        "answer": [ {
          "valueString": "no"
        } ]
      } ]
    }
  }, {
    "fullUrl": "urn:uuid:14ba0916-5131-4de0-9e30-c4279d710da6",
    "resource": {
      "resourceType": "Questionnaire",
      "id": "14ba0916-5131-4de0-9e30-c4279d710da6",
      "identifier": [ {
        "value": "59132"
      } ],
      "version": "2021-04-06T11:33:34.963Z",
      "status": "active",
      "experimental": false,
      "date": "2021-04-06T11:33:34+00:00",
      "publisher": "User ID: 'MCDONALDD' User name: 'Denzle McDonald' User skill set: 'T3'",
      "lastReviewDate": "2021-04-06",
      "subjectType": [ "Patient" ],
      "item": [ {
        "linkId": "59132",
        "prefix": "55400",
        "text": "Are you breathing faster or harder when doing nothing at all?",
        "type": "choice",
        "required": true,
        "repeats": false,
        "option": [ {
          "valueString": "yes, Selected: false"
        }, {
          "valueString": "not sure, Selected: false"
        }, {
          "valueString": "no, Selected: true"
        } ]
      } ]
    }
  }, {
    "fullUrl": "urn:uuid:b4ddca8f-2d84-4e3b-ba85-45c0a281f5d0",
    "resource": {
      "resourceType": "QuestionnaireResponse",
      "id": "b4ddca8f-2d84-4e3b-ba85-45c0a281f5d0",
      "identifier": {
        "value": "59132"
      },
      "questionnaire": {
        "reference": "urn:uuid:7a3e778b-8b4d-4eb4-9ec7-165bc6be93ab"
      },
      "status": "completed",
      "subject": {
        "reference": "urn:uuid:7caa3374-a574-4530-9cbd-0dcb80b77303"
      },
      "context": {
        "reference": "urn:uuid:ca5352bb-1bed-45a2-ad05-34e7616af2e3"
      },
      "authored": "2021-04-06T11:33:34+00:00",
      "item": [ {
        "linkId": "Tx224697",
        "text": "ShoulderTipPainAsked",
        "answer": [ {
          "valueString": "*"
        } ]
      } ]
    }
  }, {
    "fullUrl": "urn:uuid:7a3e778b-8b4d-4eb4-9ec7-165bc6be93ab",
    "resource": {
      "resourceType": "Questionnaire",
      "id": "7a3e778b-8b4d-4eb4-9ec7-165bc6be93ab",
      "identifier": [ {
        "value": "59132"
      } ],
      "version": "2021-04-06T11:33:34.963Z",
      "status": "active",
      "experimental": false,
      "date": "2021-04-06T11:33:34+00:00",
      "publisher": "User ID: 'MCDONALDD' User name: 'Denzle McDonald' User skill set: 'T3'",
      "lastReviewDate": "2021-04-06",
      "subjectType": [ "Patient" ],
      "item": [ {
        "linkId": "59132",
        "prefix": "59300",
        "text": "ShoulderTipPainAsked",
        "type": "choice",
        "required": true,
        "repeats": false,
        "option": [ {
          "valueString": "==\"present\", Selected: false"
        }, {
          "valueString": "*, Selected: true"
        } ]
      } ]
    }
  }, {
    "fullUrl": "urn:uuid:b7e4f35a-02cf-4095-a318-3d2a78e51758",
    "resource": {
      "resourceType": "QuestionnaireResponse",
      "id": "b7e4f35a-02cf-4095-a318-3d2a78e51758",
      "identifier": {
        "value": "59132"
      },
      "questionnaire": {
        "reference": "urn:uuid:43b70cb1-c45d-4580-8ba7-c5ec287798ec"
      },
      "status": "completed",
      "subject": {
        "reference": "urn:uuid:7caa3374-a574-4530-9cbd-0dcb80b77303"
      },
      "context": {
        "reference": "urn:uuid:ca5352bb-1bed-45a2-ad05-34e7616af2e3"
      },
      "authored": "2021-04-06T11:33:34+00:00",
      "item": [ {
        "linkId": "Tx1513",
        "text": "Have you got either of the following problems?",
        "answer": [ {
          "valueString": "no"
        } ]
      } ]
    }
  }, {
    "fullUrl": "urn:uuid:43b70cb1-c45d-4580-8ba7-c5ec287798ec",
    "resource": {
      "resourceType": "Questionnaire",
      "id": "43b70cb1-c45d-4580-8ba7-c5ec287798ec",
      "identifier": [ {
        "value": "59132"
      } ],
      "version": "2021-04-06T11:33:34.963Z",
      "status": "active",
      "experimental": false,
      "date": "2021-04-06T11:33:34+00:00",
      "publisher": "User ID: 'MCDONALDD' User name: 'Denzle McDonald' User skill set: 'T3'",
      "lastReviewDate": "2021-04-06",
      "subjectType": [ "Patient" ],
      "item": [ {
        "linkId": "59132",
        "prefix": "11000",
        "text": "Have you got either of the following problems?",
        "type": "choice",
        "required": true,
        "repeats": false,
        "option": [ {
          "valueString": "new pain in the TIP of a shoulder as well, Selected: false"
        }, {
          "valueString": "pain in the lower right side of the abdomen, Selected: false"
        }, {
          "valueString": "not sure, Selected: false"
        }, {
          "valueString": "no, Selected: true"
        } ]
      } ]
    }
  }, {
    "fullUrl": "urn:uuid:54334a57-dc53-42f1-b499-889a2b3229ac",
    "resource": {
      "resourceType": "QuestionnaireResponse",
      "id": "54334a57-dc53-42f1-b499-889a2b3229ac",
      "identifier": {
        "value": "59132"
      },
      "questionnaire": {
        "reference": "urn:uuid:9306fefb-9f6c-486d-b382-c8ff625c99c0"
      },
      "status": "completed",
      "subject": {
        "reference": "urn:uuid:7caa3374-a574-4530-9cbd-0dcb80b77303"
      },
      "context": {
        "reference": "urn:uuid:ca5352bb-1bed-45a2-ad05-34e7616af2e3"
      },
      "authored": "2021-04-06T11:33:34+00:00",
      "item": [ {
        "linkId": "Tx3481",
        "text": "Has the pain been there ALL THE TIME for MORE THAN 4 HOURS?",
        "answer": [ {
          "valueString": "no (LESS THAN 4 hours)"
        } ]
      } ]
    }
  }, {
    "fullUrl": "urn:uuid:9306fefb-9f6c-486d-b382-c8ff625c99c0",
    "resource": {
      "resourceType": "Questionnaire",
      "id": "9306fefb-9f6c-486d-b382-c8ff625c99c0",
      "identifier": [ {
        "value": "59132"
      } ],
      "version": "2021-04-06T11:33:34.963Z",
      "status": "active",
      "experimental": false,
      "date": "2021-04-06T11:33:34+00:00",
      "publisher": "User ID: 'MCDONALDD' User name: 'Denzle McDonald' User skill set: 'T3'",
      "lastReviewDate": "2021-04-06",
      "subjectType": [ "Patient" ],
      "item": [ {
        "linkId": "59132",
        "prefix": "13000",
        "text": "Has the pain been there ALL THE TIME for MORE THAN 4 HOURS?",
        "type": "choice",
        "required": true,
        "repeats": false,
        "option": [ {
          "valueString": "yes (4 hours or MORE), Selected: false"
        }, {
          "valueString": "not sure, Selected: false"
        }, {
          "valueString": "no (LESS THAN 4 hours), Selected: true"
        } ]
      } ]
    }
  }, {
    "fullUrl": "urn:uuid:239de084-57dc-4543-a0d6-ebbc7e9e6fb6",
    "resource": {
      "resourceType": "QuestionnaireResponse",
      "id": "239de084-57dc-4543-a0d6-ebbc7e9e6fb6",
      "identifier": {
        "value": "59132"
      },
      "questionnaire": {
        "reference": "urn:uuid:309e3b03-ce24-4f70-b414-6b055e8182d2"
      },
      "status": "completed",
      "subject": {
        "reference": "urn:uuid:7caa3374-a574-4530-9cbd-0dcb80b77303"
      },
      "context": {
        "reference": "urn:uuid:ca5352bb-1bed-45a2-ad05-34e7616af2e3"
      },
      "authored": "2021-04-06T11:33:34+00:00",
      "item": [ {
        "linkId": "Tx1178",
        "text": "Have you been diagnosed with diabetes?",
        "answer": [ {
          "valueString": "no"
        } ]
      } ]
    }
  }, {
    "fullUrl": "urn:uuid:309e3b03-ce24-4f70-b414-6b055e8182d2",
    "resource": {
      "resourceType": "Questionnaire",
      "id": "309e3b03-ce24-4f70-b414-6b055e8182d2",
      "identifier": [ {
        "value": "59132"
      } ],
      "version": "2021-04-06T11:33:34.963Z",
      "status": "active",
      "experimental": false,
      "date": "2021-04-06T11:33:34+00:00",
      "publisher": "User ID: 'MCDONALDD' User name: 'Denzle McDonald' User skill set: 'T3'",
      "lastReviewDate": "2021-04-06",
      "subjectType": [ "Patient" ],
      "item": [ {
        "linkId": "59132",
        "prefix": "13700",
        "text": "Have you been diagnosed with diabetes?",
        "type": "choice",
        "required": true,
        "repeats": false,
        "option": [ {
          "valueString": "yes, Selected: false"
        }, {
          "valueString": "not sure, Selected: false"
        }, {
          "valueString": "no, Selected: true"
        } ]
      } ]
    }
  }, {
    "fullUrl": "urn:uuid:037762bd-1a88-4f8a-9e83-ba17f64fbd47",
    "resource": {
      "resourceType": "QuestionnaireResponse",
      "id": "037762bd-1a88-4f8a-9e83-ba17f64fbd47",
      "identifier": {
        "value": "59132"
      },
      "questionnaire": {
        "reference": "urn:uuid:e1f6511b-f572-41ed-a3a4-ac4eb2d420a3"
      },
      "status": "completed",
      "subject": {
        "reference": "urn:uuid:7caa3374-a574-4530-9cbd-0dcb80b77303"
      },
      "context": {
        "reference": "urn:uuid:ca5352bb-1bed-45a2-ad05-34e7616af2e3"
      },
      "authored": "2021-04-06T11:33:34+00:00",
      "item": [ {
        "linkId": "Tx220906",
        "text": "Have you got pain in the back or side between the ribs and hips?",
        "answer": [ {
          "valueString": "yes"
        } ]
      } ]
    }
  }, {
    "fullUrl": "urn:uuid:e1f6511b-f572-41ed-a3a4-ac4eb2d420a3",
    "resource": {
      "resourceType": "Questionnaire",
      "id": "e1f6511b-f572-41ed-a3a4-ac4eb2d420a3",
      "identifier": [ {
        "value": "59132"
      } ],
      "version": "2021-04-06T11:33:34.963Z",
      "status": "active",
      "experimental": false,
      "date": "2021-04-06T11:33:34+00:00",
      "publisher": "User ID: 'MCDONALDD' User name: 'Denzle McDonald' User skill set: 'T3'",
      "lastReviewDate": "2021-04-06",
      "subjectType": [ "Patient" ],
      "item": [ {
        "linkId": "59132",
        "prefix": "14400",
        "text": "Have you got pain in the back or side between the ribs and hips?",
        "type": "choice",
        "required": true,
        "repeats": false,
        "option": [ {
          "valueString": "yes, Selected: true"
        }, {
          "valueString": "not sure, Selected: false"
        }, {
          "valueString": "no, Selected: false"
        } ]
      } ]
    }
  }, {
    "fullUrl": "urn:uuid:e6af3125-52dc-48f3-ac54-a57a04ee3213",
    "resource": {
      "resourceType": "QuestionnaireResponse",
      "id": "e6af3125-52dc-48f3-ac54-a57a04ee3213",
      "identifier": {
        "value": "59132"
      },
      "questionnaire": {
        "reference": "urn:uuid:a657b366-5d79-4d1e-a583-34932c505739"
      },
      "status": "completed",
      "subject": {
        "reference": "urn:uuid:7caa3374-a574-4530-9cbd-0dcb80b77303"
      },
      "context": {
        "reference": "urn:uuid:ca5352bb-1bed-45a2-ad05-34e7616af2e3"
      },
      "authored": "2021-04-06T11:33:34+00:00",
      "item": [ {
        "linkId": "Tx1122",
        "text": "Have you felt hot or feverish at any time in the last 12 hours?",
        "answer": [ {
          "valueString": "yes - temperature not taken"
        } ]
      } ]
    }
  }, {
    "fullUrl": "urn:uuid:a657b366-5d79-4d1e-a583-34932c505739",
    "resource": {
      "resourceType": "Questionnaire",
      "id": "a657b366-5d79-4d1e-a583-34932c505739",
      "identifier": [ {
        "value": "59132"
      } ],
      "version": "2021-04-06T11:33:34.963Z",
      "status": "active",
      "experimental": false,
      "date": "2021-04-06T11:33:34+00:00",
      "publisher": "User ID: 'MCDONALDD' User name: 'Denzle McDonald' User skill set: 'T3'",
      "lastReviewDate": "2021-04-06",
      "subjectType": [ "Patient" ],
      "item": [ {
        "linkId": "59132",
        "prefix": "14700",
        "text": "Have you felt hot or feverish at any time in the last 12 hours?",
        "type": "choice",
        "required": true,
        "repeats": false,
        "option": [ {
          "valueString": "yes - temperature not taken, Selected: true"
        }, {
          "valueString": "yes - temperature taken (specify), Selected: false"
        }, {
          "valueString": "not sure, Selected: false"
        }, {
          "valueString": "no, Selected: false"
        } ]
      } ]
    }
  }, {
    "fullUrl": "urn:uuid:44f73417-b49f-4df3-af63-bcf7263fbe5a",
    "resource": {
      "resourceType": "QuestionnaireResponse",
      "id": "44f73417-b49f-4df3-af63-bcf7263fbe5a",
      "identifier": {
        "value": "59132"
      },
      "questionnaire": {
        "reference": "urn:uuid:b1b0e1fd-2f61-48a6-a395-98cf733b3bc2"
      },
      "status": "completed",
      "subject": {
        "reference": "urn:uuid:7caa3374-a574-4530-9cbd-0dcb80b77303"
      },
      "context": {
        "reference": "urn:uuid:ca5352bb-1bed-45a2-ad05-34e7616af2e3"
      },
      "authored": "2021-04-06T11:33:34+00:00",
      "item": [ {
        "linkId": "Tx1320",
        "text": "Have you got a new red rash all over, like sunburn?",
        "answer": [ {
          "valueString": "no"
        } ]
      } ]
    }
  }, {
    "fullUrl": "urn:uuid:b1b0e1fd-2f61-48a6-a395-98cf733b3bc2",
    "resource": {
      "resourceType": "Questionnaire",
      "id": "b1b0e1fd-2f61-48a6-a395-98cf733b3bc2",
      "identifier": [ {
        "value": "59132"
      } ],
      "version": "2021-04-06T11:33:34.963Z",
      "status": "active",
      "experimental": false,
      "date": "2021-04-06T11:33:34+00:00",
      "publisher": "User ID: 'MCDONALDD' User name: 'Denzle McDonald' User skill set: 'T3'",
      "lastReviewDate": "2021-04-06",
      "subjectType": [ "Patient" ],
      "item": [ {
        "linkId": "59132",
        "prefix": "14800",
        "text": "Have you got a new red rash all over, like sunburn?",
        "type": "choice",
        "required": true,
        "repeats": false,
        "option": [ {
          "valueString": "yes, Selected: false"
        }, {
          "valueString": "not sure, Selected: false"
        }, {
          "valueString": "no, Selected: true"
        } ]
      } ]
    }
  }, {
    "fullUrl": "urn:uuid:5c1066a7-3000-4dbd-bf92-6f27d3cca344",
    "resource": {
      "resourceType": "QuestionnaireResponse",
      "id": "5c1066a7-3000-4dbd-bf92-6f27d3cca344",
      "identifier": {
        "value": "59132"
      },
      "questionnaire": {
        "reference": "urn:uuid:b8d34a55-2ed0-4430-bc69-23ab5e910e0e"
      },
      "status": "completed",
      "subject": {
        "reference": "urn:uuid:7caa3374-a574-4530-9cbd-0dcb80b77303"
      },
      "context": {
        "reference": "urn:uuid:ca5352bb-1bed-45a2-ad05-34e7616af2e3"
      },
      "authored": "2021-04-06T11:33:34+00:00",
      "item": [ {
        "linkId": "Tx221449",
        "text": "STRING:SDPCFullPrimaryCareassessmentandprescribingcapability",
        "answer": [ {
          "valueString": "\"PC full Primary Care assessment and prescribing capability\""
        } ]
      } ]
    }
  }, {
    "fullUrl": "urn:uuid:b8d34a55-2ed0-4430-bc69-23ab5e910e0e",
    "resource": {
      "resourceType": "Questionnaire",
      "id": "b8d34a55-2ed0-4430-bc69-23ab5e910e0e",
      "identifier": [ {
        "value": "59132"
      } ],
      "version": "2021-04-06T11:33:34.963Z",
      "status": "active",
      "experimental": false,
      "date": "2021-04-06T11:33:34+00:00",
      "publisher": "User ID: 'MCDONALDD' User name: 'Denzle McDonald' User skill set: 'T3'",
      "lastReviewDate": "2021-04-06",
      "subjectType": [ "Patient" ],
      "item": [ {
        "linkId": "59132",
        "prefix": "14900",
        "text": "STRING:SDPCFullPrimaryCareassessmentandprescribingcapability",
        "type": "choice",
        "required": true,
        "repeats": false,
        "option": [ {
          "valueString": "\"PC full Primary Care assessment and prescribing capability\", Selected: true"
        } ]
      } ]
    }
  }, {
    "fullUrl": "urn:uuid:960c6cb6-1fa0-4a48-95c9-f77fd3e92c5b",
    "resource": {
      "resourceType": "QuestionnaireResponse",
      "id": "960c6cb6-1fa0-4a48-95c9-f77fd3e92c5b",
      "identifier": {
        "value": "59132"
      },
      "questionnaire": {
        "reference": "urn:uuid:1f101028-56e8-44b5-992b-1282647d7315"
      },
      "status": "completed",
      "subject": {
        "reference": "urn:uuid:7caa3374-a574-4530-9cbd-0dcb80b77303"
      },
      "context": {
        "reference": "urn:uuid:ca5352bb-1bed-45a2-ad05-34e7616af2e3"
      },
      "authored": "2021-04-06T11:33:34+00:00"
    }
  }, {
    "fullUrl": "urn:uuid:1f101028-56e8-44b5-992b-1282647d7315",
    "resource": {
      "resourceType": "Questionnaire",
      "id": "1f101028-56e8-44b5-992b-1282647d7315",
      "identifier": [ {
        "value": "59132"
      } ],
      "version": "2021-04-06T11:33:34.963Z",
      "status": "active",
      "experimental": false,
      "date": "2021-04-06T11:33:34+00:00",
      "publisher": "User ID: 'MCDONALDD' User name: 'Denzle McDonald' User skill set: 'T3'",
      "lastReviewDate": "2021-04-06",
      "subjectType": [ "Patient" ]
    }
  }, {
    "fullUrl": "urn:uuid:79fd4f01-2110-48b7-a766-30c03ce1e879",
    "resource": {
      "resourceType": "QuestionnaireResponse",
      "id": "79fd4f01-2110-48b7-a766-30c03ce1e879",
      "identifier": {
        "value": "59132"
      },
      "questionnaire": {
        "reference": "urn:uuid:e366026c-9a61-4e50-9f42-a77fa07cb735"
      },
      "status": "completed",
      "subject": {
        "reference": "urn:uuid:7caa3374-a574-4530-9cbd-0dcb80b77303"
      },
      "context": {
        "reference": "urn:uuid:ca5352bb-1bed-45a2-ad05-34e7616af2e3"
      },
      "authored": "2021-04-06T11:33:34+00:00"
    }
  }, {
    "fullUrl": "urn:uuid:e366026c-9a61-4e50-9f42-a77fa07cb735",
    "resource": {
      "resourceType": "Questionnaire",
      "id": "e366026c-9a61-4e50-9f42-a77fa07cb735",
      "identifier": [ {
        "value": "59132"
      } ],
      "version": "2021-04-06T11:33:34.963Z",
      "status": "active",
      "experimental": false,
      "date": "2021-04-06T11:33:34+00:00",
      "publisher": "User ID: 'MCDONALDD' User name: 'Denzle McDonald' User skill set: 'T3'",
      "lastReviewDate": "2021-04-06",
      "subjectType": [ "Patient" ]
    }
  }, {
    "fullUrl": "urn:uuid:9c5cbd0f-eec0-4f4b-9827-5ddc8e932cf3",
    "resource": {
      "resourceType": "QuestionnaireResponse",
      "id": "9c5cbd0f-eec0-4f4b-9827-5ddc8e932cf3",
      "identifier": {
        "value": "59132"
      },
      "questionnaire": {
        "reference": "urn:uuid:f4f32c7c-6ee3-4280-a68f-e8868ef301be"
      },
      "status": "completed",
      "subject": {
        "reference": "urn:uuid:7caa3374-a574-4530-9cbd-0dcb80b77303"
      },
      "context": {
        "reference": "urn:uuid:ca5352bb-1bed-45a2-ad05-34e7616af2e3"
      },
      "authored": "2021-04-06T11:33:34+00:00"
    }
  }, {
    "fullUrl": "urn:uuid:f4f32c7c-6ee3-4280-a68f-e8868ef301be",
    "resource": {
      "resourceType": "Questionnaire",
      "id": "f4f32c7c-6ee3-4280-a68f-e8868ef301be",
      "identifier": [ {
        "value": "59132"
      } ],
      "version": "2021-04-06T11:33:34.963Z",
      "status": "active",
      "experimental": false,
      "date": "2021-04-06T11:33:34+00:00",
      "publisher": "User ID: 'MCDONALDD' User name: 'Denzle McDonald' User skill set: 'T3'",
      "lastReviewDate": "2021-04-06",
      "subjectType": [ "Patient" ]
    }
  }, {
    "fullUrl": "urn:uuid:f70a8f27-9355-412a-a128-82d9c2ffd68f",
    "resource": {
      "resourceType": "QuestionnaireResponse",
      "id": "f70a8f27-9355-412a-a128-82d9c2ffd68f",
      "identifier": {
        "value": "59132"
      },
      "questionnaire": {
        "reference": "urn:uuid:0bae7466-d1d9-4513-bbc9-8fbeffc4ad6e"
      },
      "status": "completed",
      "subject": {
        "reference": "urn:uuid:7caa3374-a574-4530-9cbd-0dcb80b77303"
      },
      "context": {
        "reference": "urn:uuid:ca5352bb-1bed-45a2-ad05-34e7616af2e3"
      },
      "authored": "2021-04-06T11:33:34+00:00"
    }
  }, {
    "fullUrl": "urn:uuid:0bae7466-d1d9-4513-bbc9-8fbeffc4ad6e",
    "resource": {
      "resourceType": "Questionnaire",
      "id": "0bae7466-d1d9-4513-bbc9-8fbeffc4ad6e",
      "identifier": [ {
        "value": "59132"
      } ],
      "version": "2021-04-06T11:33:34.963Z",
      "status": "active",
      "experimental": false,
      "date": "2021-04-06T11:33:34+00:00",
      "publisher": "User ID: 'MCDONALDD' User name: 'Denzle McDonald' User skill set: 'T3'",
      "lastReviewDate": "2021-04-06",
      "subjectType": [ "Patient" ]
    }
  }, {
    "fullUrl": "urn:uuid:1608da41-3ddd-4d94-9b7a-248a39f48d76",
    "resource": {
      "resourceType": "QuestionnaireResponse",
      "id": "1608da41-3ddd-4d94-9b7a-248a39f48d76",
      "identifier": {
        "value": "59132"
      },
      "questionnaire": {
        "reference": "urn:uuid:f46b7810-c1e8-4135-8fa3-edcbb64dce80"
      },
      "status": "completed",
      "subject": {
        "reference": "urn:uuid:7caa3374-a574-4530-9cbd-0dcb80b77303"
      },
      "context": {
        "reference": "urn:uuid:ca5352bb-1bed-45a2-ad05-34e7616af2e3"
      },
      "authored": "2021-04-06T11:33:34+00:00"
    }
  }, {
    "fullUrl": "urn:uuid:f46b7810-c1e8-4135-8fa3-edcbb64dce80",
    "resource": {
      "resourceType": "Questionnaire",
      "id": "f46b7810-c1e8-4135-8fa3-edcbb64dce80",
      "identifier": [ {
        "value": "59132"
      } ],
      "version": "2021-04-06T11:33:34.963Z",
      "status": "active",
      "experimental": false,
      "date": "2021-04-06T11:33:34+00:00",
      "publisher": "User ID: 'MCDONALDD' User name: 'Denzle McDonald' User skill set: 'T3'",
      "lastReviewDate": "2021-04-06",
      "subjectType": [ "Patient" ]
    }
  }, {
    "fullUrl": "urn:uuid:4bf93608-7ce0-4a59-b634-b5454a6cadf3",
    "resource": {
      "resourceType": "Observation",
      "id": "4bf93608-7ce0-4a59-b634-b5454a6cadf3",
      "status": "final",
      "code": {
        "coding": [ {
          "system": "http://snomed.info/sct",
          "code": "33962009",
          "display": "Presenting complaint"
        } ]
      },
      "subject": {
        "reference": "urn:uuid:7caa3374-a574-4530-9cbd-0dcb80b77303"
      },
      "context": {
        "reference": "urn:uuid:ca5352bb-1bed-45a2-ad05-34e7616af2e3"
      },
      "valueString": "Pharmacy ITK Testing"
    }
  }, {
    "fullUrl": "urn:uuid:20bd94db-9dad-4e5d-b333-a2c4ca676ad9",
    "resource": {
      "resourceType": "PractitionerRole",
      "id": "20bd94db-9dad-4e5d-b333-a2c4ca676ad9",
      "practitioner": {
        "reference": "urn:uuid:ac45a766-2038-43fe-95b9-a39d24a3fe9a"
      },
      "organization": {
        "reference": "urn:uuid:7881ade8-3b7f-4a51-9e80-5b7f3653767e"
      },
      "code": [ {
        "coding": [ {
          "system": "2.16.840.1.113883.2.1.3.2.4.17.339",
          "code": "DOCTOR",
          "display": "Doctor"
        } ]
      } ]
    }
  }, {
    "fullUrl": "urn:uuid:7881ade8-3b7f-4a51-9e80-5b7f3653767e",
    "resource": {
      "resourceType": "Organization",
      "id": "7881ade8-3b7f-4a51-9e80-5b7f3653767e",
      "identifier": [ {
        "value": "RYE"
      } ],
      "name": "1.SCAS Administrator (SCAS111)"
    }
  }, {
    "fullUrl": "urn:uuid:c02b4462-36d8-4059-9933-06ae6aefccef",
    "resource": {
      "resourceType": "PractitionerRole",
      "id": "c02b4462-36d8-4059-9933-06ae6aefccef",
      "practitioner": {
        "reference": "urn:uuid:46cc8c0c-a843-4289-98ac-8e62c10a3fe3"
      },
      "organization": {
        "reference": "urn:uuid:f828e1b1-1a60-40da-9629-a8cd4a1a2f93"
      },
      "code": [ {
        "coding": [ {
          "system": "2.16.840.1.113883.2.1.3.2.4.17.196",
          "code": "R0010",
          "display": "Medical Director"
        } ]
      } ]
    }
  }, {
    "fullUrl": "urn:uuid:f828e1b1-1a60-40da-9629-a8cd4a1a2f93",
    "resource": {
      "resourceType": "Organization",
      "id": "f828e1b1-1a60-40da-9629-a8cd4a1a2f93",
      "identifier": [ {
        "value": "RYE"
      } ],
      "name": "SCAS111"
    }
  }, {
    "fullUrl": "urn:uuid:d7bce1e4-51b6-40e7-80c0-c7aade449325",
    "resource": {
      "resourceType": "RelatedPerson",
      "id": "d7bce1e4-51b6-40e7-80c0-c7aade449325",
      "patient": {
        "reference": "urn:uuid:7caa3374-a574-4530-9cbd-0dcb80b77303"
      },
      "relationship": {
        "coding": [ {
          "system": "http://hl7.org/fhir/v2/0131",
          "code": "C",
          "display": "Emergency Contact"
        } ]
      },
      "telecom": [ {
        "system": "phone",
        "value": "tel:07948625625"
      } ]
    }
  }, {
    "fullUrl": "urn:uuid:a788f23c-ff5e-48c0-9193-99c42d3355ec",
    "resource": {
      "resourceType": "Device",
      "id": "a788f23c-ff5e-48c0-9193-99c42d3355ec",
      "model": "111 Adaptor",
      "version": "1.0.1"
    }
  }, {
    "fullUrl": "urn:uuid:9e2516d8-a7a1-485d-8dad-43c053bfe31e",
    "resource": {
      "resourceType": "List",
      "id": "9e2516d8-a7a1-485d-8dad-43c053bfe31e",
      "status": "current",
      "mode": "working",
      "title": "111 Report List",
      "code": {
        "coding": [ {
          "system": "http://snomed.info/sct",
          "code": "225390008",
          "display": "Triage"
        } ]
      },
      "subject": {
        "reference": "urn:uuid:7caa3374-a574-4530-9cbd-0dcb80b77303"
      },
      "encounter": {
        "reference": "urn:uuid:ca5352bb-1bed-45a2-ad05-34e7616af2e3"
      },
      "date": "2021-04-06T11:33:35+00:00",
      "source": {
        "reference": "urn:uuid:a788f23c-ff5e-48c0-9193-99c42d3355ec"
      },
      "orderedBy": {
        "coding": [ {
          "system": "http://hl7.org/fhir/list-order",
          "code": "event-date",
          "display": "Sorted by Event Date"
        } ]
      },
      "entry": [ {
        "item": {
          "reference": "urn:uuid:904e01e3-5d58-4bcc-9c13-26e3da504ffd"
        }
      }, {
        "item": {
          "reference": "urn:uuid:d2a242b3-262e-4920-a9d2-6ce25863d0ae"
        }
      }, {
        "item": {
          "reference": "urn:uuid:d7bce1e4-51b6-40e7-80c0-c7aade449325"
        }
      }, {
        "item": {
          "reference": "urn:uuid:ac45a766-2038-43fe-95b9-a39d24a3fe9a"
        }
      }, {
        "item": {
          "reference": "urn:uuid:46cc8c0c-a843-4289-98ac-8e62c10a3fe3"
        }
      }, {
        "item": {
          "reference": "urn:uuid:54b26927-f4b4-4b6d-a3c4-8f9b1c5abe73"
        }
      }, {
        "item": {
          "reference": "urn:uuid:4bf93608-7ce0-4a59-b634-b5454a6cadf3"
        }
      }, {
        "item": {
          "reference": "urn:uuid:a9dda1de-e061-4edb-b814-1aa2b324b159"
        }
      }, {
        "item": {
          "reference": "urn:uuid:7881ade8-3b7f-4a51-9e80-5b7f3653767e"
        }
      }, {
        "item": {
          "reference": "urn:uuid:f828e1b1-1a60-40da-9629-a8cd4a1a2f93"
        }
      }, {
        "item": {
          "reference": "urn:uuid:5c2bda03-3f48-49fc-869e-ed5100f31291"
        }
      }, {
        "item": {
          "reference": "urn:uuid:bc8beb3f-9c3f-48db-9d80-95361b1a22eb"
        }
      }, {
        "item": {
          "reference": "urn:uuid:4b130a6e-f5de-47b3-870e-419049a021fa"
        }
      }, {
        "item": {
          "reference": "urn:uuid:2e17081f-ac6d-49cc-a58a-c9eddeb11cea"
        }
      }, {
        "item": {
          "reference": "urn:uuid:f72fe83d-9aa8-4ab5-a2f4-27a7c411357e"
        }
      }, {
        "item": {
          "reference": "urn:uuid:4dfdcd0e-e2f9-4543-9f39-596f881acffb"
        }
      }, {
        "item": {
          "reference": "urn:uuid:239de084-57dc-4543-a0d6-ebbc7e9e6fb6"
        }
      }, {
        "item": {
          "reference": "urn:uuid:79fd4f01-2110-48b7-a766-30c03ce1e879"
        }
      }, {
        "item": {
          "reference": "urn:uuid:b1b0e1fd-2f61-48a6-a395-98cf733b3bc2"
        }
      }, {
        "item": {
          "reference": "urn:uuid:b7e4f35a-02cf-4095-a318-3d2a78e51758"
        }
      }, {
        "item": {
          "reference": "urn:uuid:e22bfcc3-adb1-4a11-a141-73196e19d426"
        }
      }, {
        "item": {
          "reference": "urn:uuid:7aeadaa7-2c85-469b-b0a9-a8b975b8af29"
        }
      }, {
        "item": {
          "reference": "urn:uuid:2e568120-194d-41b4-9379-bf3c674f5d87"
        }
      }, {
        "item": {
          "reference": "urn:uuid:0d898b6b-40ab-4d55-8051-e10668bcbbf9"
        }
      }, {
        "item": {
          "reference": "urn:uuid:1fe3bdd2-98ec-4dd5-80dd-c1feddd6a03e"
        }
      }, {
        "item": {
          "reference": "urn:uuid:3f044b88-beb6-4570-8e24-9eaabeefd444"
        }
      }, {
        "item": {
          "reference": "urn:uuid:a6f30339-f701-4e8d-82d8-ac11672545d5"
        }
      }, {
        "item": {
          "reference": "urn:uuid:7caf26b5-9085-4aa9-9d83-7270b1d32735"
        }
      }, {
        "item": {
          "reference": "urn:uuid:1675df09-ff6f-4c00-ae79-298d4b6f65fd"
        }
      }, {
        "item": {
          "reference": "urn:uuid:0f4ebb20-b085-4d11-a1e6-c43f50583c44"
        }
      }, {
        "item": {
          "reference": "urn:uuid:b68369ca-f213-4276-afde-0a86a10aa81e"
        }
      }, {
        "item": {
          "reference": "urn:uuid:61d3275e-d80d-4fea-ab1a-5918af06b707"
        }
      }, {
        "item": {
          "reference": "urn:uuid:2067e93d-dc64-4ab4-97b7-999c2b1e727d"
        }
      }, {
        "item": {
          "reference": "urn:uuid:bbbdcf87-8c4d-420d-a77a-5446254f4b23"
        }
      }, {
        "item": {
          "reference": "urn:uuid:fb8aa7d3-d988-42f3-8764-29bde4cedd7d"
        }
      }, {
        "item": {
          "reference": "urn:uuid:b607aa75-6774-4077-a1b5-48779dfb9eff"
        }
      }, {
        "item": {
          "reference": "urn:uuid:b4ddca8f-2d84-4e3b-ba85-45c0a281f5d0"
        }
      }, {
        "item": {
          "reference": "urn:uuid:d1f6c11d-cc13-4340-b367-f9a88ce8dcbd"
        }
      }, {
        "item": {
          "reference": "urn:uuid:da158118-87e6-40ce-96ae-9c4356e67526"
        }
      }, {
        "item": {
          "reference": "urn:uuid:01024c16-498f-4e77-a29e-de63c191d28e"
        }
      }, {
        "item": {
          "reference": "urn:uuid:dd21a520-e749-4185-8e04-741a32275743"
        }
      }, {
        "item": {
          "reference": "urn:uuid:ffbdc2fb-6a48-43da-8bd2-75c4f56922f5"
        }
      }, {
        "item": {
          "reference": "urn:uuid:3b8aa114-67b5-4ea1-8025-95fc0a865426"
        }
      }, {
        "item": {
          "reference": "urn:uuid:70cdcfeb-8142-438b-804e-f8bdf47f0797"
        }
      }, {
        "item": {
          "reference": "urn:uuid:112c0118-79f8-4603-be52-c3672ae008b4"
        }
      }, {
        "item": {
          "reference": "urn:uuid:9306fefb-9f6c-486d-b382-c8ff625c99c0"
        }
      }, {
        "item": {
          "reference": "urn:uuid:0e233c03-4fe5-4600-9c3f-aa4c8305f19f"
        }
      }, {
        "item": {
          "reference": "urn:uuid:c9dbf0ee-4a12-411a-93de-e5b581edbb8d"
        }
      }, {
        "item": {
          "reference": "urn:uuid:6a1db618-c4cd-4990-822b-292899089e96"
        }
      }, {
        "item": {
          "reference": "urn:uuid:6cf8244e-1b4c-45a2-b3a6-a5bea49430eb"
        }
      }, {
        "item": {
          "reference": "urn:uuid:86556eca-f69d-4e38-8815-ab631442a5f9"
        }
      }, {
        "item": {
          "reference": "urn:uuid:e784166e-c43f-46b9-ba18-c6e50ec2c49b"
        }
      }, {
        "item": {
          "reference": "urn:uuid:960c6cb6-1fa0-4a48-95c9-f77fd3e92c5b"
        }
      }, {
        "item": {
          "reference": "urn:uuid:5ab44244-9881-4106-a14f-910f3875e585"
        }
      }, {
        "item": {
          "reference": "urn:uuid:1f101028-56e8-44b5-992b-1282647d7315"
        }
      }, {
        "item": {
          "reference": "urn:uuid:5bd1f48a-1c3c-480c-bfa8-7179926c3434"
        }
      }, {
        "item": {
          "reference": "urn:uuid:0c1d0466-f77c-4461-96e8-d8c5a0d7a788"
        }
      }, {
        "item": {
          "reference": "urn:uuid:9245a8da-ee4c-40e7-a978-b67bc5d6a6b1"
        }
      }, {
        "item": {
          "reference": "urn:uuid:1608da41-3ddd-4d94-9b7a-248a39f48d76"
        }
      }, {
        "item": {
          "reference": "urn:uuid:caf6579a-e591-4230-9235-af83b3bb5c63"
        }
      }, {
        "item": {
          "reference": "urn:uuid:1e5495eb-583d-42ec-8678-7bd174eab0f2"
        }
      }, {
        "item": {
          "reference": "urn:uuid:a0ebed66-b3de-42a4-bb68-2c7feeef3769"
        }
      }, {
        "item": {
          "reference": "urn:uuid:b8d34a55-2ed0-4430-bc69-23ab5e910e0e"
        }
      }, {
        "item": {
          "reference": "urn:uuid:af250af7-f534-423a-9cf2-984eb785b8c4"
        }
      }, {
        "item": {
          "reference": "urn:uuid:309e3b03-ce24-4f70-b414-6b055e8182d2"
        }
      }, {
        "item": {
          "reference": "urn:uuid:8082b984-54bd-4958-8be0-3f4382222ee0"
        }
      }, {
        "item": {
          "reference": "urn:uuid:85eaac36-6143-4e01-a1db-a20d288ee200"
        }
      }, {
        "item": {
          "reference": "urn:uuid:4e1680eb-29f7-47c8-86f6-1544c4d1cb13"
        }
      }, {
        "item": {
          "reference": "urn:uuid:f1ed912f-a852-4afe-a3c4-228afa39fa71"
        }
      }, {
        "item": {
          "reference": "urn:uuid:fff14e52-8016-4716-b504-b37798bd87c2"
        }
      }, {
        "item": {
          "reference": "urn:uuid:0f097448-1dcf-4c7e-9f43-11e9eae0fa26"
        }
      }, {
        "item": {
          "reference": "urn:uuid:14ba0916-5131-4de0-9e30-c4279d710da6"
        }
      }, {
        "item": {
          "reference": "urn:uuid:a49437dc-e219-4e1e-9407-cc8f11374c85"
        }
      }, {
        "item": {
          "reference": "urn:uuid:f70a8f27-9355-412a-a128-82d9c2ffd68f"
        }
      }, {
        "item": {
          "reference": "urn:uuid:e05fca9e-c785-44e5-bcd2-1ae8f6909007"
        }
      }, {
        "item": {
          "reference": "urn:uuid:91a28d2c-220f-4f9b-920d-506a54386fe6"
        }
      }, {
        "item": {
          "reference": "urn:uuid:66c5d1cb-b34d-42dd-82f0-8a509d715793"
        }
      }, {
        "item": {
          "reference": "urn:uuid:1934cbe5-2c0e-46a2-a564-298f95128248"
        }
      }, {
        "item": {
          "reference": "urn:uuid:b3c8950f-5986-45b3-aeac-aeb67c11321b"
        }
      }, {
        "item": {
          "reference": "urn:uuid:95e46bea-7060-475a-94bb-81b3a0cd7457"
        }
      }, {
        "item": {
          "reference": "urn:uuid:eea98210-8a28-4035-a1a9-70919032d6f9"
        }
      }, {
        "item": {
          "reference": "urn:uuid:9b6c1a75-dd01-4651-85dd-5ae6f53a88df"
        }
      }, {
        "item": {
          "reference": "urn:uuid:e5281e9e-76c4-44a9-b177-bd3ee2a40774"
        }
      }, {
        "item": {
          "reference": "urn:uuid:1b486d23-82ad-4602-aa06-cffb952ab5f6"
        }
      }, {
        "item": {
          "reference": "urn:uuid:5c1066a7-3000-4dbd-bf92-6f27d3cca344"
        }
      }, {
        "item": {
          "reference": "urn:uuid:ac13272e-4f19-4b8a-8983-f4fb72e90594"
        }
      }, {
        "item": {
          "reference": "urn:uuid:477b211d-1d85-453d-92ea-f89dcd5bce72"
        }
      }, {
        "item": {
          "reference": "urn:uuid:436b8eee-d4ac-4bfa-b45f-ae76c6bcf6e8"
        }
      }, {
        "item": {
          "reference": "urn:uuid:946e3df7-268c-4120-b37c-25ec2c4a74d8"
        }
      }, {
        "item": {
          "reference": "urn:uuid:4a422a42-c242-4738-b318-b49337492364"
        }
      }, {
        "item": {
          "reference": "urn:uuid:28280b12-6d46-4162-b350-b124e98cbc05"
        }
      }, {
        "item": {
          "reference": "urn:uuid:c572981e-63a7-4b94-9101-aeb32f038347"
        }
      }, {
        "item": {
          "reference": "urn:uuid:f870b505-03b0-4da9-89bd-528a2a10b883"
        }
      }, {
        "item": {
          "reference": "urn:uuid:40f4686e-4c85-41b9-b860-45ddaeea91aa"
        }
      }, {
        "item": {
          "reference": "urn:uuid:b1e14c7f-723f-4ed8-95a9-3be20e3349be"
        }
      }, {
        "item": {
          "reference": "urn:uuid:b2d37f1d-55e8-490f-a322-1a6e2c9996fd"
        }
      }, {
        "item": {
          "reference": "urn:uuid:cc6be4c5-e5de-46ab-8f41-3f28318c9466"
        }
      }, {
        "item": {
          "reference": "urn:uuid:ea5549c3-11fb-4c81-acc5-6277271bb461"
        }
      }, {
        "item": {
          "reference": "urn:uuid:9f6dd63b-0ab4-403a-9038-068afeb44a46"
        }
      }, {
        "item": {
          "reference": "urn:uuid:ad1bcdde-a571-4b5d-8361-f413c0e140e2"
        }
      }, {
        "item": {
          "reference": "urn:uuid:78a3ec5a-8bb2-4435-8315-c68465f212ea"
        }
      }, {
        "item": {
          "reference": "urn:uuid:d0fc4739-40ed-417b-a034-1c271cbf6b27"
        }
      }, {
        "item": {
          "reference": "urn:uuid:e1f6511b-f572-41ed-a3a4-ac4eb2d420a3"
        }
      }, {
        "item": {
          "reference": "urn:uuid:e366026c-9a61-4e50-9f42-a77fa07cb735"
        }
      }, {
        "item": {
          "reference": "urn:uuid:953e75e1-ae19-4d78-8b65-333d07bdf9d5"
        }
      }, {
        "item": {
          "reference": "urn:uuid:6c5f2b85-b8e6-45f8-a77d-040ba2ac057a"
        }
      }, {
        "item": {
          "reference": "urn:uuid:44c75c91-3069-40ca-91bb-17ff317c6a73"
        }
      }, {
        "item": {
          "reference": "urn:uuid:9c5cbd0f-eec0-4f4b-9827-5ddc8e932cf3"
        }
      }, {
        "item": {
          "reference": "urn:uuid:524b9023-cce0-4c32-b271-e3a0b2f56748"
        }
      }, {
        "item": {
          "reference": "urn:uuid:2a005118-3931-452e-a4a0-a41ee670a601"
        }
      }, {
        "item": {
          "reference": "urn:uuid:f46b7810-c1e8-4135-8fa3-edcbb64dce80"
        }
      }, {
        "item": {
          "reference": "urn:uuid:7a3e778b-8b4d-4eb4-9ec7-165bc6be93ab"
        }
      }, {
        "item": {
          "reference": "urn:uuid:975253cb-0f0a-4a9f-b43f-ea1af6e06911"
        }
      }, {
        "item": {
          "reference": "urn:uuid:a531ee4b-5775-4a5d-9454-de5c6f716272"
        }
      }, {
        "item": {
          "reference": "urn:uuid:0644bac4-5fd3-4d21-a1c5-304b850dde65"
        }
      }, {
        "item": {
          "reference": "urn:uuid:7e98852e-8031-47a9-a8db-b1dec7fd5423"
        }
      }, {
        "item": {
          "reference": "urn:uuid:43b70cb1-c45d-4580-8ba7-c5ec287798ec"
        }
      }, {
        "item": {
          "reference": "urn:uuid:9e70d36c-ab9c-463d-a8c9-de6add4a4ce7"
        }
      }, {
        "item": {
          "reference": "urn:uuid:ff507341-8a4e-44bb-8cc4-a00cbe9d7f5a"
        }
      }, {
        "item": {
          "reference": "urn:uuid:e2c4e9af-bf14-4358-84bf-7089f3bfcbb6"
        }
      }, {
        "item": {
          "reference": "urn:uuid:89b6e057-7846-4110-87dd-6459ed08560c"
        }
      }, {
        "item": {
          "reference": "urn:uuid:35d50c78-8e9a-45bd-a6c9-09bed8692888"
        }
      }, {
        "item": {
          "reference": "urn:uuid:ec0d5671-01e8-42c4-864a-f2d383855f22"
        }
      }, {
        "item": {
          "reference": "urn:uuid:9b3c98fc-fb8b-4314-b590-013dbafc389a"
        }
      }, {
        "item": {
          "reference": "urn:uuid:0bae7466-d1d9-4513-bbc9-8fbeffc4ad6e"
        }
      }, {
        "item": {
          "reference": "urn:uuid:49a8bda8-92b8-4332-9c16-bf9d96a9aa57"
        }
      }, {
        "item": {
          "reference": "urn:uuid:1921dab6-d1f7-4454-b3cc-88e943a8afed"
        }
      }, {
        "item": {
          "reference": "urn:uuid:98d9f5b3-1c28-4f89-bca6-d05533819318"
        }
      }, {
        "item": {
          "reference": "urn:uuid:fff66f93-5fc0-4fa8-9398-bf3b8e253a6b"
        }
      }, {
        "item": {
          "reference": "urn:uuid:d2c5b5eb-53e4-419d-a033-d49b8045ba14"
        }
      }, {
        "item": {
          "reference": "urn:uuid:5d0723ea-087e-4bea-a3a5-8534e3adeeef"
        }
      }, {
        "item": {
          "reference": "urn:uuid:e6af3125-52dc-48f3-ac54-a57a04ee3213"
        }
      }, {
        "item": {
          "reference": "urn:uuid:cfc7d678-b95c-4f1f-9f5d-f0a0709c15b4"
        }
      }, {
        "item": {
          "reference": "urn:uuid:54334a57-dc53-42f1-b499-889a2b3229ac"
        }
      }, {
        "item": {
          "reference": "urn:uuid:037762bd-1a88-4f8a-9e83-ba17f64fbd47"
        }
      }, {
        "item": {
          "reference": "urn:uuid:52140fd5-2268-433c-9d3a-b02e41f0bf51"
        }
      }, {
        "item": {
          "reference": "urn:uuid:ee8277f0-61b1-40b6-9cd9-909674ed8838"
        }
      }, {
        "item": {
          "reference": "urn:uuid:ed4d248b-0569-461c-aefb-d4d0c0179db9"
        }
      }, {
        "item": {
          "reference": "urn:uuid:1caf557d-7260-4678-b2ab-8221a608ad63"
        }
      }, {
        "item": {
          "reference": "urn:uuid:38efe7d6-843d-4c3c-a812-f24cba4c0aa2"
        }
      }, {
        "item": {
          "reference": "urn:uuid:1a45ed2b-90d5-4af1-83a8-b8ea22bb293c"
        }
      }, {
        "item": {
          "reference": "urn:uuid:0704314b-e760-40c3-a9af-15f205aeea85"
        }
      }, {
        "item": {
          "reference": "urn:uuid:605ea330-53a9-4fb8-a614-f249a1eb9e9b"
        }
      }, {
        "item": {
          "reference": "urn:uuid:f4f32c7c-6ee3-4280-a68f-e8868ef301be"
        }
      }, {
        "item": {
          "reference": "urn:uuid:d2ca1395-ddeb-4c09-a702-3d8e60b12f9d"
        }
      }, {
        "item": {
          "reference": "urn:uuid:d3b0d0da-7937-4a02-974c-cf46b51144ec"
        }
      }, {
        "item": {
          "reference": "urn:uuid:fca7e6a9-7a64-49bc-b757-4c04969bcfd4"
        }
      }, {
        "item": {
          "reference": "urn:uuid:97fce2b0-519f-4ec9-a985-353b54c9ec3a"
        }
      }, {
        "item": {
          "reference": "urn:uuid:a657b366-5d79-4d1e-a583-34932c505739"
        }
      }, {
        "item": {
          "reference": "urn:uuid:69371e52-af53-4d8e-8a9b-4ebd5e0fdfab"
        }
      }, {
        "item": {
          "reference": "urn:uuid:68d77337-5e8c-43a0-b762-d340897adf5d"
        }
      }, {
        "item": {
          "reference": "urn:uuid:fdd46f5f-2fab-4c40-9d16-f56db9f35d62"
        }
      }, {
        "item": {
          "reference": "urn:uuid:44f73417-b49f-4df3-af63-bcf7263fbe5a"
        }
      }, {
        "item": {
          "reference": "urn:uuid:6b772271-c3ee-4abc-b073-b07823477339"
        }
      }, {
        "item": {
          "reference": "urn:uuid:5e5a990d-cb7a-4244-9877-0af8e5d9194c"
        }
      }, {
        "item": {
          "reference": "urn:uuid:af0d2fca-691e-46db-9039-7dd23bed23f7"
        }
      }, {
        "item": {
          "reference": "urn:uuid:25b4550b-4c86-41b6-b5f1-c522c53cfabd"
        }
      }, {
        "item": {
          "reference": "urn:uuid:d9db7ae7-ed09-4c7a-bc89-321cf836e214"
        }
      } ]
    }
  } ]
}