{
  "resourceType": "Bundle",
  "meta": {
    "lastUpdated": "2022-05-12T06:46:15.826+00:00"
  },
  "identifier": {
    "type": {
      "text": "ClinicalDocument VersionNumber"
    },
    "value": "1"
  },
  "type": "message",
  "entry": [ {
    "fullUrl": "urn:uuid:2F182787-CA39-46F8-9B1C-8E77F3050067",
    "resource": {
      "resourceType": "MessageHeader",
      "id": "2F182787-CA39-46F8-9B1C-8E77F3050067",
      "event": {
        "system": "https://fhir.nhs.uk/STU3/CodeSystem/EventType-1",
        "code": "referral-1",
        "display": "Referral"
      },
      "destination": [ {
        "endpoint": "urn:nhs-uk:addressing:ods:FDH68RPX:DOSServiceID:2000038407"
      } ],
      "timestamp": "2021-04-06T11:29:27.000+00:00",
      "source": {
        "name": "NHS 111 Adaptor",
        "endpoint": "http://localhost:8080/report"
      },
      "reason": {
        "coding": [ {
          "system": "urn:nhs-itk:ns:201005:interaction",
          "code": "urn:nhs-itk:interaction:primaryOutofHourRecipientNHS111CDADocument-v2-0"
        } ]
      }
    }
  }, {
    "fullUrl": "urn:uuid:8d96f174-294f-47e4-a17a-cfcb9a3ccaff",
    "resource": {
      "resourceType": "Encounter",
      "id": "8d96f174-294f-47e4-a17a-cfcb9a3ccaff",
      "identifier": [ {
        "system": "2.16.840.1.113883.2.1.3.2.4.18.34",
        "value": "CAC4BF79-AF64-47E2-8162-53438279E2F9"
      }, {
        "system": "2.16.840.1.113883.2.1.3.2.4.18.35",
        "value": "59263"
      }, {
        "system": "2.16.840.1.113883.2.1.3.2.4.18.49",
        "value": "CAC4BF79-AF64-47E2-8162-53438279E2F9"
      } ],
      "status": "finished",
      "type": [ {
        "text": "111 Encounter Referral"
      } ],
      "subject": {
        "reference": "urn:uuid:71827745-4c67-4349-a01a-4428466817d2"
      },
      "participant": [ {
        "type": [ {
          "coding": [ {
            "system": "http://hl7.org/fhir/ValueSet/encounter-participant-type",
            "code": "PPRF",
            "display": "Author"
          } ]
        } ],
        "individual": {
          "reference": "urn:uuid:681054ce-9301-4ce8-a821-74e0db143d5b"
        }
      }, {
        "type": [ {
          "text": "Informant"
        } ],
        "individual": {
          "reference": "urn:uuid:0b1f10f1-20e9-473c-bab5-e6926fa140fb"
        }
      }, {
        "type": [ {
          "coding": [ {
            "system": "http://hl7.org/fhir/ValueSet/encounter-participant-type",
            "code": "ATND",
            "display": "Responsible Party"
          } ]
        } ],
        "individual": {
          "reference": "urn:uuid:643feab4-36cc-4dac-a0e7-d4c1fd12ab49"
        }
      } ],
      "period": {
        "start": "2021-04-06T11:21:50+00:00",
        "end": "2021-04-06T11:29:25+00:00"
      },
      "location": [ {
        "location": {
          "reference": "urn:uuid:3d6a53e4-a723-4a1b-87bc-16afa662550b"
        },
        "status": "completed"
      } ],
      "serviceProvider": {
        "reference": "urn:uuid:b20994bc-aaff-4320-9f84-55799d184047"
      }
    }
  }, {
    "fullUrl": "urn:uuid:b20994bc-aaff-4320-9f84-55799d184047",
    "resource": {
      "resourceType": "Organization",
      "id": "b20994bc-aaff-4320-9f84-55799d184047",
      "active": true,
      "type": [ {
        "text": "CST"
      } ],
      "name": "SCAS111"
    }
  }, {
    "fullUrl": "urn:uuid:681054ce-9301-4ce8-a821-74e0db143d5b",
    "resource": {
      "resourceType": "Practitioner",
      "id": "681054ce-9301-4ce8-a821-74e0db143d5b",
      "active": true,
      "name": [ {
        "use": "official",
        "family": "Hadfield",
        "given": [ "Ryan" ]
      } ]
    }
  }, {
    "fullUrl": "urn:uuid:0b1f10f1-20e9-473c-bab5-e6926fa140fb",
    "resource": {
      "resourceType": "RelatedPerson",
      "id": "0b1f10f1-20e9-473c-bab5-e6926fa140fb",
      "active": true,
      "patient": {
        "reference": "urn:uuid:71827745-4c67-4349-a01a-4428466817d2"
      },
      "relationship": {
        "coding": [ {
          "system": "2.16.840.1.113883.2.1.3.2.4.16.45",
          "code": "99",
          "display": "Not specified"
        } ]
      },
      "name": [ {
        "text": "Test Caller (Carer - Home)"
      } ],
      "telecom": [ {
        "system": "phone",
        "value": "tel:07777888888",
        "use": "home"
      } ],
      "gender": "unknown"
    }
  }, {
    "fullUrl": "urn:uuid:643feab4-36cc-4dac-a0e7-d4c1fd12ab49",
    "resource": {
      "resourceType": "Practitioner",
      "id": "643feab4-36cc-4dac-a0e7-d4c1fd12ab49",
      "active": true,
      "name": [ {
        "use": "official",
        "family": "Black",
        "given": [ "John" ]
      } ]
    }
  }, {
    "fullUrl": "urn:uuid:3d6a53e4-a723-4a1b-87bc-16afa662550b",
    "resource": {
      "resourceType": "Location",
      "id": "3d6a53e4-a723-4a1b-87bc-16afa662550b",
      "name": "Incident Location",
      "address": {
        "type": "physical",
        "line": [ "12A", "Otter Close", "Bishopstoke", "Eastleigh", "Hampshire" ],
        "postalCode": "SO50 8NF"
      }
    }
  }, {
    "fullUrl": "urn:uuid:71827745-4c67-4349-a01a-4428466817d2",
    "resource": {
      "resourceType": "Patient",
      "id": "71827745-4c67-4349-a01a-4428466817d2",
      "identifier": [ {
        "extension": [ {
          "url": "https://fhir.hl7.org.uk/STU3/StructureDefinition/Extension-CareConnect-NHSNumberVerificationStatus-1",
          "valueCodeableConcept": {
            "coding": [ {
              "system": "https://fhir.hl7.org.uk/STU3/StructureDefinition/Extension-CareConnect-NHSNumberVerificationStatus-1",
              "code": "02"
            } ]
          }
        } ],
        "system": "https://fhir.nhs.uk/Id/nhs-number",
        "value": "0000000000"
      } ],
      "active": true,
      "name": [ {
        "use": "official",
        "family": "Testone",
        "given": [ "Test" ]
      } ],
      "telecom": [ {
        "system": "phone",
        "value": "tel:000000000000",
        "use": "home"
      }, {
        "system": "phone",
        "value": "tel:01111111111",
        "use": "mobile"
      }, {
        "system": "phone",
        "value": "tel:000000000000"
      } ],
      "gender": "female",
      "birthDate": "1980-01-01",
      "address": [ {
        "use": "home",
        "line": [ "Southern House", "Sparrowgrove", "Otterbourne", "Winchester", "Hampshire" ],
        "postalCode": "SO21 2RU"
      }, {
        "type": "physical",
        "line": [ "12A", "Otter Close", "Bishopstoke", "Eastleigh", "Hampshire" ],
        "postalCode": "SO50 8NF"
      } ]
    }
  }, {
    "fullUrl": "urn:uuid:6dfac756-0806-41a8-acb4-f4077466e043",
    "resource": {
      "resourceType": "HealthcareService",
      "id": "6dfac756-0806-41a8-acb4-f4077466e043",
      "active": true,
      "providedBy": {
        "reference": "urn:uuid:c7585823-dbfe-451b-9274-dbfd5edc07a2"
      },
      "location": [ {
        "reference": "urn:uuid:47adfcd1-34ff-4fa2-b82d-3befa77b1a27"
      } ],
      "name": "Lloyds Pharmacy, Stokewood Close, Fair Oak, Eastleigh"
    }
  }, {
    "fullUrl": "urn:uuid:47adfcd1-34ff-4fa2-b82d-3befa77b1a27",
    "resource": {
      "resourceType": "Location",
      "id": "47adfcd1-34ff-4fa2-b82d-3befa77b1a27",
      "managingOrganization": {
        "reference": "urn:uuid:c7585823-dbfe-451b-9274-dbfd5edc07a2"
      }
    }
  }, {
    "fullUrl": "urn:uuid:c7585823-dbfe-451b-9274-dbfd5edc07a2",
    "resource": {
      "resourceType": "Organization",
      "id": "c7585823-dbfe-451b-9274-dbfd5edc07a2",
      "identifier": [ {
        "value": "FDH68RPX"
      } ],
      "type": [ {
        "coding": [ {
          "code": "PRCP",
          "display": "Lloyds Pharmacy, Stokewood Close, Fair Oak, Eastleigh"
        } ]
      } ],
      "name": "Lloyds Pharmacy, Stokewood Close, Fair Oak, Eastleigh"
    }
  }, {
    "fullUrl": "urn:uuid:f858ff33-ba98-4026-ad73-a7541401888b",
    "resource": {
      "resourceType": "ReferralRequest",
      "id": "f858ff33-ba98-4026-ad73-a7541401888b",
      "status": "active",
      "intent": "plan",
      "priority": "routine",
      "subject": {
        "reference": "urn:uuid:71827745-4c67-4349-a01a-4428466817d2"
      },
      "context": {
        "reference": "urn:uuid:8d96f174-294f-47e4-a17a-cfcb9a3ccaff"
      },
      "occurrencePeriod": {
        "start": "2021-04-06T11:29:27+00:00"
      },
      "authoredOn": "2021-04-06T11:29:25+00:00",
      "requester": {
        "agent": {
          "reference": "urn:uuid:89831572-5766-41c7-9df0-3f2a071451e8"
        },
        "onBehalfOf": {
          "reference": "urn:uuid:b20994bc-aaff-4320-9f84-55799d184047"
        }
      },
      "recipient": [ {
        "reference": "urn:uuid:6dfac756-0806-41a8-acb4-f4077466e043"
      } ],
      "reasonReference": [ {
        "reference": "urn:uuid:bd67c6b8-be2d-4816-9077-ed6c87956806"
      } ],
      "supportingInfo": [ {
        "reference": "urn:uuid:c9bc73cd-5b74-4d76-b5b6-7211045e6dba"
      } ]
    }
  }, {
    "fullUrl": "urn:uuid:c9bc73cd-5b74-4d76-b5b6-7211045e6dba",
    "resource": {
      "resourceType": "ProcedureRequest",
      "id": "c9bc73cd-5b74-4d76-b5b6-7211045e6dba",
      "status": "active",
      "intent": "plan",
      "priority": "routine",
      "doNotPerform": false,
      "code": {
        "coding": [ {
          "system": "2.16.840.1.113883.2.1.3.2.4.17.325",
          "code": "Dx86",
          "display": "Repeat Prescription required within 12 hours"
        } ]
      },
      "subject": {
        "reference": "urn:uuid:71827745-4c67-4349-a01a-4428466817d2"
      },
      "occurrencePeriod": {
        "start": "2021-04-06T11:29:27+00:00"
      },
      "reasonReference": [ {
        "reference": "urn:uuid:bd67c6b8-be2d-4816-9077-ed6c87956806"
      } ]
    }
  }, {
    "fullUrl": "urn:uuid:bc8a91be-9abb-4231-8714-19a7a02e66ca",
    "resource": {
      "resourceType": "Composition",
      "id": "bc8a91be-9abb-4231-8714-19a7a02e66ca",
      "identifier": {
        "use": "usual",
        "value": "B66502CD-A9B4-4F3E-83EB-981F572C2C91"
      },
      "status": "final",
      "type": {
        "coding": [ {
          "system": "http://snomed.info/sct",
          "code": "371531000",
          "display": "Report of clinical encounter (record artifact)"
        } ]
      },
      "subject": {
        "reference": "urn:uuid:71827745-4c67-4349-a01a-4428466817d2"
      },
      "encounter": {
        "reference": "urn:uuid:8d96f174-294f-47e4-a17a-cfcb9a3ccaff"
      },
      "date": "2021-04-06T11:29:27+00:00",
      "author": [ {
        "reference": "urn:uuid:681054ce-9301-4ce8-a821-74e0db143d5b"
      } ],
      "title": "111 Report",
      "confidentiality": "N",
      "section": [ {
        "section": [ {
          "title": "Patient's Reported Condition",
          "text": {
            "status": "generated",
            "div": "<div xmlns=\"http://www.w3.org/1999/xhtml\">&lt;content&gt;test&lt;/content&gt;\n                                                    &lt;br/&gt;</div>"
          }
        }, {
          "title": "Pathways Disposition",
          "text": {
            "status": "generated",
            "div": "<div xmlns=\"http://www.w3.org/1999/xhtml\">Repeat Prescription required within 12 hours (Dx86)                                         &lt;br/&gt;\n                                                    &lt;br/&gt;                                         Selected service: Lloyds Pharmacy, Stokewood Close, Fair Oak, Eastle&lt;br/&gt;</div>"
          }
        }, {
          "title": "Consultation Summary",
          "text": {
            "status": "generated",
            "div": "<div xmlns=\"http://www.w3.org/1999/xhtml\">Prescription request&lt;br/&gt;Not enough medication until surgery opens&lt;br/&gt;No medication available&lt;br/&gt;Next dose due within next 12 hours&lt;br/&gt;</div>"
          }
        }, {
          "title": "Pathways Assessment",
          "text": {
            "status": "generated",
            "div": "<div xmlns=\"http://www.w3.org/1999/xhtml\">Reason for call menu - continued to next list.&lt;br/&gt;A prescription request was the main reason for the contact.&lt;br/&gt;The main reason for the contact was not a new or worsening illness.&lt;br/&gt;The individual did not have enough medication to last until the surgery next opened.&lt;br/&gt;The medication was suitable for repeat prescribing without further consultation.&lt;br/&gt;The individual had no medication available.&lt;br/&gt;The next dose was due within 12 hours.&lt;br/&gt;Instructions given were: The individual needs a repeat prescription.&lt;br/&gt;Directory of Services referral: Lloyds Pharmacy, Stokewood Close, Fair Oak, Eastleigh&lt;br/&gt;</div>"
          }
        }, {
          "title": "Advice Given",
          "text": {
            "status": "generated",
            "div": "<div xmlns=\"http://www.w3.org/1999/xhtml\">IF THE RECOMMENDED TIMEFRAME FALLS OUTSIDE OPENING HOURS: I will arrange for a clinician to speak to the individual.&lt;br/&gt;\n                                                    &lt;br/&gt;</div>"
          }
        }, {
          "title": "Information And Advice Given"
        }, {
          "title": "Disposition",
          "text": {
            "status": "generated",
            "div": "<div xmlns=\"http://www.w3.org/1999/xhtml\">&lt;content&gt;Repeat Prescription required within 12 hours&lt;br/&gt;\n                                                    &lt;/content&gt;\n                                                    &lt;br/&gt;\n                                                    &lt;br/&gt;</div>"
          }
        } ]
      }, {
        "title": "CarePlan",
        "entry": [ {
          "reference": "urn:uuid:f1fae10a-9a86-438f-b252-9a0b1d30a98f"
        } ]
      }, {
        "title": "ReferralRequest",
        "entry": [ {
          "reference": "urn:uuid:f858ff33-ba98-4026-ad73-a7541401888b"
        } ]
      }, {
        "title": "QuestionnaireResponse",
        "entry": [ {
          "reference": "urn:uuid:69fcf5e7-9679-44a4-924a-c7ea9421c19e"
        } ]
      }, {
        "title": "QuestionnaireResponse",
        "entry": [ {
          "reference": "urn:uuid:27b75521-fd0e-417e-b2c7-d7069169afb9"
        } ]
      }, {
        "title": "QuestionnaireResponse",
        "entry": [ {
          "reference": "urn:uuid:8d94f4c0-7e97-4784-a42c-89e43ca29262"
        } ]
      }, {
        "title": "QuestionnaireResponse",
        "entry": [ {
          "reference": "urn:uuid:96f43d73-09f1-4bd7-969a-a50d25583a80"
        } ]
      }, {
        "title": "QuestionnaireResponse",
        "entry": [ {
          "reference": "urn:uuid:d118ba45-ff02-4835-ae7c-0fe8ebd72e1c"
        } ]
      }, {
        "title": "QuestionnaireResponse",
        "entry": [ {
          "reference": "urn:uuid:6c676c37-6bc4-4d74-afc8-5ae9292da803"
        } ]
      }, {
        "title": "QuestionnaireResponse",
        "entry": [ {
          "reference": "urn:uuid:89982d80-1695-45dd-843a-d2241a68fa86"
        } ]
      }, {
        "title": "QuestionnaireResponse",
        "entry": [ {
          "reference": "urn:uuid:b834f54e-4073-4a95-87e3-cc61995d3c35"
        } ]
      }, {
        "title": "QuestionnaireResponse",
        "entry": [ {
          "reference": "urn:uuid:b6cc476e-419d-49bf-8e10-19634fb233c3"
        } ]
      }, {
        "title": "QuestionnaireResponse",
        "entry": [ {
          "reference": "urn:uuid:e9e87b00-22cc-40ae-a8df-ef87b7b96c52"
        } ]
      }, {
        "title": "QuestionnaireResponse",
        "entry": [ {
          "reference": "urn:uuid:2684231c-cf9a-443f-95e4-c393db6ed556"
        } ]
      }, {
        "title": "QuestionnaireResponse",
        "entry": [ {
          "reference": "urn:uuid:bc121096-8a93-4f11-ba87-b4a5e27563be"
        } ]
      }, {
        "title": "QuestionnaireResponse",
        "entry": [ {
          "reference": "urn:uuid:f9831b92-bf77-4c6b-b718-4f838dc5be0e"
        } ]
      }, {
        "title": "QuestionnaireResponse",
        "entry": [ {
          "reference": "urn:uuid:c306d5d5-8512-4e11-bbe3-c8864ec60e92"
        } ]
      }, {
        "title": "QuestionnaireResponse",
        "entry": [ {
          "reference": "urn:uuid:96c55f64-f886-4d7f-aed7-353b39a6e136"
        } ]
      }, {
        "title": "QuestionnaireResponse",
        "entry": [ {
          "reference": "urn:uuid:67d77360-897f-4268-b5e0-6402fd47b500"
        } ]
      }, {
        "title": "QuestionnaireResponse",
        "entry": [ {
          "reference": "urn:uuid:637bc8d5-e0c9-4cb0-b68b-97fb243448bf"
        } ]
      }, {
        "title": "QuestionnaireResponse",
        "entry": [ {
          "reference": "urn:uuid:53a63e1c-cb82-487a-a765-ab1384670309"
        } ]
      }, {
        "title": "QuestionnaireResponse",
        "entry": [ {
          "reference": "urn:uuid:1f4be3ab-7d16-4cea-989b-0eff7a63e7b5"
        } ]
      }, {
        "title": "QuestionnaireResponse",
        "entry": [ {
          "reference": "urn:uuid:00dd4e7e-4f2f-4f98-9942-8864f38772aa"
        } ]
      }, {
        "title": "QuestionnaireResponse",
        "entry": [ {
          "reference": "urn:uuid:cb795f95-f5af-4efd-9f6e-2a21b24f69d4"
        } ]
      }, {
        "title": "QuestionnaireResponse",
        "entry": [ {
          "reference": "urn:uuid:4603c9a7-a928-40e3-abf1-ec8fa4409a32"
        } ]
      }, {
        "title": "QuestionnaireResponse",
        "entry": [ {
          "reference": "urn:uuid:7a27e573-d8f2-457d-9cfb-247af79db423"
        } ]
      }, {
        "title": "QuestionnaireResponse",
        "entry": [ {
          "reference": "urn:uuid:b03d6a07-86c8-4ea1-868e-68ee51069d21"
        } ]
      }, {
        "title": "QuestionnaireResponse",
        "entry": [ {
          "reference": "urn:uuid:65365683-2b71-4d42-b974-27a3e48cf84c"
        } ]
      }, {
        "title": "QuestionnaireResponse",
        "entry": [ {
          "reference": "urn:uuid:25c93dac-4f5c-4497-9e27-a9303f26c7ae"
        } ]
      }, {
        "title": "QuestionnaireResponse",
        "entry": [ {
          "reference": "urn:uuid:7f53d7e0-315e-41b1-a2cd-0bc010a01cfc"
        } ]
      }, {
        "title": "QuestionnaireResponse",
        "entry": [ {
          "reference": "urn:uuid:14ee51f2-1007-44d8-a769-afaf7e753a8f"
        } ]
      }, {
        "title": "QuestionnaireResponse",
        "entry": [ {
          "reference": "urn:uuid:b203cafe-627c-43d2-a051-3964bd90c2b1"
        } ]
      }, {
        "title": "QuestionnaireResponse",
        "entry": [ {
          "reference": "urn:uuid:e0788d89-c5bf-4c7f-ab33-72b13ab8506c"
        } ]
      }, {
        "title": "QuestionnaireResponse",
        "entry": [ {
          "reference": "urn:uuid:6bf01446-7ad3-4428-bf33-3a1ba6ac9fcf"
        } ]
      }, {
        "title": "QuestionnaireResponse",
        "entry": [ {
          "reference": "urn:uuid:5f0dc12d-7faa-4939-a6d7-c15df2084efa"
        } ]
      }, {
        "title": "QuestionnaireResponse",
        "entry": [ {
          "reference": "urn:uuid:97883d28-ffca-49ab-afb7-8bfdf0b66d5b"
        } ]
      }, {
        "title": "QuestionnaireResponse",
        "entry": [ {
          "reference": "urn:uuid:cbe8b4ac-f87b-41d8-9f7f-33f202216cb9"
        } ]
      }, {
        "title": "QuestionnaireResponse",
        "entry": [ {
          "reference": "urn:uuid:e95025a1-bf02-4d5a-955f-bdee10b4a12c"
        } ]
      }, {
        "title": "QuestionnaireResponse",
        "entry": [ {
          "reference": "urn:uuid:375fedce-7e68-4725-b103-86eccbd45a6c"
        } ]
      }, {
        "title": "QuestionnaireResponse",
        "entry": [ {
          "reference": "urn:uuid:3293027a-e691-428c-9682-24327b6add18"
        } ]
      }, {
        "title": "QuestionnaireResponse",
        "entry": [ {
          "reference": "urn:uuid:bd4ee7b0-731b-408e-8c3e-73190ced0d0e"
        } ]
      }, {
        "title": "QuestionnaireResponse",
        "entry": [ {
          "reference": "urn:uuid:6fb6e139-8a71-4b75-a6c1-f0e8311c87f9"
        } ]
      }, {
        "title": "QuestionnaireResponse",
        "entry": [ {
          "reference": "urn:uuid:8cc5778e-2fa2-4020-aca0-c3ab29658e3b"
        } ]
      }, {
        "title": "QuestionnaireResponse",
        "entry": [ {
          "reference": "urn:uuid:d1733f5c-2f03-431c-9f0f-4ca6eea4d3e4"
        } ]
      }, {
        "title": "QuestionnaireResponse",
        "entry": [ {
          "reference": "urn:uuid:d7e686b2-7038-460d-81d0-32df71b7fb13"
        } ]
      }, {
        "title": "QuestionnaireResponse",
        "entry": [ {
          "reference": "urn:uuid:a16ab0e2-9851-49b9-af66-b9784402c8c1"
        } ]
      }, {
        "title": "QuestionnaireResponse",
        "entry": [ {
          "reference": "urn:uuid:3bc434ae-1509-4e15-b6b8-91a1a3ca1eb3"
        } ]
      }, {
        "title": "QuestionnaireResponse",
        "entry": [ {
          "reference": "urn:uuid:5663c0bb-f68d-42a8-b59c-37e13d713ac2"
        } ]
      }, {
        "title": "QuestionnaireResponse",
        "entry": [ {
          "reference": "urn:uuid:1dc078fa-172e-4048-8fad-d371b594bbe3"
        } ]
      }, {
        "title": "QuestionnaireResponse",
        "entry": [ {
          "reference": "urn:uuid:425484af-e186-44bc-b912-417d030b9a30"
        } ]
      }, {
        "title": "QuestionnaireResponse",
        "entry": [ {
          "reference": "urn:uuid:3c09d469-4349-41f6-823b-7711448793e5"
        } ]
      }, {
        "title": "QuestionnaireResponse",
        "entry": [ {
          "reference": "urn:uuid:bffbf1cc-5aba-4967-9527-6c1e924658f6"
        } ]
      }, {
        "title": "QuestionnaireResponse",
        "entry": [ {
          "reference": "urn:uuid:f2048c2b-efc4-49b9-9f3a-fe0e92a3f90e"
        } ]
      }, {
        "title": "QuestionnaireResponse",
        "entry": [ {
          "reference": "urn:uuid:2f5e3936-f08b-4842-9927-b91aeaa93322"
        } ]
      }, {
        "title": "QuestionnaireResponse",
        "entry": [ {
          "reference": "urn:uuid:a4d9273f-6a4c-4ec0-b3de-5d986b473121"
        } ]
      }, {
        "title": "QuestionnaireResponse",
        "entry": [ {
          "reference": "urn:uuid:fcb0f102-7a99-4c42-a4ff-9d04f8980a6a"
        } ]
      }, {
        "title": "QuestionnaireResponse",
        "entry": [ {
          "reference": "urn:uuid:4593c4f4-b7db-4198-9e67-521ee7382b08"
        } ]
      }, {
        "title": "QuestionnaireResponse",
        "entry": [ {
          "reference": "urn:uuid:a54405a1-b08c-46fa-997b-33d3740f78ea"
        } ]
      }, {
        "title": "QuestionnaireResponse",
        "entry": [ {
          "reference": "urn:uuid:fa318cb1-05e7-48ca-8e0a-95a48de2210b"
        } ]
      }, {
        "title": "QuestionnaireResponse",
        "entry": [ {
          "reference": "urn:uuid:d7c28b94-0a3c-40c4-9691-8e1e2a7d69dd"
        } ]
      }, {
        "title": "QuestionnaireResponse",
        "entry": [ {
          "reference": "urn:uuid:7f97ba22-c785-4923-9009-0577bdb12533"
        } ]
      }, {
        "title": "QuestionnaireResponse",
        "entry": [ {
          "reference": "urn:uuid:1842c037-b6c8-4279-838b-773f0436a751"
        } ]
      }, {
        "title": "QuestionnaireResponse",
        "entry": [ {
          "reference": "urn:uuid:79f41c4b-3072-4ff6-b0cd-d7fe5a5814d6"
        } ]
      }, {
        "title": "QuestionnaireResponse",
        "entry": [ {
          "reference": "urn:uuid:615579f6-3ba8-4f33-a8b3-e320f378139e"
        } ]
      } ]
    }
  }, {
    "fullUrl": "urn:uuid:f1fae10a-9a86-438f-b252-9a0b1d30a98f",
    "resource": {
      "resourceType": "CarePlan",
      "id": "f1fae10a-9a86-438f-b252-9a0b1d30a98f",
      "status": "completed",
      "intent": "plan",
      "title": "Information And Advice Given",
      "subject": {
        "reference": "urn:uuid:71827745-4c67-4349-a01a-4428466817d2"
      },
      "context": {
        "reference": "urn:uuid:8d96f174-294f-47e4-a17a-cfcb9a3ccaff"
      },
      "period": {
        "start": "2021-04-06T11:21:50+00:00",
        "end": "2021-04-06T11:29:25+00:00"
      },
      "addresses": [ {
        "reference": "urn:uuid:bd67c6b8-be2d-4816-9077-ed6c87956806"
      } ]
    }
  }, {
    "fullUrl": "urn:uuid:dbdab02f-7fd5-42fb-9825-69a1623c84a6",
    "resource": {
      "resourceType": "Consent",
      "id": "dbdab02f-7fd5-42fb-9825-69a1623c84a6",
      "identifier": {
        "use": "usual",
        "value": "B66502CD-A9B4-4F3E-83EB-981F572C2C91"
      },
      "status": "active",
      "patient": {
        "reference": "urn:uuid:71827745-4c67-4349-a01a-4428466817d2"
      },
      "period": {
        "start": "2021-04-06T11:21:50+00:00",
        "end": "2021-04-06T11:29:25+00:00"
      },
      "consentingParty": [ {
        "reference": "urn:uuid:71827745-4c67-4349-a01a-4428466817d2"
      } ],
      "action": [ {
        "coding": [ {
          "system": "http://snomed.info/sct",
          "code": "425691002",
          "display": "Consent given for electronic record sharing"
        } ],
        "text": "Consent given for electronic record sharing"
      } ],
      "organization": [ {
        "reference": "urn:uuid:b20994bc-aaff-4320-9f84-55799d184047"
      } ],
      "policyRule": "http://hl7.org/fhir/ConsentPolicy/opt-out",
      "data": [ {
        "meaning": "related",
        "reference": {
          "reference": "urn:uuid:8d96f174-294f-47e4-a17a-cfcb9a3ccaff"
        }
      } ]
    }
  }, {
    "fullUrl": "urn:uuid:bd67c6b8-be2d-4816-9077-ed6c87956806",
    "resource": {
      "resourceType": "Condition",
      "id": "bd67c6b8-be2d-4816-9077-ed6c87956806",
      "clinicalStatus": "active",
      "verificationStatus": "unknown",
      "subject": {
        "reference": "urn:uuid:71827745-4c67-4349-a01a-4428466817d2"
      },
      "context": {
        "reference": "urn:uuid:8d96f174-294f-47e4-a17a-cfcb9a3ccaff"
      },
      "evidence": [ {
        "detail": [ {
          "reference": "urn:uuid:69fcf5e7-9679-44a4-924a-c7ea9421c19e"
        } ]
      }, {
        "detail": [ {
          "reference": "urn:uuid:27b75521-fd0e-417e-b2c7-d7069169afb9"
        } ]
      }, {
        "detail": [ {
          "reference": "urn:uuid:8d94f4c0-7e97-4784-a42c-89e43ca29262"
        } ]
      }, {
        "detail": [ {
          "reference": "urn:uuid:96f43d73-09f1-4bd7-969a-a50d25583a80"
        } ]
      }, {
        "detail": [ {
          "reference": "urn:uuid:d118ba45-ff02-4835-ae7c-0fe8ebd72e1c"
        } ]
      }, {
        "detail": [ {
          "reference": "urn:uuid:6c676c37-6bc4-4d74-afc8-5ae9292da803"
        } ]
      }, {
        "detail": [ {
          "reference": "urn:uuid:89982d80-1695-45dd-843a-d2241a68fa86"
        } ]
      }, {
        "detail": [ {
          "reference": "urn:uuid:b834f54e-4073-4a95-87e3-cc61995d3c35"
        } ]
      }, {
        "detail": [ {
          "reference": "urn:uuid:b6cc476e-419d-49bf-8e10-19634fb233c3"
        } ]
      }, {
        "detail": [ {
          "reference": "urn:uuid:e9e87b00-22cc-40ae-a8df-ef87b7b96c52"
        } ]
      }, {
        "detail": [ {
          "reference": "urn:uuid:2684231c-cf9a-443f-95e4-c393db6ed556"
        } ]
      }, {
        "detail": [ {
          "reference": "urn:uuid:bc121096-8a93-4f11-ba87-b4a5e27563be"
        } ]
      }, {
        "detail": [ {
          "reference": "urn:uuid:f9831b92-bf77-4c6b-b718-4f838dc5be0e"
        } ]
      }, {
        "detail": [ {
          "reference": "urn:uuid:c306d5d5-8512-4e11-bbe3-c8864ec60e92"
        } ]
      }, {
        "detail": [ {
          "reference": "urn:uuid:96c55f64-f886-4d7f-aed7-353b39a6e136"
        } ]
      }, {
        "detail": [ {
          "reference": "urn:uuid:67d77360-897f-4268-b5e0-6402fd47b500"
        } ]
      }, {
        "detail": [ {
          "reference": "urn:uuid:637bc8d5-e0c9-4cb0-b68b-97fb243448bf"
        } ]
      }, {
        "detail": [ {
          "reference": "urn:uuid:53a63e1c-cb82-487a-a765-ab1384670309"
        } ]
      }, {
        "detail": [ {
          "reference": "urn:uuid:1f4be3ab-7d16-4cea-989b-0eff7a63e7b5"
        } ]
      }, {
        "detail": [ {
          "reference": "urn:uuid:00dd4e7e-4f2f-4f98-9942-8864f38772aa"
        } ]
      }, {
        "detail": [ {
          "reference": "urn:uuid:cb795f95-f5af-4efd-9f6e-2a21b24f69d4"
        } ]
      }, {
        "detail": [ {
          "reference": "urn:uuid:4603c9a7-a928-40e3-abf1-ec8fa4409a32"
        } ]
      }, {
        "detail": [ {
          "reference": "urn:uuid:7a27e573-d8f2-457d-9cfb-247af79db423"
        } ]
      }, {
        "detail": [ {
          "reference": "urn:uuid:b03d6a07-86c8-4ea1-868e-68ee51069d21"
        } ]
      }, {
        "detail": [ {
          "reference": "urn:uuid:65365683-2b71-4d42-b974-27a3e48cf84c"
        } ]
      }, {
        "detail": [ {
          "reference": "urn:uuid:25c93dac-4f5c-4497-9e27-a9303f26c7ae"
        } ]
      }, {
        "detail": [ {
          "reference": "urn:uuid:7f53d7e0-315e-41b1-a2cd-0bc010a01cfc"
        } ]
      }, {
        "detail": [ {
          "reference": "urn:uuid:14ee51f2-1007-44d8-a769-afaf7e753a8f"
        } ]
      }, {
        "detail": [ {
          "reference": "urn:uuid:b203cafe-627c-43d2-a051-3964bd90c2b1"
        } ]
      }, {
        "detail": [ {
          "reference": "urn:uuid:e0788d89-c5bf-4c7f-ab33-72b13ab8506c"
        } ]
      }, {
        "detail": [ {
          "reference": "urn:uuid:6bf01446-7ad3-4428-bf33-3a1ba6ac9fcf"
        } ]
      }, {
        "detail": [ {
          "reference": "urn:uuid:5f0dc12d-7faa-4939-a6d7-c15df2084efa"
        } ]
      }, {
        "detail": [ {
          "reference": "urn:uuid:97883d28-ffca-49ab-afb7-8bfdf0b66d5b"
        } ]
      }, {
        "detail": [ {
          "reference": "urn:uuid:cbe8b4ac-f87b-41d8-9f7f-33f202216cb9"
        } ]
      }, {
        "detail": [ {
          "reference": "urn:uuid:e95025a1-bf02-4d5a-955f-bdee10b4a12c"
        } ]
      }, {
        "detail": [ {
          "reference": "urn:uuid:375fedce-7e68-4725-b103-86eccbd45a6c"
        } ]
      }, {
        "detail": [ {
          "reference": "urn:uuid:3293027a-e691-428c-9682-24327b6add18"
        } ]
      }, {
        "detail": [ {
          "reference": "urn:uuid:bd4ee7b0-731b-408e-8c3e-73190ced0d0e"
        } ]
      }, {
        "detail": [ {
          "reference": "urn:uuid:6fb6e139-8a71-4b75-a6c1-f0e8311c87f9"
        } ]
      }, {
        "detail": [ {
          "reference": "urn:uuid:8cc5778e-2fa2-4020-aca0-c3ab29658e3b"
        } ]
      }, {
        "detail": [ {
          "reference": "urn:uuid:d1733f5c-2f03-431c-9f0f-4ca6eea4d3e4"
        } ]
      }, {
        "detail": [ {
          "reference": "urn:uuid:d7e686b2-7038-460d-81d0-32df71b7fb13"
        } ]
      }, {
        "detail": [ {
          "reference": "urn:uuid:a16ab0e2-9851-49b9-af66-b9784402c8c1"
        } ]
      }, {
        "detail": [ {
          "reference": "urn:uuid:3bc434ae-1509-4e15-b6b8-91a1a3ca1eb3"
        } ]
      }, {
        "detail": [ {
          "reference": "urn:uuid:5663c0bb-f68d-42a8-b59c-37e13d713ac2"
        } ]
      }, {
        "detail": [ {
          "reference": "urn:uuid:1dc078fa-172e-4048-8fad-d371b594bbe3"
        } ]
      }, {
        "detail": [ {
          "reference": "urn:uuid:425484af-e186-44bc-b912-417d030b9a30"
        } ]
      }, {
        "detail": [ {
          "reference": "urn:uuid:3c09d469-4349-41f6-823b-7711448793e5"
        } ]
      }, {
        "detail": [ {
          "reference": "urn:uuid:bffbf1cc-5aba-4967-9527-6c1e924658f6"
        } ]
      }, {
        "detail": [ {
          "reference": "urn:uuid:f2048c2b-efc4-49b9-9f3a-fe0e92a3f90e"
        } ]
      }, {
        "detail": [ {
          "reference": "urn:uuid:2f5e3936-f08b-4842-9927-b91aeaa93322"
        } ]
      }, {
        "detail": [ {
          "reference": "urn:uuid:a4d9273f-6a4c-4ec0-b3de-5d986b473121"
        } ]
      }, {
        "detail": [ {
          "reference": "urn:uuid:fcb0f102-7a99-4c42-a4ff-9d04f8980a6a"
        } ]
      }, {
        "detail": [ {
          "reference": "urn:uuid:4593c4f4-b7db-4198-9e67-521ee7382b08"
        } ]
      }, {
        "detail": [ {
          "reference": "urn:uuid:a54405a1-b08c-46fa-997b-33d3740f78ea"
        } ]
      }, {
        "detail": [ {
          "reference": "urn:uuid:fa318cb1-05e7-48ca-8e0a-95a48de2210b"
        } ]
      }, {
        "detail": [ {
          "reference": "urn:uuid:d7c28b94-0a3c-40c4-9691-8e1e2a7d69dd"
        } ]
      }, {
        "detail": [ {
          "reference": "urn:uuid:7f97ba22-c785-4923-9009-0577bdb12533"
        } ]
      }, {
        "detail": [ {
          "reference": "urn:uuid:1842c037-b6c8-4279-838b-773f0436a751"
        } ]
      }, {
        "detail": [ {
          "reference": "urn:uuid:79f41c4b-3072-4ff6-b0cd-d7fe5a5814d6"
        } ]
      }, {
        "detail": [ {
          "reference": "urn:uuid:615579f6-3ba8-4f33-a8b3-e320f378139e"
        } ]
      } ]
    }
  }, {
    "fullUrl": "urn:uuid:69fcf5e7-9679-44a4-924a-c7ea9421c19e",
    "resource": {
      "resourceType": "QuestionnaireResponse",
      "id": "69fcf5e7-9679-44a4-924a-c7ea9421c19e",
      "identifier": {
        "value": "59263"
      },
      "questionnaire": {
        "reference": "urn:uuid:deb03808-6aee-4096-b213-e220632be75a"
      },
      "status": "completed",
      "subject": {
        "reference": "urn:uuid:71827745-4c67-4349-a01a-4428466817d2"
      },
      "context": {
        "reference": "urn:uuid:8d96f174-294f-47e4-a17a-cfcb9a3ccaff"
      },
      "authored": "2021-04-06T11:29:26+00:00",
      "item": [ {
        "linkId": "Tx220074",
        "text": "What is the reason for the contact?",
        "answer": [ {
          "valueString": "an injury or other health problem"
        } ]
      } ]
    }
  }, {
    "fullUrl": "urn:uuid:deb03808-6aee-4096-b213-e220632be75a",
    "resource": {
      "resourceType": "Questionnaire",
      "id": "deb03808-6aee-4096-b213-e220632be75a",
      "identifier": [ {
        "value": "59263"
      } ],
      "version": "2021-04-06T11:29:26.887Z",
      "status": "active",
      "experimental": false,
      "date": "2021-04-06T11:29:26+00:00",
      "publisher": "User ID: 'HADFIELDR' User name: 'Ryan Hadfield' User skill set: 'T3'",
      "lastReviewDate": "2021-04-06",
      "contact": [ {
        "telecom": [ {
          "system": "phone",
          "value": "07777 888888"
        } ]
      } ],
      "subjectType": [ "Patient" ],
      "item": [ {
        "linkId": "59263",
        "prefix": "5",
        "text": "What is the reason for the contact?",
        "type": "choice",
        "required": true,
        "repeats": false,
        "option": [ {
          "valueString": "an injury or other health problem, Selected: true"
        }, {
          "valueString": "labour or childbirth, Selected: false"
        }, {
          "valueString": "a need to access another healthcare service, Selected: false"
        }, {
          "valueString": "a healthcare professional requesting contact with another clinician, Selected: false"
        }, {
          "valueString": "a report of results or tests, Selected: false"
        }, {
          "valueString": "a possible failure of contraception, Selected: false"
        }, {
          "valueString": "more, Selected: false"
        } ]
      } ]
    }
  }, {
    "fullUrl": "urn:uuid:27b75521-fd0e-417e-b2c7-d7069169afb9",
    "resource": {
      "resourceType": "QuestionnaireResponse",
      "id": "27b75521-fd0e-417e-b2c7-d7069169afb9",
      "identifier": {
        "value": "59263"
      },
      "questionnaire": {
        "reference": "urn:uuid:aeb8a3dd-2abf-4439-815c-7e780215083b"
      },
      "status": "completed",
      "subject": {
        "reference": "urn:uuid:71827745-4c67-4349-a01a-4428466817d2"
      },
      "context": {
        "reference": "urn:uuid:8d96f174-294f-47e4-a17a-cfcb9a3ccaff"
      },
      "authored": "2021-04-06T11:29:26+00:00",
      "item": [ {
        "linkId": "Tx221807",
        "text": "STRING:to'Immediatethreatstolife(SPA/OOHversion)'-'Majorbloodloss'stem",
        "answer": [ {
          "valueString": "\"present\""
        } ]
      } ]
    }
  }, {
    "fullUrl": "urn:uuid:aeb8a3dd-2abf-4439-815c-7e780215083b",
    "resource": {
      "resourceType": "Questionnaire",
      "id": "aeb8a3dd-2abf-4439-815c-7e780215083b",
      "identifier": [ {
        "value": "59263"
      } ],
      "version": "2021-04-06T11:29:26.887Z",
      "status": "active",
      "experimental": false,
      "date": "2021-04-06T11:29:26+00:00",
      "publisher": "User ID: 'HADFIELDR' User name: 'Ryan Hadfield' User skill set: 'T3'",
      "lastReviewDate": "2021-04-06",
      "contact": [ {
        "telecom": [ {
          "system": "phone",
          "value": "07777 888888"
        } ]
      } ],
      "subjectType": [ "Patient" ],
      "item": [ {
        "linkId": "59263",
        "prefix": "200",
        "text": "STRING:to'Immediatethreatstolife(SPA/OOHversion)'-'Majorbloodloss'stem",
        "type": "choice",
        "required": true,
        "repeats": false,
        "option": [ {
          "valueString": "\"present\", Selected: true"
        } ]
      } ]
    }
  }, {
    "fullUrl": "urn:uuid:8d94f4c0-7e97-4784-a42c-89e43ca29262",
    "resource": {
      "resourceType": "QuestionnaireResponse",
      "id": "8d94f4c0-7e97-4784-a42c-89e43ca29262",
      "identifier": {
        "value": "59263"
      },
      "questionnaire": {
        "reference": "urn:uuid:7334eec4-4cff-440a-a159-749cb293346b"
      },
      "status": "completed",
      "subject": {
        "reference": "urn:uuid:71827745-4c67-4349-a01a-4428466817d2"
      },
      "context": {
        "reference": "urn:uuid:8d96f174-294f-47e4-a17a-cfcb9a3ccaff"
      },
      "authored": "2021-04-06T11:29:26+00:00"
    }
  }, {
    "fullUrl": "urn:uuid:7334eec4-4cff-440a-a159-749cb293346b",
    "resource": {
      "resourceType": "Questionnaire",
      "id": "7334eec4-4cff-440a-a159-749cb293346b",
      "identifier": [ {
        "value": "59263"
      } ],
      "version": "2021-04-06T11:29:26.887Z",
      "status": "active",
      "experimental": false,
      "date": "2021-04-06T11:29:26+00:00",
      "publisher": "User ID: 'HADFIELDR' User name: 'Ryan Hadfield' User skill set: 'T3'",
      "lastReviewDate": "2021-04-06",
      "contact": [ {
        "telecom": [ {
          "system": "phone",
          "value": "07777 888888"
        } ]
      } ],
      "subjectType": [ "Patient" ]
    }
  }, {
    "fullUrl": "urn:uuid:96f43d73-09f1-4bd7-969a-a50d25583a80",
    "resource": {
      "resourceType": "QuestionnaireResponse",
      "id": "96f43d73-09f1-4bd7-969a-a50d25583a80",
      "identifier": {
        "value": "59263"
      },
      "questionnaire": {
        "reference": "urn:uuid:f3e8ba22-4359-4225-9f8f-63f10809064b"
      },
      "status": "completed",
      "subject": {
        "reference": "urn:uuid:71827745-4c67-4349-a01a-4428466817d2"
      },
      "context": {
        "reference": "urn:uuid:8d96f174-294f-47e4-a17a-cfcb9a3ccaff"
      },
      "authored": "2021-04-06T11:29:26+00:00",
      "item": [ {
        "linkId": "Tx221799",
        "text": "STRING:injury,illnessorlabourestablishedinEntryFlow",
        "answer": [ {
          "valueString": "\"present\""
        } ]
      } ]
    }
  }, {
    "fullUrl": "urn:uuid:f3e8ba22-4359-4225-9f8f-63f10809064b",
    "resource": {
      "resourceType": "Questionnaire",
      "id": "f3e8ba22-4359-4225-9f8f-63f10809064b",
      "identifier": [ {
        "value": "59263"
      } ],
      "version": "2021-04-06T11:29:26.887Z",
      "status": "active",
      "experimental": false,
      "date": "2021-04-06T11:29:26+00:00",
      "publisher": "User ID: 'HADFIELDR' User name: 'Ryan Hadfield' User skill set: 'T3'",
      "lastReviewDate": "2021-04-06",
      "contact": [ {
        "telecom": [ {
          "system": "phone",
          "value": "07777 888888"
        } ]
      } ],
      "subjectType": [ "Patient" ],
      "item": [ {
        "linkId": "59263",
        "prefix": "0",
        "text": "STRING:injury,illnessorlabourestablishedinEntryFlow",
        "type": "choice",
        "required": true,
        "repeats": false,
        "option": [ {
          "valueString": "\"present\", Selected: true"
        } ]
      } ]
    }
  }, {
    "fullUrl": "urn:uuid:d118ba45-ff02-4835-ae7c-0fe8ebd72e1c",
    "resource": {
      "resourceType": "QuestionnaireResponse",
      "id": "d118ba45-ff02-4835-ae7c-0fe8ebd72e1c",
      "identifier": {
        "value": "59263"
      },
      "questionnaire": {
        "reference": "urn:uuid:ac1298aa-786d-420d-9212-7d5ca64abf01"
      },
      "status": "completed",
      "subject": {
        "reference": "urn:uuid:71827745-4c67-4349-a01a-4428466817d2"
      },
      "context": {
        "reference": "urn:uuid:8d96f174-294f-47e4-a17a-cfcb9a3ccaff"
      },
      "authored": "2021-04-06T11:29:26+00:00",
      "item": [ {
        "linkId": "Tx224120",
        "text": "Have you been bleeding RED BLOOD very heavily IN THE LAST 2 HOURS?"
      } ]
    }
  }, {
    "fullUrl": "urn:uuid:ac1298aa-786d-420d-9212-7d5ca64abf01",
    "resource": {
      "resourceType": "Questionnaire",
      "id": "ac1298aa-786d-420d-9212-7d5ca64abf01",
      "identifier": [ {
        "value": "59263"
      } ],
      "version": "2021-04-06T11:29:26.887Z",
      "status": "active",
      "experimental": false,
      "date": "2021-04-06T11:29:26+00:00",
      "publisher": "User ID: 'HADFIELDR' User name: 'Ryan Hadfield' User skill set: 'T3'",
      "lastReviewDate": "2021-04-06",
      "contact": [ {
        "telecom": [ {
          "system": "phone",
          "value": "07777 888888"
        } ]
      } ],
      "subjectType": [ "Patient" ],
      "item": [ {
        "linkId": "59263",
        "prefix": "10100",
        "text": "Have you been bleeding RED BLOOD very heavily IN THE LAST 2 HOURS?",
        "type": "choice",
        "required": true,
        "repeats": false,
        "option": [ {
          "valueString": "yes, Selected: false"
        }, {
          "valueString": "not sure, Selected: false"
        }, {
          "valueString": "no, Selected: false"
        } ]
      } ]
    }
  }, {
    "fullUrl": "urn:uuid:6c676c37-6bc4-4d74-afc8-5ae9292da803",
    "resource": {
      "resourceType": "QuestionnaireResponse",
      "id": "6c676c37-6bc4-4d74-afc8-5ae9292da803",
      "identifier": {
        "value": "59263"
      },
      "questionnaire": {
        "reference": "urn:uuid:eff18d8e-bf58-4e5e-ac2c-879b82a1c947"
      },
      "status": "completed",
      "subject": {
        "reference": "urn:uuid:71827745-4c67-4349-a01a-4428466817d2"
      },
      "context": {
        "reference": "urn:uuid:8d96f174-294f-47e4-a17a-cfcb9a3ccaff"
      },
      "authored": "2021-04-06T11:29:26+00:00",
      "item": [ {
        "linkId": "Tx220074",
        "text": "What is the reason for the contact?",
        "answer": [ {
          "valueString": "more"
        } ]
      } ]
    }
  }, {
    "fullUrl": "urn:uuid:eff18d8e-bf58-4e5e-ac2c-879b82a1c947",
    "resource": {
      "resourceType": "Questionnaire",
      "id": "eff18d8e-bf58-4e5e-ac2c-879b82a1c947",
      "identifier": [ {
        "value": "59263"
      } ],
      "version": "2021-04-06T11:29:26.887Z",
      "status": "active",
      "experimental": false,
      "date": "2021-04-06T11:29:26+00:00",
      "publisher": "User ID: 'HADFIELDR' User name: 'Ryan Hadfield' User skill set: 'T3'",
      "lastReviewDate": "2021-04-06",
      "contact": [ {
        "telecom": [ {
          "system": "phone",
          "value": "07777 888888"
        } ]
      } ],
      "subjectType": [ "Patient" ],
      "item": [ {
        "linkId": "59263",
        "prefix": "5",
        "text": "What is the reason for the contact?",
        "type": "choice",
        "required": true,
        "repeats": false,
        "option": [ {
          "valueString": "an injury or other health problem, Selected: false"
        }, {
          "valueString": "labour or childbirth, Selected: false"
        }, {
          "valueString": "a need to access another healthcare service, Selected: false"
        }, {
          "valueString": "a healthcare professional requesting contact with another clinician, Selected: false"
        }, {
          "valueString": "a report of results or tests, Selected: false"
        }, {
          "valueString": "a possible failure of contraception, Selected: false"
        }, {
          "valueString": "more, Selected: true"
        } ]
      } ]
    }
  }, {
    "fullUrl": "urn:uuid:89982d80-1695-45dd-843a-d2241a68fa86",
    "resource": {
      "resourceType": "QuestionnaireResponse",
      "id": "89982d80-1695-45dd-843a-d2241a68fa86",
      "identifier": {
        "value": "59263"
      },
      "questionnaire": {
        "reference": "urn:uuid:0de55478-4f72-4061-ae34-8f13ba1160d9"
      },
      "status": "completed",
      "subject": {
        "reference": "urn:uuid:71827745-4c67-4349-a01a-4428466817d2"
      },
      "context": {
        "reference": "urn:uuid:8d96f174-294f-47e4-a17a-cfcb9a3ccaff"
      },
      "authored": "2021-04-06T11:29:26+00:00",
      "item": [ {
        "linkId": "Tx221793",
        "text": "STRING:to'Social&information'-further'Callreason'menu",
        "answer": [ {
          "valueString": "\"present\""
        } ]
      } ]
    }
  }, {
    "fullUrl": "urn:uuid:0de55478-4f72-4061-ae34-8f13ba1160d9",
    "resource": {
      "resourceType": "Questionnaire",
      "id": "0de55478-4f72-4061-ae34-8f13ba1160d9",
      "identifier": [ {
        "value": "59263"
      } ],
      "version": "2021-04-06T11:29:26.887Z",
      "status": "active",
      "experimental": false,
      "date": "2021-04-06T11:29:26+00:00",
      "publisher": "User ID: 'HADFIELDR' User name: 'Ryan Hadfield' User skill set: 'T3'",
      "lastReviewDate": "2021-04-06",
      "contact": [ {
        "telecom": [ {
          "system": "phone",
          "value": "07777 888888"
        } ]
      } ],
      "subjectType": [ "Patient" ],
      "item": [ {
        "linkId": "59263",
        "prefix": "600",
        "text": "STRING:to'Social&information'-further'Callreason'menu",
        "type": "choice",
        "required": true,
        "repeats": false,
        "option": [ {
          "valueString": "\"present\", Selected: true"
        } ]
      } ]
    }
  }, {
    "fullUrl": "urn:uuid:b834f54e-4073-4a95-87e3-cc61995d3c35",
    "resource": {
      "resourceType": "QuestionnaireResponse",
      "id": "b834f54e-4073-4a95-87e3-cc61995d3c35",
      "identifier": {
        "value": "59263"
      },
      "questionnaire": {
        "reference": "urn:uuid:efd006d0-a492-4cd5-b831-2688fbcc32e3"
      },
      "status": "completed",
      "subject": {
        "reference": "urn:uuid:71827745-4c67-4349-a01a-4428466817d2"
      },
      "context": {
        "reference": "urn:uuid:8d96f174-294f-47e4-a17a-cfcb9a3ccaff"
      },
      "authored": "2021-04-06T11:29:26+00:00"
    }
  }, {
    "fullUrl": "urn:uuid:efd006d0-a492-4cd5-b831-2688fbcc32e3",
    "resource": {
      "resourceType": "Questionnaire",
      "id": "efd006d0-a492-4cd5-b831-2688fbcc32e3",
      "identifier": [ {
        "value": "59263"
      } ],
      "version": "2021-04-06T11:29:26.887Z",
      "status": "active",
      "experimental": false,
      "date": "2021-04-06T11:29:26+00:00",
      "publisher": "User ID: 'HADFIELDR' User name: 'Ryan Hadfield' User skill set: 'T3'",
      "lastReviewDate": "2021-04-06",
      "contact": [ {
        "telecom": [ {
          "system": "phone",
          "value": "07777 888888"
        } ]
      } ],
      "subjectType": [ "Patient" ]
    }
  }, {
    "fullUrl": "urn:uuid:b6cc476e-419d-49bf-8e10-19634fb233c3",
    "resource": {
      "resourceType": "QuestionnaireResponse",
      "id": "b6cc476e-419d-49bf-8e10-19634fb233c3",
      "identifier": {
        "value": "59263"
      },
      "questionnaire": {
        "reference": "urn:uuid:43bf3421-6254-4990-9523-7f3b6124c4f9"
      },
      "status": "completed",
      "subject": {
        "reference": "urn:uuid:71827745-4c67-4349-a01a-4428466817d2"
      },
      "context": {
        "reference": "urn:uuid:8d96f174-294f-47e4-a17a-cfcb9a3ccaff"
      },
      "authored": "2021-04-06T11:29:26+00:00",
      "item": [ {
        "linkId": "Tx221804",
        "text": "STRING:transfertofurthermenuquestionestablishedinEntryFlow",
        "answer": [ {
          "valueString": "\"present\""
        } ]
      } ]
    }
  }, {
    "fullUrl": "urn:uuid:43bf3421-6254-4990-9523-7f3b6124c4f9",
    "resource": {
      "resourceType": "Questionnaire",
      "id": "43bf3421-6254-4990-9523-7f3b6124c4f9",
      "identifier": [ {
        "value": "59263"
      } ],
      "version": "2021-04-06T11:29:26.887Z",
      "status": "active",
      "experimental": false,
      "date": "2021-04-06T11:29:26+00:00",
      "publisher": "User ID: 'HADFIELDR' User name: 'Ryan Hadfield' User skill set: 'T3'",
      "lastReviewDate": "2021-04-06",
      "contact": [ {
        "telecom": [ {
          "system": "phone",
          "value": "07777 888888"
        } ]
      } ],
      "subjectType": [ "Patient" ],
      "item": [ {
        "linkId": "59263",
        "prefix": "41",
        "text": "STRING:transfertofurthermenuquestionestablishedinEntryFlow",
        "type": "choice",
        "required": true,
        "repeats": false,
        "option": [ {
          "valueString": "\"present\", Selected: true"
        } ]
      } ]
    }
  }, {
    "fullUrl": "urn:uuid:e9e87b00-22cc-40ae-a8df-ef87b7b96c52",
    "resource": {
      "resourceType": "QuestionnaireResponse",
      "id": "e9e87b00-22cc-40ae-a8df-ef87b7b96c52",
      "identifier": {
        "value": "59263"
      },
      "questionnaire": {
        "reference": "urn:uuid:ac97d546-ffd8-45ee-b4a6-13355ce9f629"
      },
      "status": "completed",
      "subject": {
        "reference": "urn:uuid:71827745-4c67-4349-a01a-4428466817d2"
      },
      "context": {
        "reference": "urn:uuid:8d96f174-294f-47e4-a17a-cfcb9a3ccaff"
      },
      "authored": "2021-04-06T11:29:26+00:00",
      "item": [ {
        "linkId": "Tx224998",
        "text": "SYSTEM_COVIDLEVEL2",
        "answer": [ {
          "valueString": "==\"covidlevel2\""
        } ]
      } ]
    }
  }, {
    "fullUrl": "urn:uuid:ac97d546-ffd8-45ee-b4a6-13355ce9f629",
    "resource": {
      "resourceType": "Questionnaire",
      "id": "ac97d546-ffd8-45ee-b4a6-13355ce9f629",
      "identifier": [ {
        "value": "59263"
      } ],
      "version": "2021-04-06T11:29:26.887Z",
      "status": "active",
      "experimental": false,
      "date": "2021-04-06T11:29:26+00:00",
      "publisher": "User ID: 'HADFIELDR' User name: 'Ryan Hadfield' User skill set: 'T3'",
      "lastReviewDate": "2021-04-06",
      "contact": [ {
        "telecom": [ {
          "system": "phone",
          "value": "07777 888888"
        } ]
      } ],
      "subjectType": [ "Patient" ],
      "item": [ {
        "linkId": "59263",
        "prefix": "5900",
        "text": "SYSTEM_COVIDLEVEL2",
        "type": "choice",
        "required": true,
        "repeats": false,
        "option": [ {
          "valueString": "==\"covidlevel2\", Selected: true"
        }, {
          "valueString": "*, Selected: false"
        } ]
      } ]
    }
  }, {
    "fullUrl": "urn:uuid:2684231c-cf9a-443f-95e4-c393db6ed556",
    "resource": {
      "resourceType": "QuestionnaireResponse",
      "id": "2684231c-cf9a-443f-95e4-c393db6ed556",
      "identifier": {
        "value": "59263"
      },
      "questionnaire": {
        "reference": "urn:uuid:9fe83c1e-1d8d-433f-9a21-380d2019d51d"
      },
      "status": "completed",
      "subject": {
        "reference": "urn:uuid:71827745-4c67-4349-a01a-4428466817d2"
      },
      "context": {
        "reference": "urn:uuid:8d96f174-294f-47e4-a17a-cfcb9a3ccaff"
      },
      "authored": "2021-04-06T11:29:26+00:00",
      "item": [ {
        "linkId": "Tx225069",
        "text": "What is the reason for the contact?",
        "answer": [ {
          "valueString": "a prescription request"
        } ]
      } ]
    }
  }, {
    "fullUrl": "urn:uuid:9fe83c1e-1d8d-433f-9a21-380d2019d51d",
    "resource": {
      "resourceType": "Questionnaire",
      "id": "9fe83c1e-1d8d-433f-9a21-380d2019d51d",
      "identifier": [ {
        "value": "59263"
      } ],
      "version": "2021-04-06T11:29:26.887Z",
      "status": "active",
      "experimental": false,
      "date": "2021-04-06T11:29:26+00:00",
      "publisher": "User ID: 'HADFIELDR' User name: 'Ryan Hadfield' User skill set: 'T3'",
      "lastReviewDate": "2021-04-06",
      "contact": [ {
        "telecom": [ {
          "system": "phone",
          "value": "07777 888888"
        } ]
      } ],
      "subjectType": [ "Patient" ],
      "item": [ {
        "linkId": "59263",
        "prefix": "6000",
        "text": "What is the reason for the contact?",
        "type": "choice",
        "required": true,
        "repeats": false,
        "option": [ {
          "valueString": "a child protection/vulnerable adult concern (specify), Selected: false"
        }, {
          "valueString": "a social or domestic emergency, Selected: false"
        }, {
          "valueString": "a prescription request, Selected: true"
        }, {
          "valueString": "an appointment request, Selected: false"
        }, {
          "valueString": "a request for health or medication information, Selected: false"
        }, {
          "valueString": "public health alert information, Selected: false"
        } ]
      } ]
    }
  }, {
    "fullUrl": "urn:uuid:bc121096-8a93-4f11-ba87-b4a5e27563be",
    "resource": {
      "resourceType": "QuestionnaireResponse",
      "id": "bc121096-8a93-4f11-ba87-b4a5e27563be",
      "identifier": {
        "value": "59263"
      },
      "questionnaire": {
        "reference": "urn:uuid:28d0dd25-1cb7-45ef-bde5-c2eb3ec7fdfb"
      },
      "status": "completed",
      "subject": {
        "reference": "urn:uuid:71827745-4c67-4349-a01a-4428466817d2"
      },
      "context": {
        "reference": "urn:uuid:8d96f174-294f-47e4-a17a-cfcb9a3ccaff"
      },
      "authored": "2021-04-06T11:29:26+00:00",
      "item": [ {
        "linkId": "Tx220957",
        "text": "Is this contact about a new or worsening illness?",
        "answer": [ {
          "valueString": "no"
        } ]
      } ]
    }
  }, {
    "fullUrl": "urn:uuid:28d0dd25-1cb7-45ef-bde5-c2eb3ec7fdfb",
    "resource": {
      "resourceType": "Questionnaire",
      "id": "28d0dd25-1cb7-45ef-bde5-c2eb3ec7fdfb",
      "identifier": [ {
        "value": "59263"
      } ],
      "version": "2021-04-06T11:29:26.887Z",
      "status": "active",
      "experimental": false,
      "date": "2021-04-06T11:29:26+00:00",
      "publisher": "User ID: 'HADFIELDR' User name: 'Ryan Hadfield' User skill set: 'T3'",
      "lastReviewDate": "2021-04-06",
      "contact": [ {
        "telecom": [ {
          "system": "phone",
          "value": "07777 888888"
        } ]
      } ],
      "subjectType": [ "Patient" ],
      "item": [ {
        "linkId": "59263",
        "prefix": "1400",
        "text": "Is this contact about a new or worsening illness?",
        "type": "choice",
        "required": true,
        "repeats": false,
        "option": [ {
          "valueString": "yes, Selected: false"
        }, {
          "valueString": "not sure, Selected: false"
        }, {
          "valueString": "no, Selected: true"
        } ]
      } ]
    }
  }, {
    "fullUrl": "urn:uuid:f9831b92-bf77-4c6b-b718-4f838dc5be0e",
    "resource": {
      "resourceType": "QuestionnaireResponse",
      "id": "f9831b92-bf77-4c6b-b718-4f838dc5be0e",
      "identifier": {
        "value": "59263"
      },
      "questionnaire": {
        "reference": "urn:uuid:6ef5ff0b-a1a4-4e0d-836a-46c548fa8aeb"
      },
      "status": "completed",
      "subject": {
        "reference": "urn:uuid:71827745-4c67-4349-a01a-4428466817d2"
      },
      "context": {
        "reference": "urn:uuid:8d96f174-294f-47e4-a17a-cfcb9a3ccaff"
      },
      "authored": "2021-04-06T11:29:26+00:00",
      "item": [ {
        "linkId": "Tx221352",
        "text": "Have you got enough medication to last until the surgery opens?",
        "answer": [ {
          "valueString": "no"
        } ]
      } ]
    }
  }, {
    "fullUrl": "urn:uuid:6ef5ff0b-a1a4-4e0d-836a-46c548fa8aeb",
    "resource": {
      "resourceType": "Questionnaire",
      "id": "6ef5ff0b-a1a4-4e0d-836a-46c548fa8aeb",
      "identifier": [ {
        "value": "59263"
      } ],
      "version": "2021-04-06T11:29:26.887Z",
      "status": "active",
      "experimental": false,
      "date": "2021-04-06T11:29:26+00:00",
      "publisher": "User ID: 'HADFIELDR' User name: 'Ryan Hadfield' User skill set: 'T3'",
      "lastReviewDate": "2021-04-06",
      "contact": [ {
        "telecom": [ {
          "system": "phone",
          "value": "07777 888888"
        } ]
      } ],
      "subjectType": [ "Patient" ],
      "item": [ {
        "linkId": "59263",
        "prefix": "1500",
        "text": "Have you got enough medication to last until the surgery opens?",
        "type": "choice",
        "required": true,
        "repeats": false,
        "option": [ {
          "valueString": "yes, Selected: false"
        }, {
          "valueString": "not sure, Selected: false"
        }, {
          "valueString": "no, Selected: true"
        } ]
      } ]
    }
  }, {
    "fullUrl": "urn:uuid:c306d5d5-8512-4e11-bbe3-c8864ec60e92",
    "resource": {
      "resourceType": "QuestionnaireResponse",
      "id": "c306d5d5-8512-4e11-bbe3-c8864ec60e92",
      "identifier": {
        "value": "59263"
      },
      "questionnaire": {
        "reference": "urn:uuid:73c3d237-7a70-4370-9621-f976eb50b44a"
      },
      "status": "completed",
      "subject": {
        "reference": "urn:uuid:71827745-4c67-4349-a01a-4428466817d2"
      },
      "context": {
        "reference": "urn:uuid:8d96f174-294f-47e4-a17a-cfcb9a3ccaff"
      },
      "authored": "2021-04-06T11:29:26+00:00"
    }
  }, {
    "fullUrl": "urn:uuid:73c3d237-7a70-4370-9621-f976eb50b44a",
    "resource": {
      "resourceType": "Questionnaire",
      "id": "73c3d237-7a70-4370-9621-f976eb50b44a",
      "identifier": [ {
        "value": "59263"
      } ],
      "version": "2021-04-06T11:29:26.887Z",
      "status": "active",
      "experimental": false,
      "date": "2021-04-06T11:29:26+00:00",
      "publisher": "User ID: 'HADFIELDR' User name: 'Ryan Hadfield' User skill set: 'T3'",
      "lastReviewDate": "2021-04-06",
      "contact": [ {
        "telecom": [ {
          "system": "phone",
          "value": "07777 888888"
        } ]
      } ],
      "subjectType": [ "Patient" ]
    }
  }, {
    "fullUrl": "urn:uuid:96c55f64-f886-4d7f-aed7-353b39a6e136",
    "resource": {
      "resourceType": "QuestionnaireResponse",
      "id": "96c55f64-f886-4d7f-aed7-353b39a6e136",
      "identifier": {
        "value": "59263"
      },
      "questionnaire": {
        "reference": "urn:uuid:8d0f75c6-b4a5-4899-83c0-b6164315bb46"
      },
      "status": "completed",
      "subject": {
        "reference": "urn:uuid:71827745-4c67-4349-a01a-4428466817d2"
      },
      "context": {
        "reference": "urn:uuid:8d96f174-294f-47e4-a17a-cfcb9a3ccaff"
      },
      "authored": "2021-04-06T11:29:26+00:00",
      "item": [ {
        "linkId": "Tx224231",
        "text": "FROM WHAT YOU HAVE HEARD IS A CONSULTATION WITH A PRESCRIBER NEEDED?",
        "answer": [ {
          "valueString": "yes"
        } ]
      } ]
    }
  }, {
    "fullUrl": "urn:uuid:8d0f75c6-b4a5-4899-83c0-b6164315bb46",
    "resource": {
      "resourceType": "Questionnaire",
      "id": "8d0f75c6-b4a5-4899-83c0-b6164315bb46",
      "identifier": [ {
        "value": "59263"
      } ],
      "version": "2021-04-06T11:29:26.887Z",
      "status": "active",
      "experimental": false,
      "date": "2021-04-06T11:29:26+00:00",
      "publisher": "User ID: 'HADFIELDR' User name: 'Ryan Hadfield' User skill set: 'T3'",
      "lastReviewDate": "2021-04-06",
      "contact": [ {
        "telecom": [ {
          "system": "phone",
          "value": "07777 888888"
        } ]
      } ],
      "subjectType": [ "Patient" ],
      "item": [ {
        "linkId": "59263",
        "prefix": "0",
        "text": "FROM WHAT YOU HAVE HEARD IS A CONSULTATION WITH A PRESCRIBER NEEDED?",
        "type": "choice",
        "required": true,
        "repeats": false,
        "option": [ {
          "valueString": "yes, Selected: true"
        }, {
          "valueString": "not sure, Selected: false"
        }, {
          "valueString": "no, Selected: false"
        } ]
      } ]
    }
  }, {
    "fullUrl": "urn:uuid:67d77360-897f-4268-b5e0-6402fd47b500",
    "resource": {
      "resourceType": "QuestionnaireResponse",
      "id": "67d77360-897f-4268-b5e0-6402fd47b500",
      "identifier": {
        "value": "59263"
      },
      "questionnaire": {
        "reference": "urn:uuid:edf311d6-ca21-4759-b2ed-27daa7d59326"
      },
      "status": "completed",
      "subject": {
        "reference": "urn:uuid:71827745-4c67-4349-a01a-4428466817d2"
      },
      "context": {
        "reference": "urn:uuid:8d96f174-294f-47e4-a17a-cfcb9a3ccaff"
      },
      "authored": "2021-04-06T11:29:26+00:00",
      "item": [ {
        "linkId": "Tx221367",
        "text": "When is the next dose due?",
        "answer": [ {
          "valueString": "within the next 12 hours"
        } ]
      } ]
    }
  }, {
    "fullUrl": "urn:uuid:edf311d6-ca21-4759-b2ed-27daa7d59326",
    "resource": {
      "resourceType": "Questionnaire",
      "id": "edf311d6-ca21-4759-b2ed-27daa7d59326",
      "identifier": [ {
        "value": "59263"
      } ],
      "version": "2021-04-06T11:29:26.887Z",
      "status": "active",
      "experimental": false,
      "date": "2021-04-06T11:29:26+00:00",
      "publisher": "User ID: 'HADFIELDR' User name: 'Ryan Hadfield' User skill set: 'T3'",
      "lastReviewDate": "2021-04-06",
      "contact": [ {
        "telecom": [ {
          "system": "phone",
          "value": "07777 888888"
        } ]
      } ],
      "subjectType": [ "Patient" ],
      "item": [ {
        "linkId": "59263",
        "prefix": "2900",
        "text": "When is the next dose due?",
        "type": "choice",
        "required": true,
        "repeats": false,
        "option": [ {
          "valueString": "within the next 2 hours, Selected: false"
        }, {
          "valueString": "within the next 6 hours, Selected: false"
        }, {
          "valueString": "within the next 12 hours, Selected: true"
        }, {
          "valueString": "over 12 hours time, Selected: false"
        }, {
          "valueString": "not sure, Selected: false"
        } ]
      } ]
    }
  }, {
    "fullUrl": "urn:uuid:637bc8d5-e0c9-4cb0-b68b-97fb243448bf",
    "resource": {
      "resourceType": "QuestionnaireResponse",
      "id": "637bc8d5-e0c9-4cb0-b68b-97fb243448bf",
      "identifier": {
        "value": "59263"
      },
      "questionnaire": {
        "reference": "urn:uuid:cdbfd418-26b4-45a6-aeba-1a2c12575082"
      },
      "status": "completed",
      "subject": {
        "reference": "urn:uuid:71827745-4c67-4349-a01a-4428466817d2"
      },
      "context": {
        "reference": "urn:uuid:8d96f174-294f-47e4-a17a-cfcb9a3ccaff"
      },
      "authored": "2021-04-06T11:29:26+00:00",
      "item": [ {
        "linkId": "Tx221449",
        "text": "STRING:SDPCFullPrimaryCareassessmentandprescribingcapability",
        "answer": [ {
          "valueString": "\"PC full Primary Care assessment and prescribing capability\""
        } ]
      } ]
    }
  }, {
    "fullUrl": "urn:uuid:cdbfd418-26b4-45a6-aeba-1a2c12575082",
    "resource": {
      "resourceType": "Questionnaire",
      "id": "cdbfd418-26b4-45a6-aeba-1a2c12575082",
      "identifier": [ {
        "value": "59263"
      } ],
      "version": "2021-04-06T11:29:26.887Z",
      "status": "active",
      "experimental": false,
      "date": "2021-04-06T11:29:26+00:00",
      "publisher": "User ID: 'HADFIELDR' User name: 'Ryan Hadfield' User skill set: 'T3'",
      "lastReviewDate": "2021-04-06",
      "contact": [ {
        "telecom": [ {
          "system": "phone",
          "value": "07777 888888"
        } ]
      } ],
      "subjectType": [ "Patient" ],
      "item": [ {
        "linkId": "59263",
        "prefix": "3000",
        "text": "STRING:SDPCFullPrimaryCareassessmentandprescribingcapability",
        "type": "choice",
        "required": true,
        "repeats": false,
        "option": [ {
          "valueString": "\"PC full Primary Care assessment and prescribing capability\", Selected: true"
        } ]
      } ]
    }
  }, {
    "fullUrl": "urn:uuid:53a63e1c-cb82-487a-a765-ab1384670309",
    "resource": {
      "resourceType": "QuestionnaireResponse",
      "id": "53a63e1c-cb82-487a-a765-ab1384670309",
      "identifier": {
        "value": "59263"
      },
      "questionnaire": {
        "reference": "urn:uuid:80f0aecb-0fec-480f-a9d1-41594250b424"
      },
      "status": "completed",
      "subject": {
        "reference": "urn:uuid:71827745-4c67-4349-a01a-4428466817d2"
      },
      "context": {
        "reference": "urn:uuid:8d96f174-294f-47e4-a17a-cfcb9a3ccaff"
      },
      "authored": "2021-04-06T11:29:26+00:00"
    }
  }, {
    "fullUrl": "urn:uuid:80f0aecb-0fec-480f-a9d1-41594250b424",
    "resource": {
      "resourceType": "Questionnaire",
      "id": "80f0aecb-0fec-480f-a9d1-41594250b424",
      "identifier": [ {
        "value": "59263"
      } ],
      "version": "2021-04-06T11:29:26.887Z",
      "status": "active",
      "experimental": false,
      "date": "2021-04-06T11:29:26+00:00",
      "publisher": "User ID: 'HADFIELDR' User name: 'Ryan Hadfield' User skill set: 'T3'",
      "lastReviewDate": "2021-04-06",
      "contact": [ {
        "telecom": [ {
          "system": "phone",
          "value": "07777 888888"
        } ]
      } ],
      "subjectType": [ "Patient" ]
    }
  }, {
    "fullUrl": "urn:uuid:1f4be3ab-7d16-4cea-989b-0eff7a63e7b5",
    "resource": {
      "resourceType": "QuestionnaireResponse",
      "id": "1f4be3ab-7d16-4cea-989b-0eff7a63e7b5",
      "identifier": {
        "value": "59263"
      },
      "questionnaire": {
        "reference": "urn:uuid:7cd23d86-4246-4114-8c0c-01d36ff6bf0d"
      },
      "status": "completed",
      "subject": {
        "reference": "urn:uuid:71827745-4c67-4349-a01a-4428466817d2"
      },
      "context": {
        "reference": "urn:uuid:8d96f174-294f-47e4-a17a-cfcb9a3ccaff"
      },
      "authored": "2021-04-06T11:29:26+00:00",
      "item": [ {
        "linkId": "Tx220074",
        "text": "What is the reason for the contact?",
        "answer": [ {
          "valueString": "an injury or other health problem"
        } ]
      } ]
    }
  }, {
    "fullUrl": "urn:uuid:7cd23d86-4246-4114-8c0c-01d36ff6bf0d",
    "resource": {
      "resourceType": "Questionnaire",
      "id": "7cd23d86-4246-4114-8c0c-01d36ff6bf0d",
      "identifier": [ {
        "value": "59263"
      } ],
      "version": "2021-04-06T11:29:26.887Z",
      "status": "active",
      "experimental": false,
      "date": "2021-04-06T11:29:26+00:00",
      "publisher": "User ID: 'HADFIELDR' User name: 'Ryan Hadfield' User skill set: 'T3'",
      "lastReviewDate": "2021-04-06",
      "contact": [ {
        "telecom": [ {
          "system": "phone",
          "value": "07777 888888"
        } ]
      } ],
      "subjectType": [ "Patient" ],
      "item": [ {
        "linkId": "59263",
        "prefix": "5",
        "text": "What is the reason for the contact?",
        "type": "choice",
        "required": true,
        "repeats": false,
        "option": [ {
          "valueString": "an injury or other health problem, Selected: true"
        }, {
          "valueString": "labour or childbirth, Selected: false"
        }, {
          "valueString": "a need to access another healthcare service, Selected: false"
        }, {
          "valueString": "a healthcare professional requesting contact with another clinician, Selected: false"
        }, {
          "valueString": "a report of results or tests, Selected: false"
        }, {
          "valueString": "a possible failure of contraception, Selected: false"
        }, {
          "valueString": "more, Selected: false"
        } ]
      } ]
    }
  }, {
    "fullUrl": "urn:uuid:00dd4e7e-4f2f-4f98-9942-8864f38772aa",
    "resource": {
      "resourceType": "QuestionnaireResponse",
      "id": "00dd4e7e-4f2f-4f98-9942-8864f38772aa",
      "identifier": {
        "value": "59263"
      },
      "questionnaire": {
        "reference": "urn:uuid:e0bfe315-569e-4ae1-8e00-9bb925a7d6e5"
      },
      "status": "completed",
      "subject": {
        "reference": "urn:uuid:71827745-4c67-4349-a01a-4428466817d2"
      },
      "context": {
        "reference": "urn:uuid:8d96f174-294f-47e4-a17a-cfcb9a3ccaff"
      },
      "authored": "2021-04-06T11:29:26+00:00",
      "item": [ {
        "linkId": "Tx221807",
        "text": "STRING:to'Immediatethreatstolife(SPA/OOHversion)'-'Majorbloodloss'stem",
        "answer": [ {
          "valueString": "\"present\""
        } ]
      } ]
    }
  }, {
    "fullUrl": "urn:uuid:e0bfe315-569e-4ae1-8e00-9bb925a7d6e5",
    "resource": {
      "resourceType": "Questionnaire",
      "id": "e0bfe315-569e-4ae1-8e00-9bb925a7d6e5",
      "identifier": [ {
        "value": "59263"
      } ],
      "version": "2021-04-06T11:29:26.887Z",
      "status": "active",
      "experimental": false,
      "date": "2021-04-06T11:29:26+00:00",
      "publisher": "User ID: 'HADFIELDR' User name: 'Ryan Hadfield' User skill set: 'T3'",
      "lastReviewDate": "2021-04-06",
      "contact": [ {
        "telecom": [ {
          "system": "phone",
          "value": "07777 888888"
        } ]
      } ],
      "subjectType": [ "Patient" ],
      "item": [ {
        "linkId": "59263",
        "prefix": "200",
        "text": "STRING:to'Immediatethreatstolife(SPA/OOHversion)'-'Majorbloodloss'stem",
        "type": "choice",
        "required": true,
        "repeats": false,
        "option": [ {
          "valueString": "\"present\", Selected: true"
        } ]
      } ]
    }
  }, {
    "fullUrl": "urn:uuid:cb795f95-f5af-4efd-9f6e-2a21b24f69d4",
    "resource": {
      "resourceType": "QuestionnaireResponse",
      "id": "cb795f95-f5af-4efd-9f6e-2a21b24f69d4",
      "identifier": {
        "value": "59263"
      },
      "questionnaire": {
        "reference": "urn:uuid:aa017025-1e09-496f-b7c0-80f90636b831"
      },
      "status": "completed",
      "subject": {
        "reference": "urn:uuid:71827745-4c67-4349-a01a-4428466817d2"
      },
      "context": {
        "reference": "urn:uuid:8d96f174-294f-47e4-a17a-cfcb9a3ccaff"
      },
      "authored": "2021-04-06T11:29:26+00:00"
    }
  }, {
    "fullUrl": "urn:uuid:aa017025-1e09-496f-b7c0-80f90636b831",
    "resource": {
      "resourceType": "Questionnaire",
      "id": "aa017025-1e09-496f-b7c0-80f90636b831",
      "identifier": [ {
        "value": "59263"
      } ],
      "version": "2021-04-06T11:29:26.887Z",
      "status": "active",
      "experimental": false,
      "date": "2021-04-06T11:29:26+00:00",
      "publisher": "User ID: 'HADFIELDR' User name: 'Ryan Hadfield' User skill set: 'T3'",
      "lastReviewDate": "2021-04-06",
      "contact": [ {
        "telecom": [ {
          "system": "phone",
          "value": "07777 888888"
        } ]
      } ],
      "subjectType": [ "Patient" ]
    }
  }, {
    "fullUrl": "urn:uuid:4603c9a7-a928-40e3-abf1-ec8fa4409a32",
    "resource": {
      "resourceType": "QuestionnaireResponse",
      "id": "4603c9a7-a928-40e3-abf1-ec8fa4409a32",
      "identifier": {
        "value": "59263"
      },
      "questionnaire": {
        "reference": "urn:uuid:75ff83fc-e52a-42b0-8441-7bbe94d075cf"
      },
      "status": "completed",
      "subject": {
        "reference": "urn:uuid:71827745-4c67-4349-a01a-4428466817d2"
      },
      "context": {
        "reference": "urn:uuid:8d96f174-294f-47e4-a17a-cfcb9a3ccaff"
      },
      "authored": "2021-04-06T11:29:26+00:00",
      "item": [ {
        "linkId": "Tx221799",
        "text": "STRING:injury,illnessorlabourestablishedinEntryFlow",
        "answer": [ {
          "valueString": "\"present\""
        } ]
      } ]
    }
  }, {
    "fullUrl": "urn:uuid:75ff83fc-e52a-42b0-8441-7bbe94d075cf",
    "resource": {
      "resourceType": "Questionnaire",
      "id": "75ff83fc-e52a-42b0-8441-7bbe94d075cf",
      "identifier": [ {
        "value": "59263"
      } ],
      "version": "2021-04-06T11:29:26.887Z",
      "status": "active",
      "experimental": false,
      "date": "2021-04-06T11:29:26+00:00",
      "publisher": "User ID: 'HADFIELDR' User name: 'Ryan Hadfield' User skill set: 'T3'",
      "lastReviewDate": "2021-04-06",
      "contact": [ {
        "telecom": [ {
          "system": "phone",
          "value": "07777 888888"
        } ]
      } ],
      "subjectType": [ "Patient" ],
      "item": [ {
        "linkId": "59263",
        "prefix": "0",
        "text": "STRING:injury,illnessorlabourestablishedinEntryFlow",
        "type": "choice",
        "required": true,
        "repeats": false,
        "option": [ {
          "valueString": "\"present\", Selected: true"
        } ]
      } ]
    }
  }, {
    "fullUrl": "urn:uuid:7a27e573-d8f2-457d-9cfb-247af79db423",
    "resource": {
      "resourceType": "QuestionnaireResponse",
      "id": "7a27e573-d8f2-457d-9cfb-247af79db423",
      "identifier": {
        "value": "59263"
      },
      "questionnaire": {
        "reference": "urn:uuid:56fc0c88-bc24-4e36-9eb2-43cc35b993d6"
      },
      "status": "completed",
      "subject": {
        "reference": "urn:uuid:71827745-4c67-4349-a01a-4428466817d2"
      },
      "context": {
        "reference": "urn:uuid:8d96f174-294f-47e4-a17a-cfcb9a3ccaff"
      },
      "authored": "2021-04-06T11:29:26+00:00",
      "item": [ {
        "linkId": "Tx224120",
        "text": "Have you been bleeding RED BLOOD very heavily IN THE LAST 2 HOURS?",
        "answer": [ {
          "valueString": "no"
        } ]
      } ]
    }
  }, {
    "fullUrl": "urn:uuid:56fc0c88-bc24-4e36-9eb2-43cc35b993d6",
    "resource": {
      "resourceType": "Questionnaire",
      "id": "56fc0c88-bc24-4e36-9eb2-43cc35b993d6",
      "identifier": [ {
        "value": "59263"
      } ],
      "version": "2021-04-06T11:29:26.887Z",
      "status": "active",
      "experimental": false,
      "date": "2021-04-06T11:29:26+00:00",
      "publisher": "User ID: 'HADFIELDR' User name: 'Ryan Hadfield' User skill set: 'T3'",
      "lastReviewDate": "2021-04-06",
      "contact": [ {
        "telecom": [ {
          "system": "phone",
          "value": "07777 888888"
        } ]
      } ],
      "subjectType": [ "Patient" ],
      "item": [ {
        "linkId": "59263",
        "prefix": "10100",
        "text": "Have you been bleeding RED BLOOD very heavily IN THE LAST 2 HOURS?",
        "type": "choice",
        "required": true,
        "repeats": false,
        "option": [ {
          "valueString": "yes, Selected: false"
        }, {
          "valueString": "not sure, Selected: false"
        }, {
          "valueString": "no, Selected: true"
        } ]
      } ]
    }
  }, {
    "fullUrl": "urn:uuid:b03d6a07-86c8-4ea1-868e-68ee51069d21",
    "resource": {
      "resourceType": "QuestionnaireResponse",
      "id": "b03d6a07-86c8-4ea1-868e-68ee51069d21",
      "identifier": {
        "value": "59263"
      },
      "questionnaire": {
        "reference": "urn:uuid:5dbf4f4e-de6d-4f8d-80f2-632ba305eb39"
      },
      "status": "completed",
      "subject": {
        "reference": "urn:uuid:71827745-4c67-4349-a01a-4428466817d2"
      },
      "context": {
        "reference": "urn:uuid:8d96f174-294f-47e4-a17a-cfcb9a3ccaff"
      },
      "authored": "2021-04-06T11:29:26+00:00",
      "item": [ {
        "linkId": "Tx221343",
        "text": "SocialConcernsExcluded",
        "answer": [ {
          "valueString": "*"
        } ]
      } ]
    }
  }, {
    "fullUrl": "urn:uuid:5dbf4f4e-de6d-4f8d-80f2-632ba305eb39",
    "resource": {
      "resourceType": "Questionnaire",
      "id": "5dbf4f4e-de6d-4f8d-80f2-632ba305eb39",
      "identifier": [ {
        "value": "59263"
      } ],
      "version": "2021-04-06T11:29:26.887Z",
      "status": "active",
      "experimental": false,
      "date": "2021-04-06T11:29:26+00:00",
      "publisher": "User ID: 'HADFIELDR' User name: 'Ryan Hadfield' User skill set: 'T3'",
      "lastReviewDate": "2021-04-06",
      "contact": [ {
        "telecom": [ {
          "system": "phone",
          "value": "07777 888888"
        } ]
      } ],
      "subjectType": [ "Patient" ],
      "item": [ {
        "linkId": "59263",
        "prefix": "1100",
        "text": "SocialConcernsExcluded",
        "type": "choice",
        "required": true,
        "repeats": false,
        "option": [ {
          "valueString": "==\"present\", Selected: false"
        }, {
          "valueString": "*, Selected: true"
        } ]
      } ]
    }
  }, {
    "fullUrl": "urn:uuid:65365683-2b71-4d42-b974-27a3e48cf84c",
    "resource": {
      "resourceType": "QuestionnaireResponse",
      "id": "65365683-2b71-4d42-b974-27a3e48cf84c",
      "identifier": {
        "value": "59263"
      },
      "questionnaire": {
        "reference": "urn:uuid:d136705f-14be-4e40-8c63-94e230f6fb70"
      },
      "status": "completed",
      "subject": {
        "reference": "urn:uuid:71827745-4c67-4349-a01a-4428466817d2"
      },
      "context": {
        "reference": "urn:uuid:8d96f174-294f-47e4-a17a-cfcb9a3ccaff"
      },
      "authored": "2021-04-06T11:29:26+00:00",
      "item": [ {
        "linkId": "Tx130011",
        "text": "What is the main problem?"
      } ]
    }
  }, {
    "fullUrl": "urn:uuid:d136705f-14be-4e40-8c63-94e230f6fb70",
    "resource": {
      "resourceType": "Questionnaire",
      "id": "d136705f-14be-4e40-8c63-94e230f6fb70",
      "identifier": [ {
        "value": "59263"
      } ],
      "version": "2021-04-06T11:29:26.887Z",
      "status": "active",
      "experimental": false,
      "date": "2021-04-06T11:29:26+00:00",
      "publisher": "User ID: 'HADFIELDR' User name: 'Ryan Hadfield' User skill set: 'T3'",
      "lastReviewDate": "2021-04-06",
      "contact": [ {
        "telecom": [ {
          "system": "phone",
          "value": "07777 888888"
        } ]
      } ],
      "subjectType": [ "Patient" ],
      "item": [ {
        "linkId": "59263",
        "prefix": "2300",
        "text": "What is the main problem?",
        "type": "choice",
        "required": true,
        "repeats": false,
        "option": [ {
          "valueString": "the individual has been told to follow a particular course of action (specify), Selected: false"
        }, {
          "valueString": "the individual is an identified frequent caller, Selected: false"
        }, {
          "valueString": "injury (specify), Selected: false"
        }, {
          "valueString": "illness or other health problem (specify), Selected: false"
        }, {
          "valueString": "child protection/vulnerable adult concern, Selected: false"
        }, {
          "valueString": "social or domestic emergency, Selected: false"
        }, {
          "valueString": "the environment potentially poses an immediate threat to life (specify), Selected: false"
        } ]
      } ]
    }
  }, {
    "fullUrl": "urn:uuid:25c93dac-4f5c-4497-9e27-a9303f26c7ae",
    "resource": {
      "resourceType": "QuestionnaireResponse",
      "id": "25c93dac-4f5c-4497-9e27-a9303f26c7ae",
      "identifier": {
        "value": "59263"
      },
      "questionnaire": {
        "reference": "urn:uuid:e642a761-66f9-4610-ae92-4345d4ae4e44"
      },
      "status": "completed",
      "subject": {
        "reference": "urn:uuid:71827745-4c67-4349-a01a-4428466817d2"
      },
      "context": {
        "reference": "urn:uuid:8d96f174-294f-47e4-a17a-cfcb9a3ccaff"
      },
      "authored": "2021-04-06T11:29:26+00:00",
      "item": [ {
        "linkId": "Tx220074",
        "text": "What is the reason for the contact?",
        "answer": [ {
          "valueString": "more"
        } ]
      } ]
    }
  }, {
    "fullUrl": "urn:uuid:e642a761-66f9-4610-ae92-4345d4ae4e44",
    "resource": {
      "resourceType": "Questionnaire",
      "id": "e642a761-66f9-4610-ae92-4345d4ae4e44",
      "identifier": [ {
        "value": "59263"
      } ],
      "version": "2021-04-06T11:29:26.887Z",
      "status": "active",
      "experimental": false,
      "date": "2021-04-06T11:29:26+00:00",
      "publisher": "User ID: 'HADFIELDR' User name: 'Ryan Hadfield' User skill set: 'T3'",
      "lastReviewDate": "2021-04-06",
      "contact": [ {
        "telecom": [ {
          "system": "phone",
          "value": "07777 888888"
        } ]
      } ],
      "subjectType": [ "Patient" ],
      "item": [ {
        "linkId": "59263",
        "prefix": "5",
        "text": "What is the reason for the contact?",
        "type": "choice",
        "required": true,
        "repeats": false,
        "option": [ {
          "valueString": "an injury or other health problem, Selected: false"
        }, {
          "valueString": "labour or childbirth, Selected: false"
        }, {
          "valueString": "a need to access another healthcare service, Selected: false"
        }, {
          "valueString": "a healthcare professional requesting contact with another clinician, Selected: false"
        }, {
          "valueString": "a report of results or tests, Selected: false"
        }, {
          "valueString": "a possible failure of contraception, Selected: false"
        }, {
          "valueString": "more, Selected: true"
        } ]
      } ]
    }
  }, {
    "fullUrl": "urn:uuid:7f53d7e0-315e-41b1-a2cd-0bc010a01cfc",
    "resource": {
      "resourceType": "QuestionnaireResponse",
      "id": "7f53d7e0-315e-41b1-a2cd-0bc010a01cfc",
      "identifier": {
        "value": "59263"
      },
      "questionnaire": {
        "reference": "urn:uuid:20a88426-7a69-41a1-b98c-71d852342911"
      },
      "status": "completed",
      "subject": {
        "reference": "urn:uuid:71827745-4c67-4349-a01a-4428466817d2"
      },
      "context": {
        "reference": "urn:uuid:8d96f174-294f-47e4-a17a-cfcb9a3ccaff"
      },
      "authored": "2021-04-06T11:29:26+00:00",
      "item": [ {
        "linkId": "Tx221793",
        "text": "STRING:to'Social&information'-further'Callreason'menu",
        "answer": [ {
          "valueString": "\"present\""
        } ]
      } ]
    }
  }, {
    "fullUrl": "urn:uuid:20a88426-7a69-41a1-b98c-71d852342911",
    "resource": {
      "resourceType": "Questionnaire",
      "id": "20a88426-7a69-41a1-b98c-71d852342911",
      "identifier": [ {
        "value": "59263"
      } ],
      "version": "2021-04-06T11:29:26.887Z",
      "status": "active",
      "experimental": false,
      "date": "2021-04-06T11:29:26+00:00",
      "publisher": "User ID: 'HADFIELDR' User name: 'Ryan Hadfield' User skill set: 'T3'",
      "lastReviewDate": "2021-04-06",
      "contact": [ {
        "telecom": [ {
          "system": "phone",
          "value": "07777 888888"
        } ]
      } ],
      "subjectType": [ "Patient" ],
      "item": [ {
        "linkId": "59263",
        "prefix": "600",
        "text": "STRING:to'Social&information'-further'Callreason'menu",
        "type": "choice",
        "required": true,
        "repeats": false,
        "option": [ {
          "valueString": "\"present\", Selected: true"
        } ]
      } ]
    }
  }, {
    "fullUrl": "urn:uuid:14ee51f2-1007-44d8-a769-afaf7e753a8f",
    "resource": {
      "resourceType": "QuestionnaireResponse",
      "id": "14ee51f2-1007-44d8-a769-afaf7e753a8f",
      "identifier": {
        "value": "59263"
      },
      "questionnaire": {
        "reference": "urn:uuid:dca6dff9-6b30-49a8-97cc-725b5b1bcbb6"
      },
      "status": "completed",
      "subject": {
        "reference": "urn:uuid:71827745-4c67-4349-a01a-4428466817d2"
      },
      "context": {
        "reference": "urn:uuid:8d96f174-294f-47e4-a17a-cfcb9a3ccaff"
      },
      "authored": "2021-04-06T11:29:26+00:00"
    }
  }, {
    "fullUrl": "urn:uuid:dca6dff9-6b30-49a8-97cc-725b5b1bcbb6",
    "resource": {
      "resourceType": "Questionnaire",
      "id": "dca6dff9-6b30-49a8-97cc-725b5b1bcbb6",
      "identifier": [ {
        "value": "59263"
      } ],
      "version": "2021-04-06T11:29:26.887Z",
      "status": "active",
      "experimental": false,
      "date": "2021-04-06T11:29:26+00:00",
      "publisher": "User ID: 'HADFIELDR' User name: 'Ryan Hadfield' User skill set: 'T3'",
      "lastReviewDate": "2021-04-06",
      "contact": [ {
        "telecom": [ {
          "system": "phone",
          "value": "07777 888888"
        } ]
      } ],
      "subjectType": [ "Patient" ]
    }
  }, {
    "fullUrl": "urn:uuid:b203cafe-627c-43d2-a051-3964bd90c2b1",
    "resource": {
      "resourceType": "QuestionnaireResponse",
      "id": "b203cafe-627c-43d2-a051-3964bd90c2b1",
      "identifier": {
        "value": "59263"
      },
      "questionnaire": {
        "reference": "urn:uuid:59ce5d29-cadc-4d80-a29a-c9f6ce5ce8c8"
      },
      "status": "completed",
      "subject": {
        "reference": "urn:uuid:71827745-4c67-4349-a01a-4428466817d2"
      },
      "context": {
        "reference": "urn:uuid:8d96f174-294f-47e4-a17a-cfcb9a3ccaff"
      },
      "authored": "2021-04-06T11:29:26+00:00",
      "item": [ {
        "linkId": "Tx221804",
        "text": "STRING:transfertofurthermenuquestionestablishedinEntryFlow",
        "answer": [ {
          "valueString": "\"present\""
        } ]
      } ]
    }
  }, {
    "fullUrl": "urn:uuid:59ce5d29-cadc-4d80-a29a-c9f6ce5ce8c8",
    "resource": {
      "resourceType": "Questionnaire",
      "id": "59ce5d29-cadc-4d80-a29a-c9f6ce5ce8c8",
      "identifier": [ {
        "value": "59263"
      } ],
      "version": "2021-04-06T11:29:26.887Z",
      "status": "active",
      "experimental": false,
      "date": "2021-04-06T11:29:26+00:00",
      "publisher": "User ID: 'HADFIELDR' User name: 'Ryan Hadfield' User skill set: 'T3'",
      "lastReviewDate": "2021-04-06",
      "contact": [ {
        "telecom": [ {
          "system": "phone",
          "value": "07777 888888"
        } ]
      } ],
      "subjectType": [ "Patient" ],
      "item": [ {
        "linkId": "59263",
        "prefix": "41",
        "text": "STRING:transfertofurthermenuquestionestablishedinEntryFlow",
        "type": "choice",
        "required": true,
        "repeats": false,
        "option": [ {
          "valueString": "\"present\", Selected: true"
        } ]
      } ]
    }
  }, {
    "fullUrl": "urn:uuid:e0788d89-c5bf-4c7f-ab33-72b13ab8506c",
    "resource": {
      "resourceType": "QuestionnaireResponse",
      "id": "e0788d89-c5bf-4c7f-ab33-72b13ab8506c",
      "identifier": {
        "value": "59263"
      },
      "questionnaire": {
        "reference": "urn:uuid:024fbb0f-d824-4268-b001-9c865a0441a7"
      },
      "status": "completed",
      "subject": {
        "reference": "urn:uuid:71827745-4c67-4349-a01a-4428466817d2"
      },
      "context": {
        "reference": "urn:uuid:8d96f174-294f-47e4-a17a-cfcb9a3ccaff"
      },
      "authored": "2021-04-06T11:29:26+00:00",
      "item": [ {
        "linkId": "Tx224998",
        "text": "SYSTEM_COVIDLEVEL2",
        "answer": [ {
          "valueString": "==\"covidlevel2\""
        } ]
      } ]
    }
  }, {
    "fullUrl": "urn:uuid:024fbb0f-d824-4268-b001-9c865a0441a7",
    "resource": {
      "resourceType": "Questionnaire",
      "id": "024fbb0f-d824-4268-b001-9c865a0441a7",
      "identifier": [ {
        "value": "59263"
      } ],
      "version": "2021-04-06T11:29:26.887Z",
      "status": "active",
      "experimental": false,
      "date": "2021-04-06T11:29:26+00:00",
      "publisher": "User ID: 'HADFIELDR' User name: 'Ryan Hadfield' User skill set: 'T3'",
      "lastReviewDate": "2021-04-06",
      "contact": [ {
        "telecom": [ {
          "system": "phone",
          "value": "07777 888888"
        } ]
      } ],
      "subjectType": [ "Patient" ],
      "item": [ {
        "linkId": "59263",
        "prefix": "5900",
        "text": "SYSTEM_COVIDLEVEL2",
        "type": "choice",
        "required": true,
        "repeats": false,
        "option": [ {
          "valueString": "==\"covidlevel2\", Selected: true"
        }, {
          "valueString": "*, Selected: false"
        } ]
      } ]
    }
  }, {
    "fullUrl": "urn:uuid:6bf01446-7ad3-4428-bf33-3a1ba6ac9fcf",
    "resource": {
      "resourceType": "QuestionnaireResponse",
      "id": "6bf01446-7ad3-4428-bf33-3a1ba6ac9fcf",
      "identifier": {
        "value": "59263"
      },
      "questionnaire": {
        "reference": "urn:uuid:6d87ea2a-f8fa-452f-9d64-1134bd86ad37"
      },
      "status": "completed",
      "subject": {
        "reference": "urn:uuid:71827745-4c67-4349-a01a-4428466817d2"
      },
      "context": {
        "reference": "urn:uuid:8d96f174-294f-47e4-a17a-cfcb9a3ccaff"
      },
      "authored": "2021-04-06T11:29:26+00:00",
      "item": [ {
        "linkId": "Tx225069",
        "text": "What is the reason for the contact?",
        "answer": [ {
          "valueString": "a prescription request"
        } ]
      } ]
    }
  }, {
    "fullUrl": "urn:uuid:6d87ea2a-f8fa-452f-9d64-1134bd86ad37",
    "resource": {
      "resourceType": "Questionnaire",
      "id": "6d87ea2a-f8fa-452f-9d64-1134bd86ad37",
      "identifier": [ {
        "value": "59263"
      } ],
      "version": "2021-04-06T11:29:26.887Z",
      "status": "active",
      "experimental": false,
      "date": "2021-04-06T11:29:26+00:00",
      "publisher": "User ID: 'HADFIELDR' User name: 'Ryan Hadfield' User skill set: 'T3'",
      "lastReviewDate": "2021-04-06",
      "contact": [ {
        "telecom": [ {
          "system": "phone",
          "value": "07777 888888"
        } ]
      } ],
      "subjectType": [ "Patient" ],
      "item": [ {
        "linkId": "59263",
        "prefix": "6000",
        "text": "What is the reason for the contact?",
        "type": "choice",
        "required": true,
        "repeats": false,
        "option": [ {
          "valueString": "a child protection/vulnerable adult concern (specify), Selected: false"
        }, {
          "valueString": "a social or domestic emergency, Selected: false"
        }, {
          "valueString": "a prescription request, Selected: true"
        }, {
          "valueString": "an appointment request, Selected: false"
        }, {
          "valueString": "a request for health or medication information, Selected: false"
        }, {
          "valueString": "public health alert information, Selected: false"
        } ]
      } ]
    }
  }, {
    "fullUrl": "urn:uuid:5f0dc12d-7faa-4939-a6d7-c15df2084efa",
    "resource": {
      "resourceType": "QuestionnaireResponse",
      "id": "5f0dc12d-7faa-4939-a6d7-c15df2084efa",
      "identifier": {
        "value": "59263"
      },
      "questionnaire": {
        "reference": "urn:uuid:4c7c25a6-d50f-4e4e-a80d-792873fbb05c"
      },
      "status": "completed",
      "subject": {
        "reference": "urn:uuid:71827745-4c67-4349-a01a-4428466817d2"
      },
      "context": {
        "reference": "urn:uuid:8d96f174-294f-47e4-a17a-cfcb9a3ccaff"
      },
      "authored": "2021-04-06T11:29:26+00:00",
      "item": [ {
        "linkId": "Tx220957",
        "text": "Is this contact about a new or worsening illness?",
        "answer": [ {
          "valueString": "no"
        } ]
      } ]
    }
  }, {
    "fullUrl": "urn:uuid:4c7c25a6-d50f-4e4e-a80d-792873fbb05c",
    "resource": {
      "resourceType": "Questionnaire",
      "id": "4c7c25a6-d50f-4e4e-a80d-792873fbb05c",
      "identifier": [ {
        "value": "59263"
      } ],
      "version": "2021-04-06T11:29:26.887Z",
      "status": "active",
      "experimental": false,
      "date": "2021-04-06T11:29:26+00:00",
      "publisher": "User ID: 'HADFIELDR' User name: 'Ryan Hadfield' User skill set: 'T3'",
      "lastReviewDate": "2021-04-06",
      "contact": [ {
        "telecom": [ {
          "system": "phone",
          "value": "07777 888888"
        } ]
      } ],
      "subjectType": [ "Patient" ],
      "item": [ {
        "linkId": "59263",
        "prefix": "1400",
        "text": "Is this contact about a new or worsening illness?",
        "type": "choice",
        "required": true,
        "repeats": false,
        "option": [ {
          "valueString": "yes, Selected: false"
        }, {
          "valueString": "not sure, Selected: false"
        }, {
          "valueString": "no, Selected: true"
        } ]
      } ]
    }
  }, {
    "fullUrl": "urn:uuid:97883d28-ffca-49ab-afb7-8bfdf0b66d5b",
    "resource": {
      "resourceType": "QuestionnaireResponse",
      "id": "97883d28-ffca-49ab-afb7-8bfdf0b66d5b",
      "identifier": {
        "value": "59263"
      },
      "questionnaire": {
        "reference": "urn:uuid:049c9ec0-5d4f-4f53-b00d-f9472ee6604b"
      },
      "status": "completed",
      "subject": {
        "reference": "urn:uuid:71827745-4c67-4349-a01a-4428466817d2"
      },
      "context": {
        "reference": "urn:uuid:8d96f174-294f-47e4-a17a-cfcb9a3ccaff"
      },
      "authored": "2021-04-06T11:29:26+00:00",
      "item": [ {
        "linkId": "Tx221352",
        "text": "Have you got enough medication to last until the surgery opens?",
        "answer": [ {
          "valueString": "no"
        } ]
      } ]
    }
  }, {
    "fullUrl": "urn:uuid:049c9ec0-5d4f-4f53-b00d-f9472ee6604b",
    "resource": {
      "resourceType": "Questionnaire",
      "id": "049c9ec0-5d4f-4f53-b00d-f9472ee6604b",
      "identifier": [ {
        "value": "59263"
      } ],
      "version": "2021-04-06T11:29:26.887Z",
      "status": "active",
      "experimental": false,
      "date": "2021-04-06T11:29:26+00:00",
      "publisher": "User ID: 'HADFIELDR' User name: 'Ryan Hadfield' User skill set: 'T3'",
      "lastReviewDate": "2021-04-06",
      "contact": [ {
        "telecom": [ {
          "system": "phone",
          "value": "07777 888888"
        } ]
      } ],
      "subjectType": [ "Patient" ],
      "item": [ {
        "linkId": "59263",
        "prefix": "1500",
        "text": "Have you got enough medication to last until the surgery opens?",
        "type": "choice",
        "required": true,
        "repeats": false,
        "option": [ {
          "valueString": "yes, Selected: false"
        }, {
          "valueString": "not sure, Selected: false"
        }, {
          "valueString": "no, Selected: true"
        } ]
      } ]
    }
  }, {
    "fullUrl": "urn:uuid:cbe8b4ac-f87b-41d8-9f7f-33f202216cb9",
    "resource": {
      "resourceType": "QuestionnaireResponse",
      "id": "cbe8b4ac-f87b-41d8-9f7f-33f202216cb9",
      "identifier": {
        "value": "59263"
      },
      "questionnaire": {
        "reference": "urn:uuid:bbbf2401-03d1-48cd-822b-9089a222c7aa"
      },
      "status": "completed",
      "subject": {
        "reference": "urn:uuid:71827745-4c67-4349-a01a-4428466817d2"
      },
      "context": {
        "reference": "urn:uuid:8d96f174-294f-47e4-a17a-cfcb9a3ccaff"
      },
      "authored": "2021-04-06T11:29:26+00:00"
    }
  }, {
    "fullUrl": "urn:uuid:bbbf2401-03d1-48cd-822b-9089a222c7aa",
    "resource": {
      "resourceType": "Questionnaire",
      "id": "bbbf2401-03d1-48cd-822b-9089a222c7aa",
      "identifier": [ {
        "value": "59263"
      } ],
      "version": "2021-04-06T11:29:26.887Z",
      "status": "active",
      "experimental": false,
      "date": "2021-04-06T11:29:26+00:00",
      "publisher": "User ID: 'HADFIELDR' User name: 'Ryan Hadfield' User skill set: 'T3'",
      "lastReviewDate": "2021-04-06",
      "contact": [ {
        "telecom": [ {
          "system": "phone",
          "value": "07777 888888"
        } ]
      } ],
      "subjectType": [ "Patient" ]
    }
  }, {
    "fullUrl": "urn:uuid:e95025a1-bf02-4d5a-955f-bdee10b4a12c",
    "resource": {
      "resourceType": "QuestionnaireResponse",
      "id": "e95025a1-bf02-4d5a-955f-bdee10b4a12c",
      "identifier": {
        "value": "59263"
      },
      "questionnaire": {
        "reference": "urn:uuid:837d53ff-ed52-48dc-a6f6-bd77349b9a12"
      },
      "status": "completed",
      "subject": {
        "reference": "urn:uuid:71827745-4c67-4349-a01a-4428466817d2"
      },
      "context": {
        "reference": "urn:uuid:8d96f174-294f-47e4-a17a-cfcb9a3ccaff"
      },
      "authored": "2021-04-06T11:29:26+00:00",
      "item": [ {
        "linkId": "Tx224231",
        "text": "FROM WHAT YOU HAVE HEARD IS A CONSULTATION WITH A PRESCRIBER NEEDED?",
        "answer": [ {
          "valueString": "no"
        } ]
      } ]
    }
  }, {
    "fullUrl": "urn:uuid:837d53ff-ed52-48dc-a6f6-bd77349b9a12",
    "resource": {
      "resourceType": "Questionnaire",
      "id": "837d53ff-ed52-48dc-a6f6-bd77349b9a12",
      "identifier": [ {
        "value": "59263"
      } ],
      "version": "2021-04-06T11:29:26.887Z",
      "status": "active",
      "experimental": false,
      "date": "2021-04-06T11:29:26+00:00",
      "publisher": "User ID: 'HADFIELDR' User name: 'Ryan Hadfield' User skill set: 'T3'",
      "lastReviewDate": "2021-04-06",
      "contact": [ {
        "telecom": [ {
          "system": "phone",
          "value": "07777 888888"
        } ]
      } ],
      "subjectType": [ "Patient" ],
      "item": [ {
        "linkId": "59263",
        "prefix": "0",
        "text": "FROM WHAT YOU HAVE HEARD IS A CONSULTATION WITH A PRESCRIBER NEEDED?",
        "type": "choice",
        "required": true,
        "repeats": false,
        "option": [ {
          "valueString": "yes, Selected: false"
        }, {
          "valueString": "not sure, Selected: false"
        }, {
          "valueString": "no, Selected: true"
        } ]
      } ]
    }
  }, {
    "fullUrl": "urn:uuid:375fedce-7e68-4725-b103-86eccbd45a6c",
    "resource": {
      "resourceType": "QuestionnaireResponse",
      "id": "375fedce-7e68-4725-b103-86eccbd45a6c",
      "identifier": {
        "value": "59263"
      },
      "questionnaire": {
        "reference": "urn:uuid:040a76cd-00de-469b-8f9b-fb4a30a614b9"
      },
      "status": "completed",
      "subject": {
        "reference": "urn:uuid:71827745-4c67-4349-a01a-4428466817d2"
      },
      "context": {
        "reference": "urn:uuid:8d96f174-294f-47e4-a17a-cfcb9a3ccaff"
      },
      "authored": "2021-04-06T11:29:26+00:00",
      "item": [ {
        "linkId": "Tx222687",
        "text": "Have you got any of the medication available at the moment?",
        "answer": [ {
          "valueString": "no"
        } ]
      } ]
    }
  }, {
    "fullUrl": "urn:uuid:040a76cd-00de-469b-8f9b-fb4a30a614b9",
    "resource": {
      "resourceType": "Questionnaire",
      "id": "040a76cd-00de-469b-8f9b-fb4a30a614b9",
      "identifier": [ {
        "value": "59263"
      } ],
      "version": "2021-04-06T11:29:26.887Z",
      "status": "active",
      "experimental": false,
      "date": "2021-04-06T11:29:26+00:00",
      "publisher": "User ID: 'HADFIELDR' User name: 'Ryan Hadfield' User skill set: 'T3'",
      "lastReviewDate": "2021-04-06",
      "contact": [ {
        "telecom": [ {
          "system": "phone",
          "value": "07777 888888"
        } ]
      } ],
      "subjectType": [ "Patient" ],
      "item": [ {
        "linkId": "59263",
        "prefix": "200",
        "text": "Have you got any of the medication available at the moment?",
        "type": "choice",
        "required": true,
        "repeats": false,
        "option": [ {
          "valueString": "yes, Selected: false"
        }, {
          "valueString": "not sure, Selected: false"
        }, {
          "valueString": "no, Selected: true"
        } ]
      } ]
    }
  }, {
    "fullUrl": "urn:uuid:3293027a-e691-428c-9682-24327b6add18",
    "resource": {
      "resourceType": "QuestionnaireResponse",
      "id": "3293027a-e691-428c-9682-24327b6add18",
      "identifier": {
        "value": "59263"
      },
      "questionnaire": {
        "reference": "urn:uuid:c3451c29-51fd-4947-8d43-2154e810c1d6"
      },
      "status": "completed",
      "subject": {
        "reference": "urn:uuid:71827745-4c67-4349-a01a-4428466817d2"
      },
      "context": {
        "reference": "urn:uuid:8d96f174-294f-47e4-a17a-cfcb9a3ccaff"
      },
      "authored": "2021-04-06T11:29:26+00:00",
      "item": [ {
        "linkId": "Tx221367",
        "text": "When is the next dose due?",
        "answer": [ {
          "valueString": "within the next 12 hours"
        } ]
      } ]
    }
  }, {
    "fullUrl": "urn:uuid:c3451c29-51fd-4947-8d43-2154e810c1d6",
    "resource": {
      "resourceType": "Questionnaire",
      "id": "c3451c29-51fd-4947-8d43-2154e810c1d6",
      "identifier": [ {
        "value": "59263"
      } ],
      "version": "2021-04-06T11:29:26.887Z",
      "status": "active",
      "experimental": false,
      "date": "2021-04-06T11:29:26+00:00",
      "publisher": "User ID: 'HADFIELDR' User name: 'Ryan Hadfield' User skill set: 'T3'",
      "lastReviewDate": "2021-04-06",
      "contact": [ {
        "telecom": [ {
          "system": "phone",
          "value": "07777 888888"
        } ]
      } ],
      "subjectType": [ "Patient" ],
      "item": [ {
        "linkId": "59263",
        "prefix": "100",
        "text": "When is the next dose due?",
        "type": "choice",
        "required": true,
        "repeats": false,
        "option": [ {
          "valueString": "within the next 2 hours, Selected: false"
        }, {
          "valueString": "within the next 6 hours, Selected: false"
        }, {
          "valueString": "within the next 12 hours, Selected: true"
        }, {
          "valueString": "over 12 hours time, Selected: false"
        }, {
          "valueString": "not sure, Selected: false"
        } ]
      } ]
    }
  }, {
    "fullUrl": "urn:uuid:bd4ee7b0-731b-408e-8c3e-73190ced0d0e",
    "resource": {
      "resourceType": "QuestionnaireResponse",
      "id": "bd4ee7b0-731b-408e-8c3e-73190ced0d0e",
      "identifier": {
        "value": "59263"
      },
      "questionnaire": {
        "reference": "urn:uuid:d0ad9d1f-959d-4b20-bfe5-c55902ed516c"
      },
      "status": "completed",
      "subject": {
        "reference": "urn:uuid:71827745-4c67-4349-a01a-4428466817d2"
      },
      "context": {
        "reference": "urn:uuid:8d96f174-294f-47e4-a17a-cfcb9a3ccaff"
      },
      "authored": "2021-04-06T11:29:26+00:00",
      "item": [ {
        "linkId": "Tx223441",
        "text": "STRING:SDPCRepeatPrescription",
        "answer": [ {
          "valueString": "\"PC repeat prescription\""
        } ]
      } ]
    }
  }, {
    "fullUrl": "urn:uuid:d0ad9d1f-959d-4b20-bfe5-c55902ed516c",
    "resource": {
      "resourceType": "Questionnaire",
      "id": "d0ad9d1f-959d-4b20-bfe5-c55902ed516c",
      "identifier": [ {
        "value": "59263"
      } ],
      "version": "2021-04-06T11:29:26.887Z",
      "status": "active",
      "experimental": false,
      "date": "2021-04-06T11:29:26+00:00",
      "publisher": "User ID: 'HADFIELDR' User name: 'Ryan Hadfield' User skill set: 'T3'",
      "lastReviewDate": "2021-04-06",
      "contact": [ {
        "telecom": [ {
          "system": "phone",
          "value": "07777 888888"
        } ]
      } ],
      "subjectType": [ "Patient" ],
      "item": [ {
        "linkId": "59263",
        "prefix": "1200",
        "text": "STRING:SDPCRepeatPrescription",
        "type": "choice",
        "required": true,
        "repeats": false,
        "option": [ {
          "valueString": "\"PC repeat prescription\", Selected: true"
        } ]
      } ]
    }
  }, {
    "fullUrl": "urn:uuid:6fb6e139-8a71-4b75-a6c1-f0e8311c87f9",
    "resource": {
      "resourceType": "QuestionnaireResponse",
      "id": "6fb6e139-8a71-4b75-a6c1-f0e8311c87f9",
      "identifier": {
        "value": "59263"
      },
      "questionnaire": {
        "reference": "urn:uuid:8701a665-f6ec-47d8-9d32-8031c1e568a1"
      },
      "status": "completed",
      "subject": {
        "reference": "urn:uuid:71827745-4c67-4349-a01a-4428466817d2"
      },
      "context": {
        "reference": "urn:uuid:8d96f174-294f-47e4-a17a-cfcb9a3ccaff"
      },
      "authored": "2021-04-06T11:29:26+00:00"
    }
  }, {
    "fullUrl": "urn:uuid:8701a665-f6ec-47d8-9d32-8031c1e568a1",
    "resource": {
      "resourceType": "Questionnaire",
      "id": "8701a665-f6ec-47d8-9d32-8031c1e568a1",
      "identifier": [ {
        "value": "59263"
      } ],
      "version": "2021-04-06T11:29:26.887Z",
      "status": "active",
      "experimental": false,
      "date": "2021-04-06T11:29:26+00:00",
      "publisher": "User ID: 'HADFIELDR' User name: 'Ryan Hadfield' User skill set: 'T3'",
      "lastReviewDate": "2021-04-06",
      "contact": [ {
        "telecom": [ {
          "system": "phone",
          "value": "07777 888888"
        } ]
      } ],
      "subjectType": [ "Patient" ]
    }
  }, {
    "fullUrl": "urn:uuid:8cc5778e-2fa2-4020-aca0-c3ab29658e3b",
    "resource": {
      "resourceType": "QuestionnaireResponse",
      "id": "8cc5778e-2fa2-4020-aca0-c3ab29658e3b",
      "identifier": {
        "value": "59263"
      },
      "questionnaire": {
        "reference": "urn:uuid:46ffe4b8-9c34-48e8-afae-14357080f341"
      },
      "status": "completed",
      "subject": {
        "reference": "urn:uuid:71827745-4c67-4349-a01a-4428466817d2"
      },
      "context": {
        "reference": "urn:uuid:8d96f174-294f-47e4-a17a-cfcb9a3ccaff"
      },
      "authored": "2021-04-06T11:29:26+00:00",
      "item": [ {
        "linkId": "Tx220074",
        "text": "What is the reason for the contact?",
        "answer": [ {
          "valueString": "an injury or other health problem"
        } ]
      } ]
    }
  }, {
    "fullUrl": "urn:uuid:46ffe4b8-9c34-48e8-afae-14357080f341",
    "resource": {
      "resourceType": "Questionnaire",
      "id": "46ffe4b8-9c34-48e8-afae-14357080f341",
      "identifier": [ {
        "value": "59263"
      } ],
      "version": "2021-04-06T11:29:26.887Z",
      "status": "active",
      "experimental": false,
      "date": "2021-04-06T11:29:26+00:00",
      "publisher": "User ID: 'HADFIELDR' User name: 'Ryan Hadfield' User skill set: 'T3'",
      "lastReviewDate": "2021-04-06",
      "contact": [ {
        "telecom": [ {
          "system": "phone",
          "value": "07777 888888"
        } ]
      } ],
      "subjectType": [ "Patient" ],
      "item": [ {
        "linkId": "59263",
        "prefix": "5",
        "text": "What is the reason for the contact?",
        "type": "choice",
        "required": true,
        "repeats": false,
        "option": [ {
          "valueString": "an injury or other health problem, Selected: true"
        }, {
          "valueString": "labour or childbirth, Selected: false"
        }, {
          "valueString": "a need to access another healthcare service, Selected: false"
        }, {
          "valueString": "a healthcare professional requesting contact with another clinician, Selected: false"
        }, {
          "valueString": "a report of results or tests, Selected: false"
        }, {
          "valueString": "a possible failure of contraception, Selected: false"
        }, {
          "valueString": "more, Selected: false"
        } ]
      } ]
    }
  }, {
    "fullUrl": "urn:uuid:d1733f5c-2f03-431c-9f0f-4ca6eea4d3e4",
    "resource": {
      "resourceType": "QuestionnaireResponse",
      "id": "d1733f5c-2f03-431c-9f0f-4ca6eea4d3e4",
      "identifier": {
        "value": "59263"
      },
      "questionnaire": {
        "reference": "urn:uuid:99e51564-004c-40ac-9aa9-f8610ee96587"
      },
      "status": "completed",
      "subject": {
        "reference": "urn:uuid:71827745-4c67-4349-a01a-4428466817d2"
      },
      "context": {
        "reference": "urn:uuid:8d96f174-294f-47e4-a17a-cfcb9a3ccaff"
      },
      "authored": "2021-04-06T11:29:26+00:00",
      "item": [ {
        "linkId": "Tx221807",
        "text": "STRING:to'Immediatethreatstolife(SPA/OOHversion)'-'Majorbloodloss'stem",
        "answer": [ {
          "valueString": "\"present\""
        } ]
      } ]
    }
  }, {
    "fullUrl": "urn:uuid:99e51564-004c-40ac-9aa9-f8610ee96587",
    "resource": {
      "resourceType": "Questionnaire",
      "id": "99e51564-004c-40ac-9aa9-f8610ee96587",
      "identifier": [ {
        "value": "59263"
      } ],
      "version": "2021-04-06T11:29:26.887Z",
      "status": "active",
      "experimental": false,
      "date": "2021-04-06T11:29:26+00:00",
      "publisher": "User ID: 'HADFIELDR' User name: 'Ryan Hadfield' User skill set: 'T3'",
      "lastReviewDate": "2021-04-06",
      "contact": [ {
        "telecom": [ {
          "system": "phone",
          "value": "07777 888888"
        } ]
      } ],
      "subjectType": [ "Patient" ],
      "item": [ {
        "linkId": "59263",
        "prefix": "200",
        "text": "STRING:to'Immediatethreatstolife(SPA/OOHversion)'-'Majorbloodloss'stem",
        "type": "choice",
        "required": true,
        "repeats": false,
        "option": [ {
          "valueString": "\"present\", Selected: true"
        } ]
      } ]
    }
  }, {
    "fullUrl": "urn:uuid:d7e686b2-7038-460d-81d0-32df71b7fb13",
    "resource": {
      "resourceType": "QuestionnaireResponse",
      "id": "d7e686b2-7038-460d-81d0-32df71b7fb13",
      "identifier": {
        "value": "59263"
      },
      "questionnaire": {
        "reference": "urn:uuid:126239c6-7695-47ff-89a3-ddff660ca620"
      },
      "status": "completed",
      "subject": {
        "reference": "urn:uuid:71827745-4c67-4349-a01a-4428466817d2"
      },
      "context": {
        "reference": "urn:uuid:8d96f174-294f-47e4-a17a-cfcb9a3ccaff"
      },
      "authored": "2021-04-06T11:29:26+00:00"
    }
  }, {
    "fullUrl": "urn:uuid:126239c6-7695-47ff-89a3-ddff660ca620",
    "resource": {
      "resourceType": "Questionnaire",
      "id": "126239c6-7695-47ff-89a3-ddff660ca620",
      "identifier": [ {
        "value": "59263"
      } ],
      "version": "2021-04-06T11:29:26.887Z",
      "status": "active",
      "experimental": false,
      "date": "2021-04-06T11:29:26+00:00",
      "publisher": "User ID: 'HADFIELDR' User name: 'Ryan Hadfield' User skill set: 'T3'",
      "lastReviewDate": "2021-04-06",
      "contact": [ {
        "telecom": [ {
          "system": "phone",
          "value": "07777 888888"
        } ]
      } ],
      "subjectType": [ "Patient" ]
    }
  }, {
    "fullUrl": "urn:uuid:a16ab0e2-9851-49b9-af66-b9784402c8c1",
    "resource": {
      "resourceType": "QuestionnaireResponse",
      "id": "a16ab0e2-9851-49b9-af66-b9784402c8c1",
      "identifier": {
        "value": "59263"
      },
      "questionnaire": {
        "reference": "urn:uuid:1593ef94-6e4c-40cc-a18b-78403a899ee8"
      },
      "status": "completed",
      "subject": {
        "reference": "urn:uuid:71827745-4c67-4349-a01a-4428466817d2"
      },
      "context": {
        "reference": "urn:uuid:8d96f174-294f-47e4-a17a-cfcb9a3ccaff"
      },
      "authored": "2021-04-06T11:29:26+00:00",
      "item": [ {
        "linkId": "Tx221799",
        "text": "STRING:injury,illnessorlabourestablishedinEntryFlow",
        "answer": [ {
          "valueString": "\"present\""
        } ]
      } ]
    }
  }, {
    "fullUrl": "urn:uuid:1593ef94-6e4c-40cc-a18b-78403a899ee8",
    "resource": {
      "resourceType": "Questionnaire",
      "id": "1593ef94-6e4c-40cc-a18b-78403a899ee8",
      "identifier": [ {
        "value": "59263"
      } ],
      "version": "2021-04-06T11:29:26.887Z",
      "status": "active",
      "experimental": false,
      "date": "2021-04-06T11:29:26+00:00",
      "publisher": "User ID: 'HADFIELDR' User name: 'Ryan Hadfield' User skill set: 'T3'",
      "lastReviewDate": "2021-04-06",
      "contact": [ {
        "telecom": [ {
          "system": "phone",
          "value": "07777 888888"
        } ]
      } ],
      "subjectType": [ "Patient" ],
      "item": [ {
        "linkId": "59263",
        "prefix": "0",
        "text": "STRING:injury,illnessorlabourestablishedinEntryFlow",
        "type": "choice",
        "required": true,
        "repeats": false,
        "option": [ {
          "valueString": "\"present\", Selected: true"
        } ]
      } ]
    }
  }, {
    "fullUrl": "urn:uuid:3bc434ae-1509-4e15-b6b8-91a1a3ca1eb3",
    "resource": {
      "resourceType": "QuestionnaireResponse",
      "id": "3bc434ae-1509-4e15-b6b8-91a1a3ca1eb3",
      "identifier": {
        "value": "59263"
      },
      "questionnaire": {
        "reference": "urn:uuid:0301ae5c-3cdf-460f-8c81-26c20fa4af07"
      },
      "status": "completed",
      "subject": {
        "reference": "urn:uuid:71827745-4c67-4349-a01a-4428466817d2"
      },
      "context": {
        "reference": "urn:uuid:8d96f174-294f-47e4-a17a-cfcb9a3ccaff"
      },
      "authored": "2021-04-06T11:29:26+00:00",
      "item": [ {
        "linkId": "Tx224120",
        "text": "Have you been bleeding RED BLOOD very heavily IN THE LAST 2 HOURS?",
        "answer": [ {
          "valueString": "no"
        } ]
      } ]
    }
  }, {
    "fullUrl": "urn:uuid:0301ae5c-3cdf-460f-8c81-26c20fa4af07",
    "resource": {
      "resourceType": "Questionnaire",
      "id": "0301ae5c-3cdf-460f-8c81-26c20fa4af07",
      "identifier": [ {
        "value": "59263"
      } ],
      "version": "2021-04-06T11:29:26.887Z",
      "status": "active",
      "experimental": false,
      "date": "2021-04-06T11:29:26+00:00",
      "publisher": "User ID: 'HADFIELDR' User name: 'Ryan Hadfield' User skill set: 'T3'",
      "lastReviewDate": "2021-04-06",
      "contact": [ {
        "telecom": [ {
          "system": "phone",
          "value": "07777 888888"
        } ]
      } ],
      "subjectType": [ "Patient" ],
      "item": [ {
        "linkId": "59263",
        "prefix": "10100",
        "text": "Have you been bleeding RED BLOOD very heavily IN THE LAST 2 HOURS?",
        "type": "choice",
        "required": true,
        "repeats": false,
        "option": [ {
          "valueString": "yes, Selected: false"
        }, {
          "valueString": "not sure, Selected: false"
        }, {
          "valueString": "no, Selected: true"
        } ]
      } ]
    }
  }, {
    "fullUrl": "urn:uuid:5663c0bb-f68d-42a8-b59c-37e13d713ac2",
    "resource": {
      "resourceType": "QuestionnaireResponse",
      "id": "5663c0bb-f68d-42a8-b59c-37e13d713ac2",
      "identifier": {
        "value": "59263"
      },
      "questionnaire": {
        "reference": "urn:uuid:8b0282a5-1f7c-4652-bb1e-2a41e2e141e1"
      },
      "status": "completed",
      "subject": {
        "reference": "urn:uuid:71827745-4c67-4349-a01a-4428466817d2"
      },
      "context": {
        "reference": "urn:uuid:8d96f174-294f-47e4-a17a-cfcb9a3ccaff"
      },
      "authored": "2021-04-06T11:29:26+00:00",
      "item": [ {
        "linkId": "Tx221343",
        "text": "SocialConcernsExcluded",
        "answer": [ {
          "valueString": "*"
        } ]
      } ]
    }
  }, {
    "fullUrl": "urn:uuid:8b0282a5-1f7c-4652-bb1e-2a41e2e141e1",
    "resource": {
      "resourceType": "Questionnaire",
      "id": "8b0282a5-1f7c-4652-bb1e-2a41e2e141e1",
      "identifier": [ {
        "value": "59263"
      } ],
      "version": "2021-04-06T11:29:26.887Z",
      "status": "active",
      "experimental": false,
      "date": "2021-04-06T11:29:26+00:00",
      "publisher": "User ID: 'HADFIELDR' User name: 'Ryan Hadfield' User skill set: 'T3'",
      "lastReviewDate": "2021-04-06",
      "contact": [ {
        "telecom": [ {
          "system": "phone",
          "value": "07777 888888"
        } ]
      } ],
      "subjectType": [ "Patient" ],
      "item": [ {
        "linkId": "59263",
        "prefix": "1100",
        "text": "SocialConcernsExcluded",
        "type": "choice",
        "required": true,
        "repeats": false,
        "option": [ {
          "valueString": "==\"present\", Selected: false"
        }, {
          "valueString": "*, Selected: true"
        } ]
      } ]
    }
  }, {
    "fullUrl": "urn:uuid:1dc078fa-172e-4048-8fad-d371b594bbe3",
    "resource": {
      "resourceType": "QuestionnaireResponse",
      "id": "1dc078fa-172e-4048-8fad-d371b594bbe3",
      "identifier": {
        "value": "59263"
      },
      "questionnaire": {
        "reference": "urn:uuid:429ccdfa-1f87-4a77-985c-e6b570f17fcf"
      },
      "status": "completed",
      "subject": {
        "reference": "urn:uuid:71827745-4c67-4349-a01a-4428466817d2"
      },
      "context": {
        "reference": "urn:uuid:8d96f174-294f-47e4-a17a-cfcb9a3ccaff"
      },
      "authored": "2021-04-06T11:29:26+00:00",
      "item": [ {
        "linkId": "Tx130011",
        "text": "What is the main problem?"
      } ]
    }
  }, {
    "fullUrl": "urn:uuid:429ccdfa-1f87-4a77-985c-e6b570f17fcf",
    "resource": {
      "resourceType": "Questionnaire",
      "id": "429ccdfa-1f87-4a77-985c-e6b570f17fcf",
      "identifier": [ {
        "value": "59263"
      } ],
      "version": "2021-04-06T11:29:26.887Z",
      "status": "active",
      "experimental": false,
      "date": "2021-04-06T11:29:26+00:00",
      "publisher": "User ID: 'HADFIELDR' User name: 'Ryan Hadfield' User skill set: 'T3'",
      "lastReviewDate": "2021-04-06",
      "contact": [ {
        "telecom": [ {
          "system": "phone",
          "value": "07777 888888"
        } ]
      } ],
      "subjectType": [ "Patient" ],
      "item": [ {
        "linkId": "59263",
        "prefix": "2300",
        "text": "What is the main problem?",
        "type": "choice",
        "required": true,
        "repeats": false,
        "option": [ {
          "valueString": "the individual has been told to follow a particular course of action (specify), Selected: false"
        }, {
          "valueString": "the individual is an identified frequent caller, Selected: false"
        }, {
          "valueString": "injury (specify), Selected: false"
        }, {
          "valueString": "illness or other health problem (specify), Selected: false"
        }, {
          "valueString": "child protection/vulnerable adult concern, Selected: false"
        }, {
          "valueString": "social or domestic emergency, Selected: false"
        }, {
          "valueString": "the environment potentially poses an immediate threat to life (specify), Selected: false"
        } ]
      } ]
    }
  }, {
    "fullUrl": "urn:uuid:425484af-e186-44bc-b912-417d030b9a30",
    "resource": {
      "resourceType": "QuestionnaireResponse",
      "id": "425484af-e186-44bc-b912-417d030b9a30",
      "identifier": {
        "value": "59263"
      },
      "questionnaire": {
        "reference": "urn:uuid:de82dc2b-c3c8-4e30-b795-6ab3a39b723c"
      },
      "status": "completed",
      "subject": {
        "reference": "urn:uuid:71827745-4c67-4349-a01a-4428466817d2"
      },
      "context": {
        "reference": "urn:uuid:8d96f174-294f-47e4-a17a-cfcb9a3ccaff"
      },
      "authored": "2021-04-06T11:29:26+00:00",
      "item": [ {
        "linkId": "Tx220074",
        "text": "What is the reason for the contact?",
        "answer": [ {
          "valueString": "more"
        } ]
      } ]
    }
  }, {
    "fullUrl": "urn:uuid:de82dc2b-c3c8-4e30-b795-6ab3a39b723c",
    "resource": {
      "resourceType": "Questionnaire",
      "id": "de82dc2b-c3c8-4e30-b795-6ab3a39b723c",
      "identifier": [ {
        "value": "59263"
      } ],
      "version": "2021-04-06T11:29:26.887Z",
      "status": "active",
      "experimental": false,
      "date": "2021-04-06T11:29:26+00:00",
      "publisher": "User ID: 'HADFIELDR' User name: 'Ryan Hadfield' User skill set: 'T3'",
      "lastReviewDate": "2021-04-06",
      "contact": [ {
        "telecom": [ {
          "system": "phone",
          "value": "07777 888888"
        } ]
      } ],
      "subjectType": [ "Patient" ],
      "item": [ {
        "linkId": "59263",
        "prefix": "5",
        "text": "What is the reason for the contact?",
        "type": "choice",
        "required": true,
        "repeats": false,
        "option": [ {
          "valueString": "an injury or other health problem, Selected: false"
        }, {
          "valueString": "labour or childbirth, Selected: false"
        }, {
          "valueString": "a need to access another healthcare service, Selected: false"
        }, {
          "valueString": "a healthcare professional requesting contact with another clinician, Selected: false"
        }, {
          "valueString": "a report of results or tests, Selected: false"
        }, {
          "valueString": "a possible failure of contraception, Selected: false"
        }, {
          "valueString": "more, Selected: true"
        } ]
      } ]
    }
  }, {
    "fullUrl": "urn:uuid:3c09d469-4349-41f6-823b-7711448793e5",
    "resource": {
      "resourceType": "QuestionnaireResponse",
      "id": "3c09d469-4349-41f6-823b-7711448793e5",
      "identifier": {
        "value": "59263"
      },
      "questionnaire": {
        "reference": "urn:uuid:75c023c3-e925-4e69-a22e-6b9f661fec86"
      },
      "status": "completed",
      "subject": {
        "reference": "urn:uuid:71827745-4c67-4349-a01a-4428466817d2"
      },
      "context": {
        "reference": "urn:uuid:8d96f174-294f-47e4-a17a-cfcb9a3ccaff"
      },
      "authored": "2021-04-06T11:29:26+00:00",
      "item": [ {
        "linkId": "Tx221793",
        "text": "STRING:to'Social&information'-further'Callreason'menu",
        "answer": [ {
          "valueString": "\"present\""
        } ]
      } ]
    }
  }, {
    "fullUrl": "urn:uuid:75c023c3-e925-4e69-a22e-6b9f661fec86",
    "resource": {
      "resourceType": "Questionnaire",
      "id": "75c023c3-e925-4e69-a22e-6b9f661fec86",
      "identifier": [ {
        "value": "59263"
      } ],
      "version": "2021-04-06T11:29:26.887Z",
      "status": "active",
      "experimental": false,
      "date": "2021-04-06T11:29:26+00:00",
      "publisher": "User ID: 'HADFIELDR' User name: 'Ryan Hadfield' User skill set: 'T3'",
      "lastReviewDate": "2021-04-06",
      "contact": [ {
        "telecom": [ {
          "system": "phone",
          "value": "07777 888888"
        } ]
      } ],
      "subjectType": [ "Patient" ],
      "item": [ {
        "linkId": "59263",
        "prefix": "600",
        "text": "STRING:to'Social&information'-further'Callreason'menu",
        "type": "choice",
        "required": true,
        "repeats": false,
        "option": [ {
          "valueString": "\"present\", Selected: true"
        } ]
      } ]
    }
  }, {
    "fullUrl": "urn:uuid:bffbf1cc-5aba-4967-9527-6c1e924658f6",
    "resource": {
      "resourceType": "QuestionnaireResponse",
      "id": "bffbf1cc-5aba-4967-9527-6c1e924658f6",
      "identifier": {
        "value": "59263"
      },
      "questionnaire": {
        "reference": "urn:uuid:012eac44-e80f-4546-94fc-fe850f94cfa4"
      },
      "status": "completed",
      "subject": {
        "reference": "urn:uuid:71827745-4c67-4349-a01a-4428466817d2"
      },
      "context": {
        "reference": "urn:uuid:8d96f174-294f-47e4-a17a-cfcb9a3ccaff"
      },
      "authored": "2021-04-06T11:29:26+00:00"
    }
  }, {
    "fullUrl": "urn:uuid:012eac44-e80f-4546-94fc-fe850f94cfa4",
    "resource": {
      "resourceType": "Questionnaire",
      "id": "012eac44-e80f-4546-94fc-fe850f94cfa4",
      "identifier": [ {
        "value": "59263"
      } ],
      "version": "2021-04-06T11:29:26.887Z",
      "status": "active",
      "experimental": false,
      "date": "2021-04-06T11:29:26+00:00",
      "publisher": "User ID: 'HADFIELDR' User name: 'Ryan Hadfield' User skill set: 'T3'",
      "lastReviewDate": "2021-04-06",
      "contact": [ {
        "telecom": [ {
          "system": "phone",
          "value": "07777 888888"
        } ]
      } ],
      "subjectType": [ "Patient" ]
    }
  }, {
    "fullUrl": "urn:uuid:f2048c2b-efc4-49b9-9f3a-fe0e92a3f90e",
    "resource": {
      "resourceType": "QuestionnaireResponse",
      "id": "f2048c2b-efc4-49b9-9f3a-fe0e92a3f90e",
      "identifier": {
        "value": "59263"
      },
      "questionnaire": {
        "reference": "urn:uuid:5145f866-aa1d-4e5d-9702-1e57229136f6"
      },
      "status": "completed",
      "subject": {
        "reference": "urn:uuid:71827745-4c67-4349-a01a-4428466817d2"
      },
      "context": {
        "reference": "urn:uuid:8d96f174-294f-47e4-a17a-cfcb9a3ccaff"
      },
      "authored": "2021-04-06T11:29:26+00:00",
      "item": [ {
        "linkId": "Tx221804",
        "text": "STRING:transfertofurthermenuquestionestablishedinEntryFlow",
        "answer": [ {
          "valueString": "\"present\""
        } ]
      } ]
    }
  }, {
    "fullUrl": "urn:uuid:5145f866-aa1d-4e5d-9702-1e57229136f6",
    "resource": {
      "resourceType": "Questionnaire",
      "id": "5145f866-aa1d-4e5d-9702-1e57229136f6",
      "identifier": [ {
        "value": "59263"
      } ],
      "version": "2021-04-06T11:29:26.887Z",
      "status": "active",
      "experimental": false,
      "date": "2021-04-06T11:29:26+00:00",
      "publisher": "User ID: 'HADFIELDR' User name: 'Ryan Hadfield' User skill set: 'T3'",
      "lastReviewDate": "2021-04-06",
      "contact": [ {
        "telecom": [ {
          "system": "phone",
          "value": "07777 888888"
        } ]
      } ],
      "subjectType": [ "Patient" ],
      "item": [ {
        "linkId": "59263",
        "prefix": "41",
        "text": "STRING:transfertofurthermenuquestionestablishedinEntryFlow",
        "type": "choice",
        "required": true,
        "repeats": false,
        "option": [ {
          "valueString": "\"present\", Selected: true"
        } ]
      } ]
    }
  }, {
    "fullUrl": "urn:uuid:2f5e3936-f08b-4842-9927-b91aeaa93322",
    "resource": {
      "resourceType": "QuestionnaireResponse",
      "id": "2f5e3936-f08b-4842-9927-b91aeaa93322",
      "identifier": {
        "value": "59263"
      },
      "questionnaire": {
        "reference": "urn:uuid:9d4a4210-1cbb-483a-bcf6-83eb58f6992e"
      },
      "status": "completed",
      "subject": {
        "reference": "urn:uuid:71827745-4c67-4349-a01a-4428466817d2"
      },
      "context": {
        "reference": "urn:uuid:8d96f174-294f-47e4-a17a-cfcb9a3ccaff"
      },
      "authored": "2021-04-06T11:29:26+00:00",
      "item": [ {
        "linkId": "Tx224998",
        "text": "SYSTEM_COVIDLEVEL2",
        "answer": [ {
          "valueString": "==\"covidlevel2\""
        } ]
      } ]
    }
  }, {
    "fullUrl": "urn:uuid:9d4a4210-1cbb-483a-bcf6-83eb58f6992e",
    "resource": {
      "resourceType": "Questionnaire",
      "id": "9d4a4210-1cbb-483a-bcf6-83eb58f6992e",
      "identifier": [ {
        "value": "59263"
      } ],
      "version": "2021-04-06T11:29:26.887Z",
      "status": "active",
      "experimental": false,
      "date": "2021-04-06T11:29:26+00:00",
      "publisher": "User ID: 'HADFIELDR' User name: 'Ryan Hadfield' User skill set: 'T3'",
      "lastReviewDate": "2021-04-06",
      "contact": [ {
        "telecom": [ {
          "system": "phone",
          "value": "07777 888888"
        } ]
      } ],
      "subjectType": [ "Patient" ],
      "item": [ {
        "linkId": "59263",
        "prefix": "5900",
        "text": "SYSTEM_COVIDLEVEL2",
        "type": "choice",
        "required": true,
        "repeats": false,
        "option": [ {
          "valueString": "==\"covidlevel2\", Selected: true"
        }, {
          "valueString": "*, Selected: false"
        } ]
      } ]
    }
  }, {
    "fullUrl": "urn:uuid:a4d9273f-6a4c-4ec0-b3de-5d986b473121",
    "resource": {
      "resourceType": "QuestionnaireResponse",
      "id": "a4d9273f-6a4c-4ec0-b3de-5d986b473121",
      "identifier": {
        "value": "59263"
      },
      "questionnaire": {
        "reference": "urn:uuid:69b5e5b5-c1e2-4a4c-8c08-abb380e7af5c"
      },
      "status": "completed",
      "subject": {
        "reference": "urn:uuid:71827745-4c67-4349-a01a-4428466817d2"
      },
      "context": {
        "reference": "urn:uuid:8d96f174-294f-47e4-a17a-cfcb9a3ccaff"
      },
      "authored": "2021-04-06T11:29:26+00:00",
      "item": [ {
        "linkId": "Tx225069",
        "text": "What is the reason for the contact?",
        "answer": [ {
          "valueString": "a prescription request"
        } ]
      } ]
    }
  }, {
    "fullUrl": "urn:uuid:69b5e5b5-c1e2-4a4c-8c08-abb380e7af5c",
    "resource": {
      "resourceType": "Questionnaire",
      "id": "69b5e5b5-c1e2-4a4c-8c08-abb380e7af5c",
      "identifier": [ {
        "value": "59263"
      } ],
      "version": "2021-04-06T11:29:26.887Z",
      "status": "active",
      "experimental": false,
      "date": "2021-04-06T11:29:26+00:00",
      "publisher": "User ID: 'HADFIELDR' User name: 'Ryan Hadfield' User skill set: 'T3'",
      "lastReviewDate": "2021-04-06",
      "contact": [ {
        "telecom": [ {
          "system": "phone",
          "value": "07777 888888"
        } ]
      } ],
      "subjectType": [ "Patient" ],
      "item": [ {
        "linkId": "59263",
        "prefix": "6000",
        "text": "What is the reason for the contact?",
        "type": "choice",
        "required": true,
        "repeats": false,
        "option": [ {
          "valueString": "a child protection/vulnerable adult concern (specify), Selected: false"
        }, {
          "valueString": "a social or domestic emergency, Selected: false"
        }, {
          "valueString": "a prescription request, Selected: true"
        }, {
          "valueString": "an appointment request, Selected: false"
        }, {
          "valueString": "a request for health or medication information, Selected: false"
        }, {
          "valueString": "public health alert information, Selected: false"
        } ]
      } ]
    }
  }, {
    "fullUrl": "urn:uuid:fcb0f102-7a99-4c42-a4ff-9d04f8980a6a",
    "resource": {
      "resourceType": "QuestionnaireResponse",
      "id": "fcb0f102-7a99-4c42-a4ff-9d04f8980a6a",
      "identifier": {
        "value": "59263"
      },
      "questionnaire": {
        "reference": "urn:uuid:3f933351-c805-42fa-8888-07786dfcdb71"
      },
      "status": "completed",
      "subject": {
        "reference": "urn:uuid:71827745-4c67-4349-a01a-4428466817d2"
      },
      "context": {
        "reference": "urn:uuid:8d96f174-294f-47e4-a17a-cfcb9a3ccaff"
      },
      "authored": "2021-04-06T11:29:26+00:00",
      "item": [ {
        "linkId": "Tx220957",
        "text": "Is this contact about a new or worsening illness?",
        "answer": [ {
          "valueString": "no"
        } ]
      } ]
    }
  }, {
    "fullUrl": "urn:uuid:3f933351-c805-42fa-8888-07786dfcdb71",
    "resource": {
      "resourceType": "Questionnaire",
      "id": "3f933351-c805-42fa-8888-07786dfcdb71",
      "identifier": [ {
        "value": "59263"
      } ],
      "version": "2021-04-06T11:29:26.887Z",
      "status": "active",
      "experimental": false,
      "date": "2021-04-06T11:29:26+00:00",
      "publisher": "User ID: 'HADFIELDR' User name: 'Ryan Hadfield' User skill set: 'T3'",
      "lastReviewDate": "2021-04-06",
      "contact": [ {
        "telecom": [ {
          "system": "phone",
          "value": "07777 888888"
        } ]
      } ],
      "subjectType": [ "Patient" ],
      "item": [ {
        "linkId": "59263",
        "prefix": "1400",
        "text": "Is this contact about a new or worsening illness?",
        "type": "choice",
        "required": true,
        "repeats": false,
        "option": [ {
          "valueString": "yes, Selected: false"
        }, {
          "valueString": "not sure, Selected: false"
        }, {
          "valueString": "no, Selected: true"
        } ]
      } ]
    }
  }, {
    "fullUrl": "urn:uuid:4593c4f4-b7db-4198-9e67-521ee7382b08",
    "resource": {
      "resourceType": "QuestionnaireResponse",
      "id": "4593c4f4-b7db-4198-9e67-521ee7382b08",
      "identifier": {
        "value": "59263"
      },
      "questionnaire": {
        "reference": "urn:uuid:a2d66a97-6828-42f3-8d89-b3d213c226d9"
      },
      "status": "completed",
      "subject": {
        "reference": "urn:uuid:71827745-4c67-4349-a01a-4428466817d2"
      },
      "context": {
        "reference": "urn:uuid:8d96f174-294f-47e4-a17a-cfcb9a3ccaff"
      },
      "authored": "2021-04-06T11:29:26+00:00",
      "item": [ {
        "linkId": "Tx221352",
        "text": "Have you got enough medication to last until the surgery opens?",
        "answer": [ {
          "valueString": "no"
        } ]
      } ]
    }
  }, {
    "fullUrl": "urn:uuid:a2d66a97-6828-42f3-8d89-b3d213c226d9",
    "resource": {
      "resourceType": "Questionnaire",
      "id": "a2d66a97-6828-42f3-8d89-b3d213c226d9",
      "identifier": [ {
        "value": "59263"
      } ],
      "version": "2021-04-06T11:29:26.887Z",
      "status": "active",
      "experimental": false,
      "date": "2021-04-06T11:29:26+00:00",
      "publisher": "User ID: 'HADFIELDR' User name: 'Ryan Hadfield' User skill set: 'T3'",
      "lastReviewDate": "2021-04-06",
      "contact": [ {
        "telecom": [ {
          "system": "phone",
          "value": "07777 888888"
        } ]
      } ],
      "subjectType": [ "Patient" ],
      "item": [ {
        "linkId": "59263",
        "prefix": "1500",
        "text": "Have you got enough medication to last until the surgery opens?",
        "type": "choice",
        "required": true,
        "repeats": false,
        "option": [ {
          "valueString": "yes, Selected: false"
        }, {
          "valueString": "not sure, Selected: false"
        }, {
          "valueString": "no, Selected: true"
        } ]
      } ]
    }
  }, {
    "fullUrl": "urn:uuid:a54405a1-b08c-46fa-997b-33d3740f78ea",
    "resource": {
      "resourceType": "QuestionnaireResponse",
      "id": "a54405a1-b08c-46fa-997b-33d3740f78ea",
      "identifier": {
        "value": "59263"
      },
      "questionnaire": {
        "reference": "urn:uuid:703035fc-13e2-4744-bbd0-e642f17c89cd"
      },
      "status": "completed",
      "subject": {
        "reference": "urn:uuid:71827745-4c67-4349-a01a-4428466817d2"
      },
      "context": {
        "reference": "urn:uuid:8d96f174-294f-47e4-a17a-cfcb9a3ccaff"
      },
      "authored": "2021-04-06T11:29:26+00:00"
    }
  }, {
    "fullUrl": "urn:uuid:703035fc-13e2-4744-bbd0-e642f17c89cd",
    "resource": {
      "resourceType": "Questionnaire",
      "id": "703035fc-13e2-4744-bbd0-e642f17c89cd",
      "identifier": [ {
        "value": "59263"
      } ],
      "version": "2021-04-06T11:29:26.887Z",
      "status": "active",
      "experimental": false,
      "date": "2021-04-06T11:29:26+00:00",
      "publisher": "User ID: 'HADFIELDR' User name: 'Ryan Hadfield' User skill set: 'T3'",
      "lastReviewDate": "2021-04-06",
      "contact": [ {
        "telecom": [ {
          "system": "phone",
          "value": "07777 888888"
        } ]
      } ],
      "subjectType": [ "Patient" ]
    }
  }, {
    "fullUrl": "urn:uuid:fa318cb1-05e7-48ca-8e0a-95a48de2210b",
    "resource": {
      "resourceType": "QuestionnaireResponse",
      "id": "fa318cb1-05e7-48ca-8e0a-95a48de2210b",
      "identifier": {
        "value": "59263"
      },
      "questionnaire": {
        "reference": "urn:uuid:de471e50-7629-4533-a617-043d51efca6d"
      },
      "status": "completed",
      "subject": {
        "reference": "urn:uuid:71827745-4c67-4349-a01a-4428466817d2"
      },
      "context": {
        "reference": "urn:uuid:8d96f174-294f-47e4-a17a-cfcb9a3ccaff"
      },
      "authored": "2021-04-06T11:29:26+00:00",
      "item": [ {
        "linkId": "Tx224231",
        "text": "FROM WHAT YOU HAVE HEARD IS A CONSULTATION WITH A PRESCRIBER NEEDED?",
        "answer": [ {
          "valueString": "no"
        } ]
      } ]
    }
  }, {
    "fullUrl": "urn:uuid:de471e50-7629-4533-a617-043d51efca6d",
    "resource": {
      "resourceType": "Questionnaire",
      "id": "de471e50-7629-4533-a617-043d51efca6d",
      "identifier": [ {
        "value": "59263"
      } ],
      "version": "2021-04-06T11:29:26.887Z",
      "status": "active",
      "experimental": false,
      "date": "2021-04-06T11:29:26+00:00",
      "publisher": "User ID: 'HADFIELDR' User name: 'Ryan Hadfield' User skill set: 'T3'",
      "lastReviewDate": "2021-04-06",
      "contact": [ {
        "telecom": [ {
          "system": "phone",
          "value": "07777 888888"
        } ]
      } ],
      "subjectType": [ "Patient" ],
      "item": [ {
        "linkId": "59263",
        "prefix": "0",
        "text": "FROM WHAT YOU HAVE HEARD IS A CONSULTATION WITH A PRESCRIBER NEEDED?",
        "type": "choice",
        "required": true,
        "repeats": false,
        "option": [ {
          "valueString": "yes, Selected: false"
        }, {
          "valueString": "not sure, Selected: false"
        }, {
          "valueString": "no, Selected: true"
        } ]
      } ]
    }
  }, {
    "fullUrl": "urn:uuid:d7c28b94-0a3c-40c4-9691-8e1e2a7d69dd",
    "resource": {
      "resourceType": "QuestionnaireResponse",
      "id": "d7c28b94-0a3c-40c4-9691-8e1e2a7d69dd",
      "identifier": {
        "value": "59263"
      },
      "questionnaire": {
        "reference": "urn:uuid:18bf2e5d-cdde-46d7-825d-647e24e49860"
      },
      "status": "completed",
      "subject": {
        "reference": "urn:uuid:71827745-4c67-4349-a01a-4428466817d2"
      },
      "context": {
        "reference": "urn:uuid:8d96f174-294f-47e4-a17a-cfcb9a3ccaff"
      },
      "authored": "2021-04-06T11:29:26+00:00",
      "item": [ {
        "linkId": "Tx222687",
        "text": "Have you got any of the medication available at the moment?",
        "answer": [ {
          "valueString": "no"
        } ]
      } ]
    }
  }, {
    "fullUrl": "urn:uuid:18bf2e5d-cdde-46d7-825d-647e24e49860",
    "resource": {
      "resourceType": "Questionnaire",
      "id": "18bf2e5d-cdde-46d7-825d-647e24e49860",
      "identifier": [ {
        "value": "59263"
      } ],
      "version": "2021-04-06T11:29:26.887Z",
      "status": "active",
      "experimental": false,
      "date": "2021-04-06T11:29:26+00:00",
      "publisher": "User ID: 'HADFIELDR' User name: 'Ryan Hadfield' User skill set: 'T3'",
      "lastReviewDate": "2021-04-06",
      "contact": [ {
        "telecom": [ {
          "system": "phone",
          "value": "07777 888888"
        } ]
      } ],
      "subjectType": [ "Patient" ],
      "item": [ {
        "linkId": "59263",
        "prefix": "200",
        "text": "Have you got any of the medication available at the moment?",
        "type": "choice",
        "required": true,
        "repeats": false,
        "option": [ {
          "valueString": "yes, Selected: false"
        }, {
          "valueString": "not sure, Selected: false"
        }, {
          "valueString": "no, Selected: true"
        } ]
      } ]
    }
  }, {
    "fullUrl": "urn:uuid:7f97ba22-c785-4923-9009-0577bdb12533",
    "resource": {
      "resourceType": "QuestionnaireResponse",
      "id": "7f97ba22-c785-4923-9009-0577bdb12533",
      "identifier": {
        "value": "59263"
      },
      "questionnaire": {
        "reference": "urn:uuid:5fe7b968-aa36-4983-9a0d-da3207eae90e"
      },
      "status": "completed",
      "subject": {
        "reference": "urn:uuid:71827745-4c67-4349-a01a-4428466817d2"
      },
      "context": {
        "reference": "urn:uuid:8d96f174-294f-47e4-a17a-cfcb9a3ccaff"
      },
      "authored": "2021-04-06T11:29:26+00:00",
      "item": [ {
        "linkId": "Tx221367",
        "text": "When is the next dose due?",
        "answer": [ {
          "valueString": "within the next 12 hours"
        } ]
      } ]
    }
  }, {
    "fullUrl": "urn:uuid:5fe7b968-aa36-4983-9a0d-da3207eae90e",
    "resource": {
      "resourceType": "Questionnaire",
      "id": "5fe7b968-aa36-4983-9a0d-da3207eae90e",
      "identifier": [ {
        "value": "59263"
      } ],
      "version": "2021-04-06T11:29:26.887Z",
      "status": "active",
      "experimental": false,
      "date": "2021-04-06T11:29:26+00:00",
      "publisher": "User ID: 'HADFIELDR' User name: 'Ryan Hadfield' User skill set: 'T3'",
      "lastReviewDate": "2021-04-06",
      "contact": [ {
        "telecom": [ {
          "system": "phone",
          "value": "07777 888888"
        } ]
      } ],
      "subjectType": [ "Patient" ],
      "item": [ {
        "linkId": "59263",
        "prefix": "100",
        "text": "When is the next dose due?",
        "type": "choice",
        "required": true,
        "repeats": false,
        "option": [ {
          "valueString": "within the next 2 hours, Selected: false"
        }, {
          "valueString": "within the next 6 hours, Selected: false"
        }, {
          "valueString": "within the next 12 hours, Selected: true"
        }, {
          "valueString": "over 12 hours time, Selected: false"
        }, {
          "valueString": "not sure, Selected: false"
        } ]
      } ]
    }
  }, {
    "fullUrl": "urn:uuid:1842c037-b6c8-4279-838b-773f0436a751",
    "resource": {
      "resourceType": "QuestionnaireResponse",
      "id": "1842c037-b6c8-4279-838b-773f0436a751",
      "identifier": {
        "value": "59263"
      },
      "questionnaire": {
        "reference": "urn:uuid:b7dab074-988a-4139-ab86-287dce92983b"
      },
      "status": "completed",
      "subject": {
        "reference": "urn:uuid:71827745-4c67-4349-a01a-4428466817d2"
      },
      "context": {
        "reference": "urn:uuid:8d96f174-294f-47e4-a17a-cfcb9a3ccaff"
      },
      "authored": "2021-04-06T11:29:26+00:00",
      "item": [ {
        "linkId": "Tx223441",
        "text": "STRING:SDPCRepeatPrescription",
        "answer": [ {
          "valueString": "\"PC repeat prescription\""
        } ]
      } ]
    }
  }, {
    "fullUrl": "urn:uuid:b7dab074-988a-4139-ab86-287dce92983b",
    "resource": {
      "resourceType": "Questionnaire",
      "id": "b7dab074-988a-4139-ab86-287dce92983b",
      "identifier": [ {
        "value": "59263"
      } ],
      "version": "2021-04-06T11:29:26.887Z",
      "status": "active",
      "experimental": false,
      "date": "2021-04-06T11:29:26+00:00",
      "publisher": "User ID: 'HADFIELDR' User name: 'Ryan Hadfield' User skill set: 'T3'",
      "lastReviewDate": "2021-04-06",
      "contact": [ {
        "telecom": [ {
          "system": "phone",
          "value": "07777 888888"
        } ]
      } ],
      "subjectType": [ "Patient" ],
      "item": [ {
        "linkId": "59263",
        "prefix": "1200",
        "text": "STRING:SDPCRepeatPrescription",
        "type": "choice",
        "required": true,
        "repeats": false,
        "option": [ {
          "valueString": "\"PC repeat prescription\", Selected: true"
        } ]
      } ]
    }
  }, {
    "fullUrl": "urn:uuid:79f41c4b-3072-4ff6-b0cd-d7fe5a5814d6",
    "resource": {
      "resourceType": "QuestionnaireResponse",
      "id": "79f41c4b-3072-4ff6-b0cd-d7fe5a5814d6",
      "identifier": {
        "value": "59263"
      },
      "questionnaire": {
        "reference": "urn:uuid:4c61cbcd-82d5-469f-be95-32e0440881d4"
      },
      "status": "completed",
      "subject": {
        "reference": "urn:uuid:71827745-4c67-4349-a01a-4428466817d2"
      },
      "context": {
        "reference": "urn:uuid:8d96f174-294f-47e4-a17a-cfcb9a3ccaff"
      },
      "authored": "2021-04-06T11:29:26+00:00"
    }
  }, {
    "fullUrl": "urn:uuid:4c61cbcd-82d5-469f-be95-32e0440881d4",
    "resource": {
      "resourceType": "Questionnaire",
      "id": "4c61cbcd-82d5-469f-be95-32e0440881d4",
      "identifier": [ {
        "value": "59263"
      } ],
      "version": "2021-04-06T11:29:26.887Z",
      "status": "active",
      "experimental": false,
      "date": "2021-04-06T11:29:26+00:00",
      "publisher": "User ID: 'HADFIELDR' User name: 'Ryan Hadfield' User skill set: 'T3'",
      "lastReviewDate": "2021-04-06",
      "contact": [ {
        "telecom": [ {
          "system": "phone",
          "value": "07777 888888"
        } ]
      } ],
      "subjectType": [ "Patient" ]
    }
  }, {
    "fullUrl": "urn:uuid:615579f6-3ba8-4f33-a8b3-e320f378139e",
    "resource": {
      "resourceType": "QuestionnaireResponse",
      "id": "615579f6-3ba8-4f33-a8b3-e320f378139e",
      "identifier": {
        "value": "59263"
      },
      "questionnaire": {
        "reference": "urn:uuid:9fa861d7-32cb-416a-a1d9-cc32f49384be"
      },
      "status": "completed",
      "subject": {
        "reference": "urn:uuid:71827745-4c67-4349-a01a-4428466817d2"
      },
      "context": {
        "reference": "urn:uuid:8d96f174-294f-47e4-a17a-cfcb9a3ccaff"
      },
      "authored": "2021-04-06T11:29:26+00:00"
    }
  }, {
    "fullUrl": "urn:uuid:9fa861d7-32cb-416a-a1d9-cc32f49384be",
    "resource": {
      "resourceType": "Questionnaire",
      "id": "9fa861d7-32cb-416a-a1d9-cc32f49384be",
      "identifier": [ {
        "value": "59263"
      } ],
      "version": "2021-04-06T11:29:26.887Z",
      "status": "active",
      "experimental": false,
      "date": "2021-04-06T11:29:26+00:00",
      "publisher": "User ID: 'HADFIELDR' User name: 'Ryan Hadfield' User skill set: 'T3'",
      "lastReviewDate": "2021-04-06",
      "contact": [ {
        "telecom": [ {
          "system": "phone",
          "value": "07777 888888"
        } ]
      } ],
      "subjectType": [ "Patient" ]
    }
  }, {
    "fullUrl": "urn:uuid:a5a0c02a-5948-41f0-979f-f53869032f1d",
    "resource": {
      "resourceType": "Observation",
      "id": "a5a0c02a-5948-41f0-979f-f53869032f1d",
      "status": "final",
      "code": {
        "coding": [ {
          "system": "http://snomed.info/sct",
          "code": "33962009",
          "display": "Presenting complaint"
        } ]
      },
      "subject": {
        "reference": "urn:uuid:71827745-4c67-4349-a01a-4428466817d2"
      },
      "context": {
        "reference": "urn:uuid:8d96f174-294f-47e4-a17a-cfcb9a3ccaff"
      },
      "valueString": "test"
    }
  }, {
    "fullUrl": "urn:uuid:d55fa3b1-4ef4-4cf4-b492-c11f4b3b42c6",
    "resource": {
      "resourceType": "PractitionerRole",
      "id": "d55fa3b1-4ef4-4cf4-b492-c11f4b3b42c6",
      "practitioner": {
        "reference": "urn:uuid:681054ce-9301-4ce8-a821-74e0db143d5b"
      },
      "organization": {
        "reference": "urn:uuid:012a8d79-1e36-4b31-ac14-49c105a409c2"
      },
      "code": [ {
        "coding": [ {
          "system": "2.16.840.1.113883.2.1.3.2.4.17.339",
          "code": "DOCTOR",
          "display": "Doctor"
        } ]
      } ]
    }
  }, {
    "fullUrl": "urn:uuid:012a8d79-1e36-4b31-ac14-49c105a409c2",
    "resource": {
      "resourceType": "Organization",
      "id": "012a8d79-1e36-4b31-ac14-49c105a409c2",
      "identifier": [ {
        "value": "RYE"
      } ],
      "name": "1.SCAS Administrator (SCAS111)"
    }
  }, {
    "fullUrl": "urn:uuid:77ab1814-71ba-4d01-96ab-92acac72f40c",
    "resource": {
      "resourceType": "PractitionerRole",
      "id": "77ab1814-71ba-4d01-96ab-92acac72f40c",
      "practitioner": {
        "reference": "urn:uuid:643feab4-36cc-4dac-a0e7-d4c1fd12ab49"
      },
      "organization": {
        "reference": "urn:uuid:a70c650e-e712-4281-8969-38a2bded4fa7"
      },
      "code": [ {
        "coding": [ {
          "system": "2.16.840.1.113883.2.1.3.2.4.17.196",
          "code": "R0010",
          "display": "Medical Director"
        } ]
      } ]
    }
  }, {
    "fullUrl": "urn:uuid:a70c650e-e712-4281-8969-38a2bded4fa7",
    "resource": {
      "resourceType": "Organization",
      "id": "a70c650e-e712-4281-8969-38a2bded4fa7",
      "identifier": [ {
        "value": "RYE"
      } ],
      "name": "SCAS111"
    }
  }, {
    "fullUrl": "urn:uuid:2b34d78d-c047-41c6-966d-3082a5c67ec2",
    "resource": {
      "resourceType": "RelatedPerson",
      "id": "2b34d78d-c047-41c6-966d-3082a5c67ec2",
      "patient": {
        "reference": "urn:uuid:71827745-4c67-4349-a01a-4428466817d2"
      },
      "relationship": {
        "coding": [ {
          "system": "http://hl7.org/fhir/v2/0131",
          "code": "C",
          "display": "Emergency Contact"
        } ]
      },
      "telecom": [ {
        "system": "phone",
        "value": "tel:000000000000"
      } ]
    }
  }, {
    "fullUrl": "urn:uuid:89831572-5766-41c7-9df0-3f2a071451e8",
    "resource": {
      "resourceType": "Device",
      "id": "89831572-5766-41c7-9df0-3f2a071451e8",
      "model": "111 Adaptor",
      "version": "1.0.1"
    }
  }, {
    "fullUrl": "urn:uuid:e6104384-3b53-4d85-be22-f1ae84e25cca",
    "resource": {
      "resourceType": "List",
      "id": "e6104384-3b53-4d85-be22-f1ae84e25cca",
      "status": "current",
      "mode": "working",
      "title": "111 Report List",
      "code": {
        "coding": [ {
          "system": "http://snomed.info/sct",
          "code": "225390008",
          "display": "Triage"
        } ]
      },
      "subject": {
        "reference": "urn:uuid:71827745-4c67-4349-a01a-4428466817d2"
      },
      "encounter": {
        "reference": "urn:uuid:8d96f174-294f-47e4-a17a-cfcb9a3ccaff"
      },
      "date": "2021-04-06T11:29:27+00:00",
      "source": {
        "reference": "urn:uuid:89831572-5766-41c7-9df0-3f2a071451e8"
      },
      "orderedBy": {
        "coding": [ {
          "system": "http://hl7.org/fhir/list-order",
          "code": "event-date",
          "display": "Sorted by Event Date"
        } ]
      },
      "entry": [ {
        "item": {
          "reference": "urn:uuid:a70c650e-e712-4281-8969-38a2bded4fa7"
        }
      }, {
        "item": {
          "reference": "urn:uuid:2b34d78d-c047-41c6-966d-3082a5c67ec2"
        }
      }, {
        "item": {
          "reference": "urn:uuid:643feab4-36cc-4dac-a0e7-d4c1fd12ab49"
        }
      }, {
        "item": {
          "reference": "urn:uuid:0b1f10f1-20e9-473c-bab5-e6926fa140fb"
        }
      }, {
        "item": {
          "reference": "urn:uuid:c7585823-dbfe-451b-9274-dbfd5edc07a2"
        }
      }, {
        "item": {
          "reference": "urn:uuid:a5a0c02a-5948-41f0-979f-f53869032f1d"
        }
      }, {
        "item": {
          "reference": "urn:uuid:bd67c6b8-be2d-4816-9077-ed6c87956806"
        }
      }, {
        "item": {
          "reference": "urn:uuid:012a8d79-1e36-4b31-ac14-49c105a409c2"
        }
      }, {
        "item": {
          "reference": "urn:uuid:b20994bc-aaff-4320-9f84-55799d184047"
        }
      }, {
        "item": {
          "reference": "urn:uuid:681054ce-9301-4ce8-a821-74e0db143d5b"
        }
      }, {
        "item": {
          "reference": "urn:uuid:637bc8d5-e0c9-4cb0-b68b-97fb243448bf"
        }
      }, {
        "item": {
          "reference": "urn:uuid:fcb0f102-7a99-4c42-a4ff-9d04f8980a6a"
        }
      }, {
        "item": {
          "reference": "urn:uuid:efd006d0-a492-4cd5-b831-2688fbcc32e3"
        }
      }, {
        "item": {
          "reference": "urn:uuid:96c55f64-f886-4d7f-aed7-353b39a6e136"
        }
      }, {
        "item": {
          "reference": "urn:uuid:b203cafe-627c-43d2-a051-3964bd90c2b1"
        }
      }, {
        "item": {
          "reference": "urn:uuid:bc121096-8a93-4f11-ba87-b4a5e27563be"
        }
      }, {
        "item": {
          "reference": "urn:uuid:28d0dd25-1cb7-45ef-bde5-c2eb3ec7fdfb"
        }
      }, {
        "item": {
          "reference": "urn:uuid:f3e8ba22-4359-4225-9f8f-63f10809064b"
        }
      }, {
        "item": {
          "reference": "urn:uuid:6d87ea2a-f8fa-452f-9d64-1134bd86ad37"
        }
      }, {
        "item": {
          "reference": "urn:uuid:1593ef94-6e4c-40cc-a18b-78403a899ee8"
        }
      }, {
        "item": {
          "reference": "urn:uuid:a4d9273f-6a4c-4ec0-b3de-5d986b473121"
        }
      }, {
        "item": {
          "reference": "urn:uuid:89982d80-1695-45dd-843a-d2241a68fa86"
        }
      }, {
        "item": {
          "reference": "urn:uuid:d136705f-14be-4e40-8c63-94e230f6fb70"
        }
      }, {
        "item": {
          "reference": "urn:uuid:8b0282a5-1f7c-4652-bb1e-2a41e2e141e1"
        }
      }, {
        "item": {
          "reference": "urn:uuid:c306d5d5-8512-4e11-bbe3-c8864ec60e92"
        }
      }, {
        "item": {
          "reference": "urn:uuid:79f41c4b-3072-4ff6-b0cd-d7fe5a5814d6"
        }
      }, {
        "item": {
          "reference": "urn:uuid:8d94f4c0-7e97-4784-a42c-89e43ca29262"
        }
      }, {
        "item": {
          "reference": "urn:uuid:f2048c2b-efc4-49b9-9f3a-fe0e92a3f90e"
        }
      }, {
        "item": {
          "reference": "urn:uuid:cb795f95-f5af-4efd-9f6e-2a21b24f69d4"
        }
      }, {
        "item": {
          "reference": "urn:uuid:d1733f5c-2f03-431c-9f0f-4ca6eea4d3e4"
        }
      }, {
        "item": {
          "reference": "urn:uuid:b03d6a07-86c8-4ea1-868e-68ee51069d21"
        }
      }, {
        "item": {
          "reference": "urn:uuid:eff18d8e-bf58-4e5e-ac2c-879b82a1c947"
        }
      }, {
        "item": {
          "reference": "urn:uuid:4593c4f4-b7db-4198-9e67-521ee7382b08"
        }
      }, {
        "item": {
          "reference": "urn:uuid:9fe83c1e-1d8d-433f-9a21-380d2019d51d"
        }
      }, {
        "item": {
          "reference": "urn:uuid:65365683-2b71-4d42-b974-27a3e48cf84c"
        }
      }, {
        "item": {
          "reference": "urn:uuid:2684231c-cf9a-443f-95e4-c393db6ed556"
        }
      }, {
        "item": {
          "reference": "urn:uuid:7f53d7e0-315e-41b1-a2cd-0bc010a01cfc"
        }
      }, {
        "item": {
          "reference": "urn:uuid:59ce5d29-cadc-4d80-a29a-c9f6ce5ce8c8"
        }
      }, {
        "item": {
          "reference": "urn:uuid:43bf3421-6254-4990-9523-7f3b6124c4f9"
        }
      }, {
        "item": {
          "reference": "urn:uuid:0301ae5c-3cdf-460f-8c81-26c20fa4af07"
        }
      }, {
        "item": {
          "reference": "urn:uuid:bbbf2401-03d1-48cd-822b-9089a222c7aa"
        }
      }, {
        "item": {
          "reference": "urn:uuid:425484af-e186-44bc-b912-417d030b9a30"
        }
      }, {
        "item": {
          "reference": "urn:uuid:de471e50-7629-4533-a617-043d51efca6d"
        }
      }, {
        "item": {
          "reference": "urn:uuid:00dd4e7e-4f2f-4f98-9942-8864f38772aa"
        }
      }, {
        "item": {
          "reference": "urn:uuid:3c09d469-4349-41f6-823b-7711448793e5"
        }
      }, {
        "item": {
          "reference": "urn:uuid:cdbfd418-26b4-45a6-aeba-1a2c12575082"
        }
      }, {
        "item": {
          "reference": "urn:uuid:20a88426-7a69-41a1-b98c-71d852342911"
        }
      }, {
        "item": {
          "reference": "urn:uuid:25c93dac-4f5c-4497-9e27-a9303f26c7ae"
        }
      }, {
        "item": {
          "reference": "urn:uuid:97883d28-ffca-49ab-afb7-8bfdf0b66d5b"
        }
      }, {
        "item": {
          "reference": "urn:uuid:14ee51f2-1007-44d8-a769-afaf7e753a8f"
        }
      }, {
        "item": {
          "reference": "urn:uuid:edf311d6-ca21-4759-b2ed-27daa7d59326"
        }
      }, {
        "item": {
          "reference": "urn:uuid:53a63e1c-cb82-487a-a765-ab1384670309"
        }
      }, {
        "item": {
          "reference": "urn:uuid:4603c9a7-a928-40e3-abf1-ec8fa4409a32"
        }
      }, {
        "item": {
          "reference": "urn:uuid:dca6dff9-6b30-49a8-97cc-725b5b1bcbb6"
        }
      }, {
        "item": {
          "reference": "urn:uuid:deb03808-6aee-4096-b213-e220632be75a"
        }
      }, {
        "item": {
          "reference": "urn:uuid:cbe8b4ac-f87b-41d8-9f7f-33f202216cb9"
        }
      }, {
        "item": {
          "reference": "urn:uuid:703035fc-13e2-4744-bbd0-e642f17c89cd"
        }
      }, {
        "item": {
          "reference": "urn:uuid:6bf01446-7ad3-4428-bf33-3a1ba6ac9fcf"
        }
      }, {
        "item": {
          "reference": "urn:uuid:126239c6-7695-47ff-89a3-ddff660ca620"
        }
      }, {
        "item": {
          "reference": "urn:uuid:6ef5ff0b-a1a4-4e0d-836a-46c548fa8aeb"
        }
      }, {
        "item": {
          "reference": "urn:uuid:024fbb0f-d824-4268-b001-9c865a0441a7"
        }
      }, {
        "item": {
          "reference": "urn:uuid:de82dc2b-c3c8-4e30-b795-6ab3a39b723c"
        }
      }, {
        "item": {
          "reference": "urn:uuid:bffbf1cc-5aba-4967-9527-6c1e924658f6"
        }
      }, {
        "item": {
          "reference": "urn:uuid:6fb6e139-8a71-4b75-a6c1-f0e8311c87f9"
        }
      }, {
        "item": {
          "reference": "urn:uuid:8d0f75c6-b4a5-4899-83c0-b6164315bb46"
        }
      }, {
        "item": {
          "reference": "urn:uuid:b834f54e-4073-4a95-87e3-cc61995d3c35"
        }
      }, {
        "item": {
          "reference": "urn:uuid:67d77360-897f-4268-b5e0-6402fd47b500"
        }
      }, {
        "item": {
          "reference": "urn:uuid:5f0dc12d-7faa-4939-a6d7-c15df2084efa"
        }
      }, {
        "item": {
          "reference": "urn:uuid:bd4ee7b0-731b-408e-8c3e-73190ced0d0e"
        }
      }, {
        "item": {
          "reference": "urn:uuid:e9e87b00-22cc-40ae-a8df-ef87b7b96c52"
        }
      }, {
        "item": {
          "reference": "urn:uuid:56fc0c88-bc24-4e36-9eb2-43cc35b993d6"
        }
      }, {
        "item": {
          "reference": "urn:uuid:18bf2e5d-cdde-46d7-825d-647e24e49860"
        }
      }, {
        "item": {
          "reference": "urn:uuid:e95025a1-bf02-4d5a-955f-bdee10b4a12c"
        }
      }, {
        "item": {
          "reference": "urn:uuid:040a76cd-00de-469b-8f9b-fb4a30a614b9"
        }
      }, {
        "item": {
          "reference": "urn:uuid:e0bfe315-569e-4ae1-8e00-9bb925a7d6e5"
        }
      }, {
        "item": {
          "reference": "urn:uuid:96f43d73-09f1-4bd7-969a-a50d25583a80"
        }
      }, {
        "item": {
          "reference": "urn:uuid:8cc5778e-2fa2-4020-aca0-c3ab29658e3b"
        }
      }, {
        "item": {
          "reference": "urn:uuid:1dc078fa-172e-4048-8fad-d371b594bbe3"
        }
      }, {
        "item": {
          "reference": "urn:uuid:75ff83fc-e52a-42b0-8441-7bbe94d075cf"
        }
      }, {
        "item": {
          "reference": "urn:uuid:5fe7b968-aa36-4983-9a0d-da3207eae90e"
        }
      }, {
        "item": {
          "reference": "urn:uuid:46ffe4b8-9c34-48e8-afae-14357080f341"
        }
      }, {
        "item": {
          "reference": "urn:uuid:a54405a1-b08c-46fa-997b-33d3740f78ea"
        }
      }, {
        "item": {
          "reference": "urn:uuid:c3451c29-51fd-4947-8d43-2154e810c1d6"
        }
      }, {
        "item": {
          "reference": "urn:uuid:5663c0bb-f68d-42a8-b59c-37e13d713ac2"
        }
      }, {
        "item": {
          "reference": "urn:uuid:73c3d237-7a70-4370-9621-f976eb50b44a"
        }
      }, {
        "item": {
          "reference": "urn:uuid:4c7c25a6-d50f-4e4e-a80d-792873fbb05c"
        }
      }, {
        "item": {
          "reference": "urn:uuid:80f0aecb-0fec-480f-a9d1-41594250b424"
        }
      }, {
        "item": {
          "reference": "urn:uuid:a16ab0e2-9851-49b9-af66-b9784402c8c1"
        }
      }, {
        "item": {
          "reference": "urn:uuid:0de55478-4f72-4061-ae34-8f13ba1160d9"
        }
      }, {
        "item": {
          "reference": "urn:uuid:f9831b92-bf77-4c6b-b718-4f838dc5be0e"
        }
      }, {
        "item": {
          "reference": "urn:uuid:e0788d89-c5bf-4c7f-ab33-72b13ab8506c"
        }
      }, {
        "item": {
          "reference": "urn:uuid:b6cc476e-419d-49bf-8e10-19634fb233c3"
        }
      }, {
        "item": {
          "reference": "urn:uuid:3f933351-c805-42fa-8888-07786dfcdb71"
        }
      }, {
        "item": {
          "reference": "urn:uuid:1842c037-b6c8-4279-838b-773f0436a751"
        }
      }, {
        "item": {
          "reference": "urn:uuid:9d4a4210-1cbb-483a-bcf6-83eb58f6992e"
        }
      }, {
        "item": {
          "reference": "urn:uuid:aeb8a3dd-2abf-4439-815c-7e780215083b"
        }
      }, {
        "item": {
          "reference": "urn:uuid:049c9ec0-5d4f-4f53-b00d-f9472ee6604b"
        }
      }, {
        "item": {
          "reference": "urn:uuid:8701a665-f6ec-47d8-9d32-8031c1e568a1"
        }
      }, {
        "item": {
          "reference": "urn:uuid:69fcf5e7-9679-44a4-924a-c7ea9421c19e"
        }
      }, {
        "item": {
          "reference": "urn:uuid:7cd23d86-4246-4114-8c0c-01d36ff6bf0d"
        }
      }, {
        "item": {
          "reference": "urn:uuid:7a27e573-d8f2-457d-9cfb-247af79db423"
        }
      }, {
        "item": {
          "reference": "urn:uuid:a2d66a97-6828-42f3-8d89-b3d213c226d9"
        }
      }, {
        "item": {
          "reference": "urn:uuid:ac1298aa-786d-420d-9212-7d5ca64abf01"
        }
      }, {
        "item": {
          "reference": "urn:uuid:b7dab074-988a-4139-ab86-287dce92983b"
        }
      }, {
        "item": {
          "reference": "urn:uuid:5dbf4f4e-de6d-4f8d-80f2-632ba305eb39"
        }
      }, {
        "item": {
          "reference": "urn:uuid:7334eec4-4cff-440a-a159-749cb293346b"
        }
      }, {
        "item": {
          "reference": "urn:uuid:375fedce-7e68-4725-b103-86eccbd45a6c"
        }
      }, {
        "item": {
          "reference": "urn:uuid:69b5e5b5-c1e2-4a4c-8c08-abb380e7af5c"
        }
      }, {
        "item": {
          "reference": "urn:uuid:d118ba45-ff02-4835-ae7c-0fe8ebd72e1c"
        }
      }, {
        "item": {
          "reference": "urn:uuid:75c023c3-e925-4e69-a22e-6b9f661fec86"
        }
      }, {
        "item": {
          "reference": "urn:uuid:d7e686b2-7038-460d-81d0-32df71b7fb13"
        }
      }, {
        "item": {
          "reference": "urn:uuid:6c676c37-6bc4-4d74-afc8-5ae9292da803"
        }
      }, {
        "item": {
          "reference": "urn:uuid:d7c28b94-0a3c-40c4-9691-8e1e2a7d69dd"
        }
      }, {
        "item": {
          "reference": "urn:uuid:3293027a-e691-428c-9682-24327b6add18"
        }
      }, {
        "item": {
          "reference": "urn:uuid:2f5e3936-f08b-4842-9927-b91aeaa93322"
        }
      }, {
        "item": {
          "reference": "urn:uuid:aa017025-1e09-496f-b7c0-80f90636b831"
        }
      }, {
        "item": {
          "reference": "urn:uuid:837d53ff-ed52-48dc-a6f6-bd77349b9a12"
        }
      }, {
        "item": {
          "reference": "urn:uuid:9fa861d7-32cb-416a-a1d9-cc32f49384be"
        }
      }, {
        "item": {
          "reference": "urn:uuid:1f4be3ab-7d16-4cea-989b-0eff7a63e7b5"
        }
      }, {
        "item": {
          "reference": "urn:uuid:e642a761-66f9-4610-ae92-4345d4ae4e44"
        }
      }, {
        "item": {
          "reference": "urn:uuid:99e51564-004c-40ac-9aa9-f8610ee96587"
        }
      }, {
        "item": {
          "reference": "urn:uuid:3bc434ae-1509-4e15-b6b8-91a1a3ca1eb3"
        }
      }, {
        "item": {
          "reference": "urn:uuid:7f97ba22-c785-4923-9009-0577bdb12533"
        }
      }, {
        "item": {
          "reference": "urn:uuid:012eac44-e80f-4546-94fc-fe850f94cfa4"
        }
      }, {
        "item": {
          "reference": "urn:uuid:5145f866-aa1d-4e5d-9702-1e57229136f6"
        }
      }, {
        "item": {
          "reference": "urn:uuid:ac97d546-ffd8-45ee-b4a6-13355ce9f629"
        }
      }, {
        "item": {
          "reference": "urn:uuid:27b75521-fd0e-417e-b2c7-d7069169afb9"
        }
      }, {
        "item": {
          "reference": "urn:uuid:429ccdfa-1f87-4a77-985c-e6b570f17fcf"
        }
      }, {
        "item": {
          "reference": "urn:uuid:4c61cbcd-82d5-469f-be95-32e0440881d4"
        }
      }, {
        "item": {
          "reference": "urn:uuid:615579f6-3ba8-4f33-a8b3-e320f378139e"
        }
      }, {
        "item": {
          "reference": "urn:uuid:fa318cb1-05e7-48ca-8e0a-95a48de2210b"
        }
      }, {
        "item": {
          "reference": "urn:uuid:d0ad9d1f-959d-4b20-bfe5-c55902ed516c"
        }
      }, {
        "item": {
          "reference": "urn:uuid:f858ff33-ba98-4026-ad73-a7541401888b"
        }
      } ]
    }
  } ]
}