{
  "resourceType": "Bundle",
  "identifier": {
    "type": {
      "text": "ClinicalDocument VersionNumber"
    },
    "value": "1"
  },
  "type": "message",
  "entry": [ {
    "fullUrl": "urn:uuid:C34D38AA-2A35-4E0C-AAB2-BCC8D397736A",
    "resource": {
      "resourceType": "MessageHeader",
      "id": "C34D38AA-2A35-4E0C-AAB2-BCC8D397736A",
      "event": {
        "system": "https://fhir.nhs.uk/STU3/CodeSystem/EventType-1",
        "code": "referral-1",
        "display": "Referral"
      },
      "destination": [ {
        "endpoint": "urn:nhs-uk:addressing:ods:A82018:DOSServiceID:136753"
      } ],
      "timestamp": "2021-08-03T13:07:14.000+00:00",
      "source": {
        "name": "NHS 111 Adaptor",
        "endpoint": "http://localhost:8080/report"
      },
      "reason": {
        "coding": [ {
          "system": "urn:nhs-itk:ns:201005:interaction",
          "code": "urn:nhs-itk:interaction:primaryGeneralPractitionerRecipientNHS111CDADocument-v2-0"
        } ]
      }
    },
    "response": {
      "status": "success",
      "lastModified": "2022-05-09T13:25:18.601+00:00"
    }
  }, {
    "fullUrl": "urn:uuid:71051f60-fe46-4bff-ab85-d9cd7e9f265e",
    "resource": {
      "resourceType": "Encounter",
      "id": "71051f60-fe46-4bff-ab85-d9cd7e9f265e",
      "identifier": [ {
        "system": "2.16.840.1.113883.2.1.3.2.4.18.49",
        "value": "6C072313-DFFB-4D60-9416-43B044FDBA9F"
      }, {
        "system": "2.16.840.1.113883.2.1.3.2.4.18.34",
        "value": "1766759"
      }, {
        "system": "2.16.840.1.113883.2.1.3.2.4.18.35",
        "value": "1766759"
      } ],
      "status": "finished",
      "type": [ {
        "text": "111 Encounter Referral"
      } ],
      "subject": {
        "reference": "urn:uuid:ef0e53a0-acfd-4e00-838b-a90b5e2a9740"
      },
      "participant": [ {
        "type": [ {
          "coding": [ {
            "system": "http://hl7.org/fhir/ValueSet/encounter-participant-type",
            "code": "PPRF",
            "display": "Author"
          } ]
        } ],
        "individual": {
          "reference": "urn:uuid:742fea76-b361-409f-8831-a086dd0488d8"
        }
      } ],
      "period": {
        "start": "2021-08-03T12:36:56+00:00",
        "end": "2021-08-03T13:07:14+00:00"
      },
      "location": [ {
        "location": {
          "reference": "urn:uuid:4693df66-965f-4387-bf93-0dc2168932a9"
        },
        "status": "active"
      }, {
        "location": {
          "reference": "urn:uuid:cbc9ccdf-4219-41d0-b2d7-44107262a1d2"
        },
        "status": "completed"
      } ],
      "serviceProvider": {
        "reference": "urn:uuid:fa731c45-7655-45c2-8e2d-8b9b33e0d1fc"
      }
    }
  }, {
    "fullUrl": "urn:uuid:fa731c45-7655-45c2-8e2d-8b9b33e0d1fc",
    "resource": {
      "resourceType": "Organization",
      "id": "fa731c45-7655-45c2-8e2d-8b9b33e0d1fc",
      "active": true,
      "type": [ {
        "text": "CST"
      } ],
      "name": "NWAS 111"
    }
  }, {
    "fullUrl": "urn:uuid:742fea76-b361-409f-8831-a086dd0488d8",
    "resource": {
      "resourceType": "Practitioner",
      "id": "742fea76-b361-409f-8831-a086dd0488d8",
      "active": true,
      "name": [ {
        "text": "AndrewJ.Walford"
      } ]
    }
  }, {
    "fullUrl": "urn:uuid:4693df66-965f-4387-bf93-0dc2168932a9",
    "resource": {
      "resourceType": "Location",
      "id": "4693df66-965f-4387-bf93-0dc2168932a9",
      "managingOrganization": {
        "reference": "urn:uuid:413941ed-6476-4994-86dd-8e8fe090ee6f"
      }
    }
  }, {
    "fullUrl": "urn:uuid:413941ed-6476-4994-86dd-8e8fe090ee6f",
    "resource": {
      "resourceType": "Organization",
      "id": "413941ed-6476-4994-86dd-8e8fe090ee6f",
      "identifier": [ {
        "value": "A82018"
      } ],
      "type": [ {
        "text": "GP Practice"
      } ],
      "name": "Spencer St Surgery",
      "telecom": [ {
        "system": "phone",
        "value": "tel:01228529171",
        "use": "work"
      } ],
      "address": [ {
        "use": "work",
        "line": [ "Spencer Street Surgery", "10 Spencer Street", "Carlisle" ],
        "postalCode": "CA1 1BP"
      } ]
    }
  }, {
    "fullUrl": "urn:uuid:cbc9ccdf-4219-41d0-b2d7-44107262a1d2",
    "resource": {
      "resourceType": "Location",
      "id": "cbc9ccdf-4219-41d0-b2d7-44107262a1d2",
      "address": {
        "type": "physical",
        "line": [ "North West Ambulance Service Nhs Trust Salkeld Hall", "Infirmary Street", "Carlisle" ],
        "postalCode": "CA2 7AN"
      }
    }
  }, {
    "fullUrl": "urn:uuid:ef0e53a0-acfd-4e00-838b-a90b5e2a9740",
    "resource": {
      "resourceType": "Patient",
      "id": "ef0e53a0-acfd-4e00-838b-a90b5e2a9740",
      "active": true,
      "name": [ {
        "use": "official",
        "family": "Please Disregard",
        "given": [ "Dx09 Test" ]
      } ],
      "telecom": [ {
        "system": "phone",
        "value": "tel:07798501130",
        "use": "mobile"
      }, {
        "system": "phone",
        "value": "tel:07798501130"
      } ],
      "gender": "male",
      "birthDate": "1980-01-01",
      "address": [ {
        "use": "home",
        "line": [ "North West Ambulance Service Nhs Trust Salkeld Hall", "Infirmary Street", "Carlisle" ],
        "postalCode": "CA2 7AN"
      }, {
        "type": "physical",
        "line": [ "North West Ambulance Service Nhs Trust Salkeld Hall", "Infirmary Street", "Carlisle" ],
        "postalCode": "CA2 7AN"
      } ],
      "generalPractitioner": [ {
        "reference": "urn:uuid:2df270ae-0ed9-4202-ba2c-c09311c96416"
      } ]
    }
  }, {
    "fullUrl": "urn:uuid:2df270ae-0ed9-4202-ba2c-c09311c96416",
    "resource": {
      "resourceType": "Organization",
      "id": "2df270ae-0ed9-4202-ba2c-c09311c96416",
      "identifier": [ {
        "value": "A82018"
      } ],
      "type": [ {
        "text": "GP Practice"
      } ],
      "name": "Spencer St Surgery",
      "telecom": [ {
        "system": "phone",
        "value": "tel:01228529171",
        "use": "work"
      } ],
      "address": [ {
        "use": "work",
        "line": [ "Spencer Street Surgery", "10 Spencer Street", "Carlisle" ],
        "postalCode": "CA1 1BP"
      } ]
    }
  }, {
    "fullUrl": "urn:uuid:1661e619-c9cf-4f9d-bae7-e3590acd3b92",
    "resource": {
      "resourceType": "HealthcareService",
      "id": "1661e619-c9cf-4f9d-bae7-e3590acd3b92",
      "active": true,
      "providedBy": {
        "reference": "urn:uuid:71310641-ac3f-4e34-bc51-6da0702d403e"
      },
      "location": [ {
        "reference": "urn:uuid:000363b0-2e8b-4a41-b5d3-51fdc3680c02"
      } ],
      "name": "Spencer St Surgery",
      "telecom": [ {
        "system": "phone",
        "value": "tel:01228529171",
        "use": "work"
      } ]
    }
  }, {
    "fullUrl": "urn:uuid:000363b0-2e8b-4a41-b5d3-51fdc3680c02",
    "resource": {
      "resourceType": "Location",
      "id": "000363b0-2e8b-4a41-b5d3-51fdc3680c02",
      "telecom": [ {
        "system": "phone",
        "value": "tel:01228529171",
        "use": "work"
      } ],
      "address": {
        "use": "work",
        "line": [ "Spencer Street Surgery", "10 Spencer Street", "Carlisle" ],
        "postalCode": "CA1 1BP"
      },
      "managingOrganization": {
        "reference": "urn:uuid:71310641-ac3f-4e34-bc51-6da0702d403e"
      }
    }
  }, {
    "fullUrl": "urn:uuid:71310641-ac3f-4e34-bc51-6da0702d403e",
    "resource": {
      "resourceType": "Organization",
      "id": "71310641-ac3f-4e34-bc51-6da0702d403e",
      "identifier": [ {
        "value": "A82018"
      } ],
      "type": [ {
        "coding": [ {
          "code": "PRCP",
          "display": "Spencer St Surgery"
        } ]
      } ],
      "name": "Spencer St Surgery"
    }
  }, {
    "fullUrl": "urn:uuid:88df596c-7cbc-4505-b839-6a54bd4652be",
    "resource": {
      "resourceType": "ReferralRequest",
      "id": "88df596c-7cbc-4505-b839-6a54bd4652be",
      "status": "active",
      "intent": "plan",
      "priority": "routine",
      "subject": {
        "reference": "urn:uuid:ef0e53a0-acfd-4e00-838b-a90b5e2a9740"
      },
      "context": {
        "reference": "urn:uuid:71051f60-fe46-4bff-ab85-d9cd7e9f265e"
      },
      "occurrencePeriod": {
        "start": "2021-08-03T13:07:14+00:00"
      },
      "authoredOn": "2021-08-03T12:36:56+00:00",
      "requester": {
        "agent": {
          "reference": "urn:uuid:f6af5c8d-9497-4235-95ad-aef276468378"
        },
        "onBehalfOf": {
          "reference": "urn:uuid:fa731c45-7655-45c2-8e2d-8b9b33e0d1fc"
        }
      },
      "recipient": [ {
        "reference": "urn:uuid:b50f36a1-8f77-48a1-a436-601149b4b2f6"
      }, {
        "reference": "urn:uuid:1661e619-c9cf-4f9d-bae7-e3590acd3b92"
      } ],
      "reasonReference": [ {
        "reference": "urn:uuid:9954b033-ad46-4031-ae6b-f524c1893be5"
      } ],
      "supportingInfo": [ {
        "reference": "urn:uuid:943e9da5-92a9-4213-8d0b-945769878258"
      } ]
    }
  }, {
    "fullUrl": "urn:uuid:943e9da5-92a9-4213-8d0b-945769878258",
    "resource": {
      "resourceType": "ProcedureRequest",
      "id": "943e9da5-92a9-4213-8d0b-945769878258",
      "status": "active",
      "intent": "plan",
      "priority": "routine",
      "doNotPerform": false,
      "code": {
        "coding": [ {
          "system": "2.16.840.1.113883.2.1.3.2.4.17.325",
          "code": "Dx09",
          "display": "For Persistent Or Recurrent Symptoms: Get In Touch With A Local Service For A Non-urgent Appointment"
        } ]
      },
      "subject": {
        "reference": "urn:uuid:ef0e53a0-acfd-4e00-838b-a90b5e2a9740"
      },
      "occurrencePeriod": {
        "start": "2021-08-03T13:07:14+00:00"
      },
      "reasonReference": [ {
        "reference": "urn:uuid:9954b033-ad46-4031-ae6b-f524c1893be5"
      } ]
    }
  }, {
    "fullUrl": "urn:uuid:b50f36a1-8f77-48a1-a436-601149b4b2f6",
    "resource": {
      "resourceType": "Practitioner",
      "id": "b50f36a1-8f77-48a1-a436-601149b4b2f6",
      "active": true,
      "address": [ {
        "type": "physical",
        "line": [ "Spencer Street Surgery", "Spencer Street", "Carlisle" ],
        "postalCode": "CA1 1BP"
      } ]
    }
  }, {
    "fullUrl": "urn:uuid:034e6d3c-2449-4dac-8881-3d5c2f5d5fa2",
    "resource": {
      "resourceType": "Composition",
      "id": "034e6d3c-2449-4dac-8881-3d5c2f5d5fa2",
      "identifier": {
        "use": "usual",
        "value": "B5A4AC85-5A10-4D08-B956-83421A24BB81"
      },
      "status": "final",
      "type": {
        "coding": [ {
          "system": "http://snomed.info/sct",
          "code": "371531000",
          "display": "Report of clinical encounter (record artifact)"
        } ]
      },
      "subject": {
        "reference": "urn:uuid:ef0e53a0-acfd-4e00-838b-a90b5e2a9740"
      },
      "encounter": {
        "reference": "urn:uuid:71051f60-fe46-4bff-ab85-d9cd7e9f265e"
      },
      "date": "2021-08-03T13:07:14+00:00",
      "author": [ {
        "reference": "urn:uuid:742fea76-b361-409f-8831-a086dd0488d8"
      } ],
      "title": "111 Report",
      "confidentiality": "N",
      "section": [ {
        "section": [ {
          "title": "Patient's Reported Condition",
          "text": {
            "status": "generated",
            "div": "<div xmlns=\"http://www.w3.org/1999/xhtml\">**test From Nwas111 - No Action Required - Please Disregard Test</div>"
          }
        }, {
          "title": "Case Summary",
          "text": {
            "status": "generated",
            "div": "<div xmlns=\"http://www.w3.org/1999/xhtml\">&lt;content styleCode=&quot;bold&quot;&gt;Pathways Disposition: Dx09&lt;/content&gt;\n                                                    &lt;br/&gt;\n                                                    &lt;content&gt;For Persistent Or Recurrent Symptoms: Get In Touch With A Local Service For A Non-urgent Appointment&lt;/content&gt;\n                                                    &lt;br/&gt;\n                                                    &lt;br/&gt;\n                                                    &lt;content styleCode=&quot;bold&quot;&gt;Consultation Summary:&lt;/content&gt;\n                                                    &lt;br/&gt;\n                                                    &lt;content&gt;Illness - '**Test From NWAS111 - No Action required - Please Disregard Test case**'&lt;/content&gt;\n                                                    &lt;br/&gt;\n                                                    &lt;content&gt;Warm to touch&lt;/content&gt;\n                                                    &lt;br/&gt;\n                                                    &lt;content&gt;Head lice&lt;/content&gt;\n                                                    &lt;br/&gt;\n                                                    &lt;content&gt;Head lice contact&lt;/content&gt;\n                                                    &lt;br/&gt;\n                                                    &lt;content&gt;Recent sudden loss of clumps of hair&lt;/content&gt;\n                                                    &lt;br/&gt;\n                                                    &lt;br/&gt;\n                                                    &lt;content styleCode=&quot;bold&quot;&gt;Pathways Assessment:&lt;/content&gt;\n                                                    &lt;br/&gt;\n                                                    &lt;content&gt;An injury or health problem was the reason for the contact.&lt;/content&gt;\n                                                    &lt;br/&gt;\n                                                    &lt;content&gt;User comment - '**Test From NWAS111 - No Action required - Please Disregard Test case**'&lt;/content&gt;\n                                                    &lt;br/&gt;\n                                                    &lt;content&gt;Heavy bleeding had not occurred in the previous 2 hours.&lt;/content&gt;\n                                                    &lt;br/&gt;\n                                                    &lt;content&gt;An illness or health problem was the main problem.&lt;/content&gt;\n                                                    &lt;br/&gt;\n                                                    &lt;content&gt;User comment - '**Test From NWAS111 - No Action required - Please Disregard Test case**'&lt;/content&gt;\n                                                    &lt;br/&gt;\n                                                    &lt;content&gt;The individual was not fighting for breath.&lt;/content&gt;\n                                                    &lt;br/&gt;\n                                                    &lt;content&gt;The main reason for the assessment was not an allergic reaction, heart attack, chest/upper back pain, probable stroke, recent fit/seizure or suicide attempt.&lt;/content&gt;\n                                                    &lt;br/&gt;\n                                                    &lt;content&gt;The main reason for contact was not new confusion, declared diabetic hypo/hyperglycaemia, or ICD shock.&lt;/content&gt;\n                                                    &lt;br/&gt;\n                                                    &lt;content&gt;The skin on the torso felt normal, warm or hot.&lt;/content&gt;\n                                                    &lt;br/&gt;\n                                                    &lt;content&gt;Pathway selected - Skin Problems&lt;/content&gt;\n                                                    &lt;br/&gt;\n                                                    &lt;content&gt;The main problem was not a rash, itch, jaundice, skin lumps or abnormal bruising.&lt;/content&gt;\n                                                    &lt;br/&gt;\n                                                    &lt;content&gt;The main problem was head lice.&lt;/content&gt;\n                                                    &lt;br/&gt;\n                                                    &lt;content&gt;There had been contact with somebody with head lice.&lt;/content&gt;\n                                                    &lt;br/&gt;\n                                                    &lt;content&gt;There was recent patchy hair loss.&lt;/content&gt;\n                                                    &lt;br/&gt;\n                                                    &lt;content&gt;User comment - 'GP - Spencer Street Surgery - Cumbria (Home GP)'&lt;/content&gt;\n                                                    &lt;br/&gt;\n                                                    &lt;br/&gt;\n                                                    &lt;content styleCode=&quot;bold&quot;&gt;Advice Given:&lt;/content&gt;\n                                                    &lt;br/&gt;\n                                                    &lt;content&gt;Head lice is common. Speak to a pharmacist for advice on suitable treatments.&lt;/content&gt;\n                                                    &lt;br/&gt;\n                                                    &lt;br/&gt;</div>"
          }
        } ]
      }, {
        "title": "ReferralRequest",
        "entry": [ {
          "reference": "urn:uuid:88df596c-7cbc-4505-b839-6a54bd4652be"
        } ]
      }, {
        "title": "QuestionnaireResponse",
        "entry": [ {
          "reference": "urn:uuid:99bd5d9b-1a33-4192-b0b9-6007d5010b91"
        } ]
      }, {
        "title": "QuestionnaireResponse",
        "entry": [ {
          "reference": "urn:uuid:b8918de3-869a-448d-8731-4cdc59edc670"
        } ]
      }, {
        "title": "QuestionnaireResponse",
        "entry": [ {
          "reference": "urn:uuid:fa30f308-a39d-42d4-b2ce-fec49345436f"
        } ]
      }, {
        "title": "QuestionnaireResponse",
        "entry": [ {
          "reference": "urn:uuid:028a195e-acd0-45e9-9ae4-ddb53d2f4b1d"
        } ]
      }, {
        "title": "QuestionnaireResponse",
        "entry": [ {
          "reference": "urn:uuid:d4fe55af-9a3e-4527-b173-3c5fa47466d3"
        } ]
      }, {
        "title": "QuestionnaireResponse",
        "entry": [ {
          "reference": "urn:uuid:997e4545-0a42-4d47-ab90-198d90fb51fa"
        } ]
      }, {
        "title": "QuestionnaireResponse",
        "entry": [ {
          "reference": "urn:uuid:10fa2165-0b0c-473d-9a01-f5187a885721"
        } ]
      }, {
        "title": "QuestionnaireResponse",
        "entry": [ {
          "reference": "urn:uuid:c3c4b12d-5e90-4099-8988-cc46b4538033"
        } ]
      }, {
        "title": "QuestionnaireResponse",
        "entry": [ {
          "reference": "urn:uuid:8c10ac91-a8a9-44e6-8e98-4f5f3f754efb"
        } ]
      }, {
        "title": "QuestionnaireResponse",
        "entry": [ {
          "reference": "urn:uuid:1055825e-702a-45ca-86f7-6b3990aede0c"
        } ]
      }, {
        "title": "QuestionnaireResponse",
        "entry": [ {
          "reference": "urn:uuid:61f94696-ed70-4209-af4e-c4b7dfac33fe"
        } ]
      }, {
        "title": "QuestionnaireResponse",
        "entry": [ {
          "reference": "urn:uuid:19d1edfd-0537-462c-9690-b31efd539807"
        } ]
      }, {
        "title": "QuestionnaireResponse",
        "entry": [ {
          "reference": "urn:uuid:f682389d-25e4-42b9-a830-ef2bdbdfd19b"
        } ]
      }, {
        "title": "QuestionnaireResponse",
        "entry": [ {
          "reference": "urn:uuid:13d9ea36-1894-48e4-aab1-4cbe06c05eae"
        } ]
      }, {
        "title": "QuestionnaireResponse",
        "entry": [ {
          "reference": "urn:uuid:ec8a0855-0ac2-4fc3-ae00-1739954e75a6"
        } ]
      }, {
        "title": "QuestionnaireResponse",
        "entry": [ {
          "reference": "urn:uuid:0fe096c9-aa19-469f-abf8-d2c17c4dc31a"
        } ]
      }, {
        "title": "QuestionnaireResponse",
        "entry": [ {
          "reference": "urn:uuid:36df4041-51be-42cc-9a31-c34456775b7a"
        } ]
      }, {
        "title": "QuestionnaireResponse",
        "entry": [ {
          "reference": "urn:uuid:afbabda3-c8d4-40b8-9c3c-9e38c242c8a6"
        } ]
      }, {
        "title": "QuestionnaireResponse",
        "entry": [ {
          "reference": "urn:uuid:567d7e4a-b3f3-44cb-86d4-ba6695c7603c"
        } ]
      }, {
        "title": "QuestionnaireResponse",
        "entry": [ {
          "reference": "urn:uuid:0f823ae0-4de6-499e-b80d-375113445f9c"
        } ]
      }, {
        "title": "QuestionnaireResponse",
        "entry": [ {
          "reference": "urn:uuid:1fbb60fe-b165-4d67-92dd-e557ecc09674"
        } ]
      } ]
    }
  }, {
    "fullUrl": "urn:uuid:3bd8106a-a79f-479b-a56c-b2c6ed300ba6",
    "resource": {
      "resourceType": "Consent",
      "id": "3bd8106a-a79f-479b-a56c-b2c6ed300ba6",
      "identifier": {
        "use": "usual",
        "value": "B5A4AC85-5A10-4D08-B956-83421A24BB81"
      },
      "status": "active",
      "patient": {
        "reference": "urn:uuid:ef0e53a0-acfd-4e00-838b-a90b5e2a9740"
      },
      "period": {
        "start": "2021-08-03T12:36:56+00:00",
        "end": "2021-08-03T13:07:14+00:00"
      },
      "consentingParty": [ {
        "reference": "urn:uuid:ef0e53a0-acfd-4e00-838b-a90b5e2a9740"
      } ],
      "action": [ {
        "coding": [ {
          "system": "http://snomed.info/sct",
          "code": "425691002",
          "display": "Consent given for electronic record sharing"
        } ],
        "text": "Consent given for electronic record sharing"
      } ],
      "organization": [ {
        "reference": "urn:uuid:fa731c45-7655-45c2-8e2d-8b9b33e0d1fc"
      } ],
      "policyRule": "http://hl7.org/fhir/ConsentPolicy/opt-out",
      "data": [ {
        "meaning": "related",
        "reference": {
          "reference": "urn:uuid:71051f60-fe46-4bff-ab85-d9cd7e9f265e"
        }
      } ]
    }
  }, {
    "fullUrl": "urn:uuid:9954b033-ad46-4031-ae6b-f524c1893be5",
    "resource": {
      "resourceType": "Condition",
      "id": "9954b033-ad46-4031-ae6b-f524c1893be5",
      "clinicalStatus": "active",
      "verificationStatus": "unknown",
      "subject": {
        "reference": "urn:uuid:ef0e53a0-acfd-4e00-838b-a90b5e2a9740"
      },
      "context": {
        "reference": "urn:uuid:71051f60-fe46-4bff-ab85-d9cd7e9f265e"
      },
      "evidence": [ {
        "detail": [ {
          "reference": "urn:uuid:99bd5d9b-1a33-4192-b0b9-6007d5010b91"
        } ]
      }, {
        "detail": [ {
          "reference": "urn:uuid:b8918de3-869a-448d-8731-4cdc59edc670"
        } ]
      }, {
        "detail": [ {
          "reference": "urn:uuid:fa30f308-a39d-42d4-b2ce-fec49345436f"
        } ]
      }, {
        "detail": [ {
          "reference": "urn:uuid:028a195e-acd0-45e9-9ae4-ddb53d2f4b1d"
        } ]
      }, {
        "detail": [ {
          "reference": "urn:uuid:d4fe55af-9a3e-4527-b173-3c5fa47466d3"
        } ]
      }, {
        "detail": [ {
          "reference": "urn:uuid:997e4545-0a42-4d47-ab90-198d90fb51fa"
        } ]
      }, {
        "detail": [ {
          "reference": "urn:uuid:10fa2165-0b0c-473d-9a01-f5187a885721"
        } ]
      }, {
        "detail": [ {
          "reference": "urn:uuid:c3c4b12d-5e90-4099-8988-cc46b4538033"
        } ]
      }, {
        "detail": [ {
          "reference": "urn:uuid:8c10ac91-a8a9-44e6-8e98-4f5f3f754efb"
        } ]
      }, {
        "detail": [ {
          "reference": "urn:uuid:1055825e-702a-45ca-86f7-6b3990aede0c"
        } ]
      }, {
        "detail": [ {
          "reference": "urn:uuid:61f94696-ed70-4209-af4e-c4b7dfac33fe"
        } ]
      }, {
        "detail": [ {
          "reference": "urn:uuid:19d1edfd-0537-462c-9690-b31efd539807"
        } ]
      }, {
        "detail": [ {
          "reference": "urn:uuid:f682389d-25e4-42b9-a830-ef2bdbdfd19b"
        } ]
      }, {
        "detail": [ {
          "reference": "urn:uuid:13d9ea36-1894-48e4-aab1-4cbe06c05eae"
        } ]
      }, {
        "detail": [ {
          "reference": "urn:uuid:ec8a0855-0ac2-4fc3-ae00-1739954e75a6"
        } ]
      }, {
        "detail": [ {
          "reference": "urn:uuid:0fe096c9-aa19-469f-abf8-d2c17c4dc31a"
        } ]
      }, {
        "detail": [ {
          "reference": "urn:uuid:36df4041-51be-42cc-9a31-c34456775b7a"
        } ]
      }, {
        "detail": [ {
          "reference": "urn:uuid:afbabda3-c8d4-40b8-9c3c-9e38c242c8a6"
        } ]
      }, {
        "detail": [ {
          "reference": "urn:uuid:567d7e4a-b3f3-44cb-86d4-ba6695c7603c"
        } ]
      }, {
        "detail": [ {
          "reference": "urn:uuid:0f823ae0-4de6-499e-b80d-375113445f9c"
        } ]
      }, {
        "detail": [ {
          "reference": "urn:uuid:1fbb60fe-b165-4d67-92dd-e557ecc09674"
        } ]
      } ]
    }
  }, {
    "fullUrl": "urn:uuid:99bd5d9b-1a33-4192-b0b9-6007d5010b91",
    "resource": {
      "resourceType": "QuestionnaireResponse",
      "id": "99bd5d9b-1a33-4192-b0b9-6007d5010b91",
      "identifier": {
        "value": "1766759"
      },
      "questionnaire": {
        "reference": "urn:uuid:b761cbb0-6ebf-4031-9b49-f46484f0f0d4"
      },
      "status": "completed",
      "subject": {
        "reference": "urn:uuid:ef0e53a0-acfd-4e00-838b-a90b5e2a9740"
      },
      "context": {
        "reference": "urn:uuid:71051f60-fe46-4bff-ab85-d9cd7e9f265e"
      },
      "authored": "2021-08-03T13:07:14+00:00",
      "item": [ {
        "linkId": "Tx220109",
        "text": "What is the reason for the contact?",
        "answer": [ {
          "valueString": "an injury or other health problem"
        } ]
      } ]
    }
  }, {
    "fullUrl": "urn:uuid:b761cbb0-6ebf-4031-9b49-f46484f0f0d4",
    "resource": {
      "resourceType": "Questionnaire",
      "id": "b761cbb0-6ebf-4031-9b49-f46484f0f0d4",
      "identifier": [ {
        "value": "1766759"
      } ],
      "version": "2021-08-03T13:07:14.000Z",
      "status": "active",
      "experimental": false,
      "date": "2021-08-03T13:07:14+00:00",
      "publisher": "User ID: '922' User name: 'AndrewJ.Walford' User skill set: 'T4'",
      "lastReviewDate": "2021-08-03",
      "contact": [ {
        "telecom": [ {
          "system": "phone",
          "value": "07798501130"
        } ]
      } ],
      "subjectType": [ "Patient" ],
      "item": [ {
        "linkId": "1766759",
        "prefix": "5",
        "text": "What is the reason for the contact?",
        "type": "choice",
        "required": true,
        "repeats": false,
        "option": [ {
          "valueString": "an injury or other health problem, Selected: true"
        }, {
          "valueString": "a need to access another healthcare service, Selected: false"
        }, {
          "valueString": "a healthcare professional requesting contact with another clinician, Selected: false"
        }, {
          "valueString": "a report of results or tests, Selected: false"
        }, {
          "valueString": "more, Selected: false"
        } ]
      } ]
    }
  }, {
    "fullUrl": "urn:uuid:b8918de3-869a-448d-8731-4cdc59edc670",
    "resource": {
      "resourceType": "QuestionnaireResponse",
      "id": "b8918de3-869a-448d-8731-4cdc59edc670",
      "identifier": {
        "value": "1766759"
      },
      "questionnaire": {
        "reference": "urn:uuid:841dedca-1a36-403d-bfb5-6cb17f7164d0"
      },
      "status": "completed",
      "subject": {
        "reference": "urn:uuid:ef0e53a0-acfd-4e00-838b-a90b5e2a9740"
      },
      "context": {
        "reference": "urn:uuid:71051f60-fe46-4bff-ab85-d9cd7e9f265e"
      },
      "authored": "2021-08-03T13:07:14+00:00",
      "item": [ {
        "linkId": "Tx221788",
        "text": "STRING:to'ImmediateThreatsToLife(SPA/OOHversion)'-'ABC'menu",
        "answer": [ {
          "valueString": "\"\"present\"\""
        } ]
      } ]
    }
  }, {
    "fullUrl": "urn:uuid:841dedca-1a36-403d-bfb5-6cb17f7164d0",
    "resource": {
      "resourceType": "Questionnaire",
      "id": "841dedca-1a36-403d-bfb5-6cb17f7164d0",
      "identifier": [ {
        "value": "1766759"
      } ],
      "version": "2021-08-03T13:07:14.000Z",
      "status": "active",
      "experimental": false,
      "date": "2021-08-03T13:07:14+00:00",
      "publisher": "User ID: '922' User name: 'AndrewJ.Walford' User skill set: 'T4'",
      "lastReviewDate": "2021-08-03",
      "contact": [ {
        "telecom": [ {
          "system": "phone",
          "value": "07798501130"
        } ]
      } ],
      "subjectType": [ "Patient" ],
      "item": [ {
        "linkId": "1766759",
        "prefix": "500",
        "text": "STRING:to'ImmediateThreatsToLife(SPA/OOHversion)'-'ABC'menu",
        "type": "choice",
        "required": true,
        "repeats": false,
        "option": [ {
          "valueString": "\"\"present\"\", Selected: true"
        } ]
      } ]
    }
  }, {
    "fullUrl": "urn:uuid:fa30f308-a39d-42d4-b2ce-fec49345436f",
    "resource": {
      "resourceType": "QuestionnaireResponse",
      "id": "fa30f308-a39d-42d4-b2ce-fec49345436f",
      "identifier": {
        "value": "1766759"
      },
      "questionnaire": {
        "reference": "urn:uuid:181ec214-876d-4f39-8dc3-caf947a263cb"
      },
      "status": "completed",
      "subject": {
        "reference": "urn:uuid:ef0e53a0-acfd-4e00-838b-a90b5e2a9740"
      },
      "context": {
        "reference": "urn:uuid:71051f60-fe46-4bff-ab85-d9cd7e9f265e"
      },
      "authored": "2021-08-03T13:07:14+00:00",
      "item": [ {
        "linkId": "Tx221814",
        "text": "STRING:aninjuryorotherhealthproblemestablishedinEntryFlow",
        "answer": [ {
          "valueString": "\"\"present\"\""
        } ]
      } ]
    }
  }, {
    "fullUrl": "urn:uuid:181ec214-876d-4f39-8dc3-caf947a263cb",
    "resource": {
      "resourceType": "Questionnaire",
      "id": "181ec214-876d-4f39-8dc3-caf947a263cb",
      "identifier": [ {
        "value": "1766759"
      } ],
      "version": "2021-08-03T13:07:14.000Z",
      "status": "active",
      "experimental": false,
      "date": "2021-08-03T13:07:14+00:00",
      "publisher": "User ID: '922' User name: 'AndrewJ.Walford' User skill set: 'T4'",
      "lastReviewDate": "2021-08-03",
      "contact": [ {
        "telecom": [ {
          "system": "phone",
          "value": "07798501130"
        } ]
      } ],
      "subjectType": [ "Patient" ],
      "item": [ {
        "linkId": "1766759",
        "prefix": "0",
        "text": "STRING:aninjuryorotherhealthproblemestablishedinEntryFlow",
        "type": "choice",
        "required": true,
        "repeats": false,
        "option": [ {
          "valueString": "\"\"present\"\", Selected: true"
        } ]
      } ]
    }
  }, {
    "fullUrl": "urn:uuid:028a195e-acd0-45e9-9ae4-ddb53d2f4b1d",
    "resource": {
      "resourceType": "QuestionnaireResponse",
      "id": "028a195e-acd0-45e9-9ae4-ddb53d2f4b1d",
      "identifier": {
        "value": "1766759"
      },
      "questionnaire": {
        "reference": "urn:uuid:e3455c10-9578-4a49-8750-fc62d4bc4cc3"
      },
      "status": "completed",
      "subject": {
        "reference": "urn:uuid:ef0e53a0-acfd-4e00-838b-a90b5e2a9740"
      },
      "context": {
        "reference": "urn:uuid:71051f60-fe46-4bff-ab85-d9cd7e9f265e"
      },
      "authored": "2021-08-03T13:07:14+00:00",
      "item": [ {
        "linkId": "Tx224120",
        "text": "Have you been bleeding RED BLOOD very heavily IN THE LAST 2 HOURS?",
        "answer": [ {
          "valueString": "no"
        } ]
      } ]
    }
  }, {
    "fullUrl": "urn:uuid:e3455c10-9578-4a49-8750-fc62d4bc4cc3",
    "resource": {
      "resourceType": "Questionnaire",
      "id": "e3455c10-9578-4a49-8750-fc62d4bc4cc3",
      "identifier": [ {
        "value": "1766759"
      } ],
      "version": "2021-08-03T13:07:14.000Z",
      "status": "active",
      "experimental": false,
      "date": "2021-08-03T13:07:14+00:00",
      "publisher": "User ID: '922' User name: 'AndrewJ.Walford' User skill set: 'T4'",
      "lastReviewDate": "2021-08-03",
      "contact": [ {
        "telecom": [ {
          "system": "phone",
          "value": "07798501130"
        } ]
      } ],
      "subjectType": [ "Patient" ],
      "item": [ {
        "linkId": "1766759",
        "prefix": "7000",
        "text": "Have you been bleeding RED BLOOD very heavily IN THE LAST 2 HOURS?",
        "type": "choice",
        "required": true,
        "repeats": false,
        "option": [ {
          "valueString": "yes, Selected: false"
        }, {
          "valueString": "not sure, Selected: false"
        }, {
          "valueString": "no, Selected: true"
        } ]
      } ]
    }
  }, {
    "fullUrl": "urn:uuid:d4fe55af-9a3e-4527-b173-3c5fa47466d3",
    "resource": {
      "resourceType": "QuestionnaireResponse",
      "id": "d4fe55af-9a3e-4527-b173-3c5fa47466d3",
      "identifier": {
        "value": "1766759"
      },
      "questionnaire": {
        "reference": "urn:uuid:bac83e3c-a1a9-4363-9c19-73cf7ff0cc73"
      },
      "status": "completed",
      "subject": {
        "reference": "urn:uuid:ef0e53a0-acfd-4e00-838b-a90b5e2a9740"
      },
      "context": {
        "reference": "urn:uuid:71051f60-fe46-4bff-ab85-d9cd7e9f265e"
      },
      "authored": "2021-08-03T13:07:14+00:00",
      "item": [ {
        "linkId": "Tx221343",
        "text": "SocialConcernsExcluded",
        "answer": [ {
          "valueString": "*"
        } ]
      } ]
    }
  }, {
    "fullUrl": "urn:uuid:bac83e3c-a1a9-4363-9c19-73cf7ff0cc73",
    "resource": {
      "resourceType": "Questionnaire",
      "id": "bac83e3c-a1a9-4363-9c19-73cf7ff0cc73",
      "identifier": [ {
        "value": "1766759"
      } ],
      "version": "2021-08-03T13:07:14.000Z",
      "status": "active",
      "experimental": false,
      "date": "2021-08-03T13:07:14+00:00",
      "publisher": "User ID: '922' User name: 'AndrewJ.Walford' User skill set: 'T4'",
      "lastReviewDate": "2021-08-03",
      "contact": [ {
        "telecom": [ {
          "system": "phone",
          "value": "07798501130"
        } ]
      } ],
      "subjectType": [ "Patient" ],
      "item": [ {
        "linkId": "1766759",
        "prefix": "2700",
        "text": "SocialConcernsExcluded",
        "type": "choice",
        "required": true,
        "repeats": false,
        "option": [ {
          "valueString": "==\"\"present\"\", Selected: false"
        }, {
          "valueString": "*, Selected: true"
        } ]
      } ]
    }
  }, {
    "fullUrl": "urn:uuid:997e4545-0a42-4d47-ab90-198d90fb51fa",
    "resource": {
      "resourceType": "QuestionnaireResponse",
      "id": "997e4545-0a42-4d47-ab90-198d90fb51fa",
      "identifier": {
        "value": "1766759"
      },
      "questionnaire": {
        "reference": "urn:uuid:5cc8ce32-5a1c-4492-96e4-883d2e52ef35"
      },
      "status": "completed",
      "subject": {
        "reference": "urn:uuid:ef0e53a0-acfd-4e00-838b-a90b5e2a9740"
      },
      "context": {
        "reference": "urn:uuid:71051f60-fe46-4bff-ab85-d9cd7e9f265e"
      },
      "authored": "2021-08-03T13:07:14+00:00",
      "item": [ {
        "linkId": "Tx130011",
        "text": "What is the main problem?",
        "answer": [ {
          "valueString": "illness or other health problem (specify)"
        } ]
      } ]
    }
  }, {
    "fullUrl": "urn:uuid:5cc8ce32-5a1c-4492-96e4-883d2e52ef35",
    "resource": {
      "resourceType": "Questionnaire",
      "id": "5cc8ce32-5a1c-4492-96e4-883d2e52ef35",
      "identifier": [ {
        "value": "1766759"
      } ],
      "version": "2021-08-03T13:07:14.000Z",
      "status": "active",
      "experimental": false,
      "date": "2021-08-03T13:07:14+00:00",
      "publisher": "User ID: '922' User name: 'AndrewJ.Walford' User skill set: 'T4'",
      "lastReviewDate": "2021-08-03",
      "contact": [ {
        "telecom": [ {
          "system": "phone",
          "value": "07798501130"
        } ]
      } ],
      "subjectType": [ "Patient" ],
      "item": [ {
        "linkId": "1766759",
        "prefix": "3400",
        "text": "What is the main problem?",
        "type": "choice",
        "required": true,
        "repeats": false,
        "option": [ {
          "valueString": "the individual has been told to follow a particular course of action (specify), Selected: false"
        }, {
          "valueString": "the individual is an identified frequent caller, Selected: false"
        }, {
          "valueString": "injury (specify), Selected: false"
        }, {
          "valueString": "illness or other health problem (specify), Selected: true"
        }, {
          "valueString": "child protection/vulnerable adult concern, Selected: false"
        }, {
          "valueString": "social or domestic emergency, Selected: false"
        }, {
          "valueString": "the environment potentially poses an immediate threat to life (specify), Selected: false"
        } ]
      } ]
    }
  }, {
    "fullUrl": "urn:uuid:10fa2165-0b0c-473d-9a01-f5187a885721",
    "resource": {
      "resourceType": "QuestionnaireResponse",
      "id": "10fa2165-0b0c-473d-9a01-f5187a885721",
      "identifier": {
        "value": "1766759"
      },
      "questionnaire": {
        "reference": "urn:uuid:a6f9ca92-45c6-47eb-9315-b489217a8813"
      },
      "status": "completed",
      "subject": {
        "reference": "urn:uuid:ef0e53a0-acfd-4e00-838b-a90b5e2a9740"
      },
      "context": {
        "reference": "urn:uuid:71051f60-fe46-4bff-ab85-d9cd7e9f265e"
      },
      "authored": "2021-08-03T13:07:14+00:00",
      "item": [ {
        "linkId": "Tx61025",
        "text": "Are you so breathless that speaking more than a few words is impossible?",
        "answer": [ {
          "valueString": "no"
        } ]
      } ]
    }
  }, {
    "fullUrl": "urn:uuid:a6f9ca92-45c6-47eb-9315-b489217a8813",
    "resource": {
      "resourceType": "Questionnaire",
      "id": "a6f9ca92-45c6-47eb-9315-b489217a8813",
      "identifier": [ {
        "value": "1766759"
      } ],
      "version": "2021-08-03T13:07:14.000Z",
      "status": "active",
      "experimental": false,
      "date": "2021-08-03T13:07:14+00:00",
      "publisher": "User ID: '922' User name: 'AndrewJ.Walford' User skill set: 'T4'",
      "lastReviewDate": "2021-08-03",
      "contact": [ {
        "telecom": [ {
          "system": "phone",
          "value": "07798501130"
        } ]
      } ],
      "subjectType": [ "Patient" ],
      "item": [ {
        "linkId": "1766759",
        "prefix": "0",
        "text": "Are you so breathless that speaking more than a few words is impossible?",
        "type": "choice",
        "required": true,
        "repeats": false,
        "option": [ {
          "valueString": "yes, Selected: false"
        }, {
          "valueString": "not sure, Selected: false"
        }, {
          "valueString": "no, Selected: true"
        } ]
      } ]
    }
  }, {
    "fullUrl": "urn:uuid:c3c4b12d-5e90-4099-8988-cc46b4538033",
    "resource": {
      "resourceType": "QuestionnaireResponse",
      "id": "c3c4b12d-5e90-4099-8988-cc46b4538033",
      "identifier": {
        "value": "1766759"
      },
      "questionnaire": {
        "reference": "urn:uuid:e714e3b9-cd1f-48a4-81f3-85d45ea79fb5"
      },
      "status": "completed",
      "subject": {
        "reference": "urn:uuid:ef0e53a0-acfd-4e00-838b-a90b5e2a9740"
      },
      "context": {
        "reference": "urn:uuid:71051f60-fe46-4bff-ab85-d9cd7e9f265e"
      },
      "authored": "2021-08-03T13:07:14+00:00",
      "item": [ {
        "linkId": "Tx220845",
        "text": "SYSTEM_FLUPANDEMIC",
        "answer": [ {
          "valueString": "*"
        } ]
      } ]
    }
  }, {
    "fullUrl": "urn:uuid:e714e3b9-cd1f-48a4-81f3-85d45ea79fb5",
    "resource": {
      "resourceType": "Questionnaire",
      "id": "e714e3b9-cd1f-48a4-81f3-85d45ea79fb5",
      "identifier": [ {
        "value": "1766759"
      } ],
      "version": "2021-08-03T13:07:14.000Z",
      "status": "active",
      "experimental": false,
      "date": "2021-08-03T13:07:14+00:00",
      "publisher": "User ID: '922' User name: 'AndrewJ.Walford' User skill set: 'T4'",
      "lastReviewDate": "2021-08-03",
      "contact": [ {
        "telecom": [ {
          "system": "phone",
          "value": "07798501130"
        } ]
      } ],
      "subjectType": [ "Patient" ],
      "item": [ {
        "linkId": "1766759",
        "prefix": "100",
        "text": "SYSTEM_FLUPANDEMIC",
        "type": "choice",
        "required": true,
        "repeats": false,
        "option": [ {
          "valueString": "==\"\"pandemic\"\", Selected: false"
        }, {
          "valueString": "*, Selected: true"
        } ]
      } ]
    }
  }, {
    "fullUrl": "urn:uuid:8c10ac91-a8a9-44e6-8e98-4f5f3f754efb",
    "resource": {
      "resourceType": "QuestionnaireResponse",
      "id": "8c10ac91-a8a9-44e6-8e98-4f5f3f754efb",
      "identifier": {
        "value": "1766759"
      },
      "questionnaire": {
        "reference": "urn:uuid:054a6230-e575-41cc-9533-368fecf4c8a4"
      },
      "status": "completed",
      "subject": {
        "reference": "urn:uuid:ef0e53a0-acfd-4e00-838b-a90b5e2a9740"
      },
      "context": {
        "reference": "urn:uuid:71051f60-fe46-4bff-ab85-d9cd7e9f265e"
      },
      "authored": "2021-08-03T13:07:14+00:00",
      "item": [ {
        "linkId": "Tx223440",
        "text": "WHAT IS SAID TO BE THE MAIN REASON FOR THIS CONTACT?",
        "answer": [ {
          "valueString": "more"
        } ]
      } ]
    }
  }, {
    "fullUrl": "urn:uuid:054a6230-e575-41cc-9533-368fecf4c8a4",
    "resource": {
      "resourceType": "Questionnaire",
      "id": "054a6230-e575-41cc-9533-368fecf4c8a4",
      "identifier": [ {
        "value": "1766759"
      } ],
      "version": "2021-08-03T13:07:14.000Z",
      "status": "active",
      "experimental": false,
      "date": "2021-08-03T13:07:14+00:00",
      "publisher": "User ID: '922' User name: 'AndrewJ.Walford' User skill set: 'T4'",
      "lastReviewDate": "2021-08-03",
      "contact": [ {
        "telecom": [ {
          "system": "phone",
          "value": "07798501130"
        } ]
      } ],
      "subjectType": [ "Patient" ],
      "item": [ {
        "linkId": "1766759",
        "prefix": "5000",
        "text": "WHAT IS SAID TO BE THE MAIN REASON FOR THIS CONTACT?",
        "type": "choice",
        "required": true,
        "repeats": false,
        "option": [ {
          "valueString": "a probable allergic reaction now, Selected: false"
        }, {
          "valueString": "a probable heart attack, Selected: false"
        }, {
          "valueString": "chest or upper back pain, Selected: false"
        }, {
          "valueString": "a probable stroke or mini-stroke, Selected: false"
        }, {
          "valueString": "a probable fit or seizure within the last 12 hours, Selected: false"
        }, {
          "valueString": "a suicide attempt, Selected: false"
        }, {
          "valueString": "more, Selected: true"
        } ]
      } ]
    }
  }, {
    "fullUrl": "urn:uuid:1055825e-702a-45ca-86f7-6b3990aede0c",
    "resource": {
      "resourceType": "QuestionnaireResponse",
      "id": "1055825e-702a-45ca-86f7-6b3990aede0c",
      "identifier": {
        "value": "1766759"
      },
      "questionnaire": {
        "reference": "urn:uuid:da281e29-e3b5-41fc-8b12-fe4eca3208d4"
      },
      "status": "completed",
      "subject": {
        "reference": "urn:uuid:ef0e53a0-acfd-4e00-838b-a90b5e2a9740"
      },
      "context": {
        "reference": "urn:uuid:71051f60-fe46-4bff-ab85-d9cd7e9f265e"
      },
      "authored": "2021-08-03T13:07:14+00:00",
      "item": [ {
        "linkId": "Tx220032",
        "text": "WHAT IS SAID TO BE THE MAIN REASON FOR THIS CONTACT?",
        "answer": [ {
          "valueString": "none of the above"
        } ]
      } ]
    }
  }, {
    "fullUrl": "urn:uuid:da281e29-e3b5-41fc-8b12-fe4eca3208d4",
    "resource": {
      "resourceType": "Questionnaire",
      "id": "da281e29-e3b5-41fc-8b12-fe4eca3208d4",
      "identifier": [ {
        "value": "1766759"
      } ],
      "version": "2021-08-03T13:07:14.000Z",
      "status": "active",
      "experimental": false,
      "date": "2021-08-03T13:07:14+00:00",
      "publisher": "User ID: '922' User name: 'AndrewJ.Walford' User skill set: 'T4'",
      "lastReviewDate": "2021-08-03",
      "contact": [ {
        "telecom": [ {
          "system": "phone",
          "value": "07798501130"
        } ]
      } ],
      "subjectType": [ "Patient" ],
      "item": [ {
        "linkId": "1766759",
        "prefix": "1900",
        "text": "WHAT IS SAID TO BE THE MAIN REASON FOR THIS CONTACT?",
        "type": "choice",
        "required": true,
        "repeats": false,
        "option": [ {
          "valueString": "new confusion now, Selected: false"
        }, {
          "valueString": "a diabetic hypo (low blood sugar) or a diabetic hyper (high blood sugar), Selected: false"
        }, {
          "valueString": "recovery from an ICD (implanted cardioverter defibrillator) shock, Selected: false"
        }, {
          "valueString": "none of the above, Selected: true"
        } ]
      } ]
    }
  }, {
    "fullUrl": "urn:uuid:61f94696-ed70-4209-af4e-c4b7dfac33fe",
    "resource": {
      "resourceType": "QuestionnaireResponse",
      "id": "61f94696-ed70-4209-af4e-c4b7dfac33fe",
      "identifier": {
        "value": "1766759"
      },
      "questionnaire": {
        "reference": "urn:uuid:7c872672-cca3-4a7d-88fc-cf3deb8a728b"
      },
      "status": "completed",
      "subject": {
        "reference": "urn:uuid:ef0e53a0-acfd-4e00-838b-a90b5e2a9740"
      },
      "context": {
        "reference": "urn:uuid:71051f60-fe46-4bff-ab85-d9cd7e9f265e"
      },
      "authored": "2021-08-03T13:07:14+00:00",
      "item": [ {
        "linkId": "Tx223142",
        "text": "Does the skin on the chest, back or abdomen feel a normal temperature?",
        "answer": [ {
          "valueString": "yes - normal, warm or hot"
        } ]
      } ]
    }
  }, {
    "fullUrl": "urn:uuid:7c872672-cca3-4a7d-88fc-cf3deb8a728b",
    "resource": {
      "resourceType": "Questionnaire",
      "id": "7c872672-cca3-4a7d-88fc-cf3deb8a728b",
      "identifier": [ {
        "value": "1766759"
      } ],
      "version": "2021-08-03T13:07:14.000Z",
      "status": "active",
      "experimental": false,
      "date": "2021-08-03T13:07:14+00:00",
      "publisher": "User ID: '922' User name: 'AndrewJ.Walford' User skill set: 'T4'",
      "lastReviewDate": "2021-08-03",
      "contact": [ {
        "telecom": [ {
          "system": "phone",
          "value": "07798501130"
        } ]
      } ],
      "subjectType": [ "Patient" ],
      "item": [ {
        "linkId": "1766759",
        "prefix": "4000",
        "text": "Does the skin on the chest, back or abdomen feel a normal temperature?",
        "type": "choice",
        "required": true,
        "repeats": false,
        "option": [ {
          "valueString": "yes - normal, warm or hot, Selected: true"
        }, {
          "valueString": "not sure, Selected: false"
        }, {
          "valueString": "no - cool OR cold, Selected: false"
        }, {
          "valueString": "not safe to touch, Selected: false"
        } ]
      } ]
    }
  }, {
    "fullUrl": "urn:uuid:19d1edfd-0537-462c-9690-b31efd539807",
    "resource": {
      "resourceType": "QuestionnaireResponse",
      "id": "19d1edfd-0537-462c-9690-b31efd539807",
      "identifier": {
        "value": "1766759"
      },
      "questionnaire": {
        "reference": "urn:uuid:201188c0-e57a-418d-8626-568584a16ac9"
      },
      "status": "completed",
      "subject": {
        "reference": "urn:uuid:ef0e53a0-acfd-4e00-838b-a90b5e2a9740"
      },
      "context": {
        "reference": "urn:uuid:71051f60-fe46-4bff-ab85-d9cd7e9f265e"
      },
      "authored": "2021-08-03T13:07:14+00:00",
      "item": [ {
        "linkId": "Tx221724",
        "text": "STRING:ShockAsked",
        "answer": [ {
          "valueString": "\"\"present\"\""
        } ]
      } ]
    }
  }, {
    "fullUrl": "urn:uuid:201188c0-e57a-418d-8626-568584a16ac9",
    "resource": {
      "resourceType": "Questionnaire",
      "id": "201188c0-e57a-418d-8626-568584a16ac9",
      "identifier": [ {
        "value": "1766759"
      } ],
      "version": "2021-08-03T13:07:14.000Z",
      "status": "active",
      "experimental": false,
      "date": "2021-08-03T13:07:14+00:00",
      "publisher": "User ID: '922' User name: 'AndrewJ.Walford' User skill set: 'T4'",
      "lastReviewDate": "2021-08-03",
      "contact": [ {
        "telecom": [ {
          "system": "phone",
          "value": "07798501130"
        } ]
      } ],
      "subjectType": [ "Patient" ],
      "item": [ {
        "linkId": "1766759",
        "prefix": "3300",
        "text": "STRING:ShockAsked",
        "type": "choice",
        "required": true,
        "repeats": false,
        "option": [ {
          "valueString": "\"\"present\"\", Selected: true"
        } ]
      } ]
    }
  }, {
    "fullUrl": "urn:uuid:f682389d-25e4-42b9-a830-ef2bdbdfd19b",
    "resource": {
      "resourceType": "QuestionnaireResponse",
      "id": "f682389d-25e4-42b9-a830-ef2bdbdfd19b",
      "identifier": {
        "value": "1766759"
      },
      "questionnaire": {
        "reference": "urn:uuid:75998d5f-a767-4e64-baec-fd80321cfbbf"
      },
      "status": "completed",
      "subject": {
        "reference": "urn:uuid:ef0e53a0-acfd-4e00-838b-a90b5e2a9740"
      },
      "context": {
        "reference": "urn:uuid:71051f60-fe46-4bff-ab85-d9cd7e9f265e"
      },
      "authored": "2021-08-03T13:07:14+00:00"
    }
  }, {
    "fullUrl": "urn:uuid:75998d5f-a767-4e64-baec-fd80321cfbbf",
    "resource": {
      "resourceType": "Questionnaire",
      "id": "75998d5f-a767-4e64-baec-fd80321cfbbf",
      "identifier": [ {
        "value": "1766759"
      } ],
      "version": "2021-08-03T13:07:14.000Z",
      "status": "active",
      "experimental": false,
      "date": "2021-08-03T13:07:14+00:00",
      "publisher": "User ID: '922' User name: 'AndrewJ.Walford' User skill set: 'T4'",
      "lastReviewDate": "2021-08-03",
      "contact": [ {
        "telecom": [ {
          "system": "phone",
          "value": "07798501130"
        } ]
      } ],
      "subjectType": [ "Patient" ]
    }
  }, {
    "fullUrl": "urn:uuid:13d9ea36-1894-48e4-aab1-4cbe06c05eae",
    "resource": {
      "resourceType": "QuestionnaireResponse",
      "id": "13d9ea36-1894-48e4-aab1-4cbe06c05eae",
      "identifier": {
        "value": "1766759"
      },
      "questionnaire": {
        "reference": "urn:uuid:ca2043ed-18f0-472f-88e2-e389a22d9cd5"
      },
      "status": "completed",
      "subject": {
        "reference": "urn:uuid:ef0e53a0-acfd-4e00-838b-a90b5e2a9740"
      },
      "context": {
        "reference": "urn:uuid:71051f60-fe46-4bff-ab85-d9cd7e9f265e"
      },
      "authored": "2021-08-03T13:07:14+00:00",
      "item": [ {
        "linkId": "Tx222984",
        "text": "WHAT IS THE MAIN PROBLEM?",
        "answer": [ {
          "valueString": "more"
        } ]
      } ]
    }
  }, {
    "fullUrl": "urn:uuid:ca2043ed-18f0-472f-88e2-e389a22d9cd5",
    "resource": {
      "resourceType": "Questionnaire",
      "id": "ca2043ed-18f0-472f-88e2-e389a22d9cd5",
      "identifier": [ {
        "value": "1766759"
      } ],
      "version": "2021-08-03T13:07:14.000Z",
      "status": "active",
      "experimental": false,
      "date": "2021-08-03T13:07:14+00:00",
      "publisher": "User ID: '922' User name: 'AndrewJ.Walford' User skill set: 'T4'",
      "lastReviewDate": "2021-08-03",
      "contact": [ {
        "telecom": [ {
          "system": "phone",
          "value": "07798501130"
        } ]
      } ],
      "subjectType": [ "Patient" ],
      "item": [ {
        "linkId": "1766759",
        "prefix": "0",
        "text": "WHAT IS THE MAIN PROBLEM?",
        "type": "choice",
        "required": true,
        "repeats": false,
        "option": [ {
          "valueString": "a rash, Selected: false"
        }, {
          "valueString": "itch, Selected: false"
        }, {
          "valueString": "yellow skin, Selected: false"
        }, {
          "valueString": "skin lumps, Selected: false"
        }, {
          "valueString": "easy or unexplained bruising, Selected: false"
        }, {
          "valueString": "more, Selected: true"
        } ]
      } ]
    }
  }, {
    "fullUrl": "urn:uuid:ec8a0855-0ac2-4fc3-ae00-1739954e75a6",
    "resource": {
      "resourceType": "QuestionnaireResponse",
      "id": "ec8a0855-0ac2-4fc3-ae00-1739954e75a6",
      "identifier": {
        "value": "1766759"
      },
      "questionnaire": {
        "reference": "urn:uuid:9e4b37bf-130e-4466-9798-7bd702ee510e"
      },
      "status": "completed",
      "subject": {
        "reference": "urn:uuid:ef0e53a0-acfd-4e00-838b-a90b5e2a9740"
      },
      "context": {
        "reference": "urn:uuid:71051f60-fe46-4bff-ab85-d9cd7e9f265e"
      },
      "authored": "2021-08-03T13:07:14+00:00",
      "item": [ {
        "linkId": "Tx222985",
        "text": "WHAT IS THE MAIN PROBLEM?",
        "answer": [ {
          "valueString": "declared head lice"
        } ]
      } ]
    }
  }, {
    "fullUrl": "urn:uuid:9e4b37bf-130e-4466-9798-7bd702ee510e",
    "resource": {
      "resourceType": "Questionnaire",
      "id": "9e4b37bf-130e-4466-9798-7bd702ee510e",
      "identifier": [ {
        "value": "1766759"
      } ],
      "version": "2021-08-03T13:07:14.000Z",
      "status": "active",
      "experimental": false,
      "date": "2021-08-03T13:07:14+00:00",
      "publisher": "User ID: '922' User name: 'AndrewJ.Walford' User skill set: 'T4'",
      "lastReviewDate": "2021-08-03",
      "contact": [ {
        "telecom": [ {
          "system": "phone",
          "value": "07798501130"
        } ]
      } ],
      "subjectType": [ "Patient" ],
      "item": [ {
        "linkId": "1766759",
        "prefix": "700",
        "text": "WHAT IS THE MAIN PROBLEM?",
        "type": "choice",
        "required": true,
        "repeats": false,
        "option": [ {
          "valueString": "declared head lice, Selected: true"
        }, {
          "valueString": "declared pubic lice, Selected: false"
        }, {
          "valueString": "declared scabies, Selected: false"
        }, {
          "valueString": "declared athlete's foot, Selected: false"
        }, {
          "valueString": "acne, spots or pimples, Selected: false"
        }, {
          "valueString": "more, Selected: false"
        } ]
      } ]
    }
  }, {
    "fullUrl": "urn:uuid:0fe096c9-aa19-469f-abf8-d2c17c4dc31a",
    "resource": {
      "resourceType": "QuestionnaireResponse",
      "id": "0fe096c9-aa19-469f-abf8-d2c17c4dc31a",
      "identifier": {
        "value": "1766759"
      },
      "questionnaire": {
        "reference": "urn:uuid:a4e700bb-64f5-4e1a-a8a4-af54902fceba"
      },
      "status": "completed",
      "subject": {
        "reference": "urn:uuid:ef0e53a0-acfd-4e00-838b-a90b5e2a9740"
      },
      "context": {
        "reference": "urn:uuid:71051f60-fe46-4bff-ab85-d9cd7e9f265e"
      },
      "authored": "2021-08-03T13:07:14+00:00",
      "item": [ {
        "linkId": "Tx220667",
        "text": "Have you been in contact with somebody with head lice or nits?",
        "answer": [ {
          "valueString": "yes"
        } ]
      } ]
    }
  }, {
    "fullUrl": "urn:uuid:a4e700bb-64f5-4e1a-a8a4-af54902fceba",
    "resource": {
      "resourceType": "Questionnaire",
      "id": "a4e700bb-64f5-4e1a-a8a4-af54902fceba",
      "identifier": [ {
        "value": "1766759"
      } ],
      "version": "2021-08-03T13:07:14.000Z",
      "status": "active",
      "experimental": false,
      "date": "2021-08-03T13:07:14+00:00",
      "publisher": "User ID: '922' User name: 'AndrewJ.Walford' User skill set: 'T4'",
      "lastReviewDate": "2021-08-03",
      "contact": [ {
        "telecom": [ {
          "system": "phone",
          "value": "07798501130"
        } ]
      } ],
      "subjectType": [ "Patient" ],
      "item": [ {
        "linkId": "1766759",
        "prefix": "0",
        "text": "Have you been in contact with somebody with head lice or nits?",
        "type": "choice",
        "required": true,
        "repeats": false,
        "option": [ {
          "valueString": "yes, Selected: true"
        }, {
          "valueString": "not sure, Selected: false"
        }, {
          "valueString": "no, Selected: false"
        } ]
      } ]
    }
  }, {
    "fullUrl": "urn:uuid:36df4041-51be-42cc-9a31-c34456775b7a",
    "resource": {
      "resourceType": "QuestionnaireResponse",
      "id": "36df4041-51be-42cc-9a31-c34456775b7a",
      "identifier": {
        "value": "1766759"
      },
      "questionnaire": {
        "reference": "urn:uuid:1abf11d4-d06c-43e3-bf4a-95fc03b00c69"
      },
      "status": "completed",
      "subject": {
        "reference": "urn:uuid:ef0e53a0-acfd-4e00-838b-a90b5e2a9740"
      },
      "context": {
        "reference": "urn:uuid:71051f60-fe46-4bff-ab85-d9cd7e9f265e"
      },
      "authored": "2021-08-03T13:07:14+00:00",
      "item": [ {
        "linkId": "Tx220664",
        "text": "Have you lost patches or clumps of hair OVER THE LAST FEW WEEKS?",
        "answer": [ {
          "valueString": "yes"
        } ]
      } ]
    }
  }, {
    "fullUrl": "urn:uuid:1abf11d4-d06c-43e3-bf4a-95fc03b00c69",
    "resource": {
      "resourceType": "Questionnaire",
      "id": "1abf11d4-d06c-43e3-bf4a-95fc03b00c69",
      "identifier": [ {
        "value": "1766759"
      } ],
      "version": "2021-08-03T13:07:14.000Z",
      "status": "active",
      "experimental": false,
      "date": "2021-08-03T13:07:14+00:00",
      "publisher": "User ID: '922' User name: 'AndrewJ.Walford' User skill set: 'T4'",
      "lastReviewDate": "2021-08-03",
      "contact": [ {
        "telecom": [ {
          "system": "phone",
          "value": "07798501130"
        } ]
      } ],
      "subjectType": [ "Patient" ],
      "item": [ {
        "linkId": "1766759",
        "prefix": "300",
        "text": "Have you lost patches or clumps of hair OVER THE LAST FEW WEEKS?",
        "type": "choice",
        "required": true,
        "repeats": false,
        "option": [ {
          "valueString": "yes, Selected: true"
        }, {
          "valueString": "not sure, Selected: false"
        }, {
          "valueString": "no, Selected: false"
        } ]
      } ]
    }
  }, {
    "fullUrl": "urn:uuid:afbabda3-c8d4-40b8-9c3c-9e38c242c8a6",
    "resource": {
      "resourceType": "QuestionnaireResponse",
      "id": "afbabda3-c8d4-40b8-9c3c-9e38c242c8a6",
      "identifier": {
        "value": "1766759"
      },
      "questionnaire": {
        "reference": "urn:uuid:f7598f73-3bfd-41f6-96ce-8a51d64c55b3"
      },
      "status": "completed",
      "subject": {
        "reference": "urn:uuid:ef0e53a0-acfd-4e00-838b-a90b5e2a9740"
      },
      "context": {
        "reference": "urn:uuid:71051f60-fe46-4bff-ab85-d9cd7e9f265e"
      },
      "authored": "2021-08-03T13:07:14+00:00",
      "item": [ {
        "linkId": "Tx221449",
        "text": "STRING:SDPCFullPrimaryCareassessmentandprescribingcapability",
        "answer": [ {
          "valueString": "\"\"PC full Primary Care assessment and prescribing capability\"\""
        } ]
      } ]
    }
  }, {
    "fullUrl": "urn:uuid:f7598f73-3bfd-41f6-96ce-8a51d64c55b3",
    "resource": {
      "resourceType": "Questionnaire",
      "id": "f7598f73-3bfd-41f6-96ce-8a51d64c55b3",
      "identifier": [ {
        "value": "1766759"
      } ],
      "version": "2021-08-03T13:07:14.000Z",
      "status": "active",
      "experimental": false,
      "date": "2021-08-03T13:07:14+00:00",
      "publisher": "User ID: '922' User name: 'AndrewJ.Walford' User skill set: 'T4'",
      "lastReviewDate": "2021-08-03",
      "contact": [ {
        "telecom": [ {
          "system": "phone",
          "value": "07798501130"
        } ]
      } ],
      "subjectType": [ "Patient" ],
      "item": [ {
        "linkId": "1766759",
        "prefix": "500",
        "text": "STRING:SDPCFullPrimaryCareassessmentandprescribingcapability",
        "type": "choice",
        "required": true,
        "repeats": false,
        "option": [ {
          "valueString": "\"\"PC full Primary Care assessment and prescribing capability\"\", Selected: true"
        } ]
      } ]
    }
  }, {
    "fullUrl": "urn:uuid:567d7e4a-b3f3-44cb-86d4-ba6695c7603c",
    "resource": {
      "resourceType": "QuestionnaireResponse",
      "id": "567d7e4a-b3f3-44cb-86d4-ba6695c7603c",
      "identifier": {
        "value": "1766759"
      },
      "questionnaire": {
        "reference": "urn:uuid:aad67296-3982-4c3e-b854-ff86c01566bf"
      },
      "status": "completed",
      "subject": {
        "reference": "urn:uuid:ef0e53a0-acfd-4e00-838b-a90b5e2a9740"
      },
      "context": {
        "reference": "urn:uuid:71051f60-fe46-4bff-ab85-d9cd7e9f265e"
      },
      "authored": "2021-08-03T13:07:14+00:00"
    }
  }, {
    "fullUrl": "urn:uuid:aad67296-3982-4c3e-b854-ff86c01566bf",
    "resource": {
      "resourceType": "Questionnaire",
      "id": "aad67296-3982-4c3e-b854-ff86c01566bf",
      "identifier": [ {
        "value": "1766759"
      } ],
      "version": "2021-08-03T13:07:14.000Z",
      "status": "active",
      "experimental": false,
      "date": "2021-08-03T13:07:14+00:00",
      "publisher": "User ID: '922' User name: 'AndrewJ.Walford' User skill set: 'T4'",
      "lastReviewDate": "2021-08-03",
      "contact": [ {
        "telecom": [ {
          "system": "phone",
          "value": "07798501130"
        } ]
      } ],
      "subjectType": [ "Patient" ]
    }
  }, {
    "fullUrl": "urn:uuid:0f823ae0-4de6-499e-b80d-375113445f9c",
    "resource": {
      "resourceType": "QuestionnaireResponse",
      "id": "0f823ae0-4de6-499e-b80d-375113445f9c",
      "identifier": {
        "value": "1766759"
      },
      "questionnaire": {
        "reference": "urn:uuid:36416bdf-19c7-4a0a-8fe0-cbb7bd425525"
      },
      "status": "completed",
      "subject": {
        "reference": "urn:uuid:ef0e53a0-acfd-4e00-838b-a90b5e2a9740"
      },
      "context": {
        "reference": "urn:uuid:71051f60-fe46-4bff-ab85-d9cd7e9f265e"
      },
      "authored": "2021-08-03T13:07:14+00:00",
      "item": [ {
        "linkId": "N/A"
      } ]
    }
  }, {
    "fullUrl": "urn:uuid:36416bdf-19c7-4a0a-8fe0-cbb7bd425525",
    "resource": {
      "resourceType": "Questionnaire",
      "id": "36416bdf-19c7-4a0a-8fe0-cbb7bd425525",
      "identifier": [ {
        "value": "1766759"
      } ],
      "version": "2021-08-03T13:07:14.000Z",
      "status": "active",
      "experimental": false,
      "date": "2021-08-03T13:07:14+00:00",
      "publisher": "User ID: '922' User name: 'AndrewJ.Walford' User skill set: 'T4'",
      "lastReviewDate": "2021-08-03",
      "contact": [ {
        "telecom": [ {
          "system": "phone",
          "value": "07798501130"
        } ]
      } ],
      "subjectType": [ "Patient" ],
      "item": [ {
        "linkId": "1766759",
        "type": "choice",
        "required": true,
        "repeats": false,
        "option": [ {
          "valueString": ", Selected: false"
        } ]
      } ]
    }
  }, {
    "fullUrl": "urn:uuid:1fbb60fe-b165-4d67-92dd-e557ecc09674",
    "resource": {
      "resourceType": "QuestionnaireResponse",
      "id": "1fbb60fe-b165-4d67-92dd-e557ecc09674",
      "identifier": {
        "value": "1766759"
      },
      "questionnaire": {
        "reference": "urn:uuid:9a287621-af95-495f-b05e-7f040f1ea8e0"
      },
      "status": "completed",
      "subject": {
        "reference": "urn:uuid:ef0e53a0-acfd-4e00-838b-a90b5e2a9740"
      },
      "context": {
        "reference": "urn:uuid:71051f60-fe46-4bff-ab85-d9cd7e9f265e"
      },
      "authored": "2021-08-03T13:07:14+00:00"
    }
  }, {
    "fullUrl": "urn:uuid:9a287621-af95-495f-b05e-7f040f1ea8e0",
    "resource": {
      "resourceType": "Questionnaire",
      "id": "9a287621-af95-495f-b05e-7f040f1ea8e0",
      "identifier": [ {
        "value": "1766759"
      } ],
      "version": "2021-08-03T13:07:14.000Z",
      "status": "active",
      "experimental": false,
      "date": "2021-08-03T13:07:14+00:00",
      "publisher": "User ID: '922' User name: 'AndrewJ.Walford' User skill set: 'T4'",
      "lastReviewDate": "2021-08-03",
      "contact": [ {
        "telecom": [ {
          "system": "phone",
          "value": "07798501130"
        } ]
      } ],
      "subjectType": [ "Patient" ]
    }
  }, {
    "fullUrl": "urn:uuid:a71afe42-f462-4b88-9baf-0cca8db47899",
    "resource": {
      "resourceType": "Observation",
      "id": "a71afe42-f462-4b88-9baf-0cca8db47899",
      "status": "final",
      "code": {
        "coding": [ {
          "system": "http://snomed.info/sct",
          "code": "33962009",
          "display": "Presenting complaint"
        } ]
      },
      "subject": {
        "reference": "urn:uuid:ef0e53a0-acfd-4e00-838b-a90b5e2a9740"
      },
      "context": {
        "reference": "urn:uuid:71051f60-fe46-4bff-ab85-d9cd7e9f265e"
      }
    }
  }, {
    "fullUrl": "urn:uuid:6ace3c2f-66f0-435b-ae79-03a069c85b20",
    "resource": {
      "resourceType": "PractitionerRole",
      "id": "6ace3c2f-66f0-435b-ae79-03a069c85b20",
      "practitioner": {
        "reference": "urn:uuid:742fea76-b361-409f-8831-a086dd0488d8"
      },
      "organization": {
        "reference": "urn:uuid:30d1ee75-e430-4a28-9c02-44412908f696"
      },
      "code": [ {
        "coding": [ {
          "system": "2.16.840.1.113883.2.1.3.2.4.17.339",
          "code": "NP",
          "display": "Nurse Practitioner"
        } ]
      } ]
    }
  }, {
    "fullUrl": "urn:uuid:30d1ee75-e430-4a28-9c02-44412908f696",
    "resource": {
      "resourceType": "Organization",
      "id": "30d1ee75-e430-4a28-9c02-44412908f696",
      "identifier": [ {
        "value": "RX7"
      } ],
      "name": "NWAS 111"
    }
  }, {
    "fullUrl": "urn:uuid:182080d1-e9e8-4fe8-bafc-908e82e889cd",
    "resource": {
      "resourceType": "RelatedPerson",
      "id": "182080d1-e9e8-4fe8-bafc-908e82e889cd",
      "patient": {
        "reference": "urn:uuid:ef0e53a0-acfd-4e00-838b-a90b5e2a9740"
      },
      "relationship": {
        "coding": [ {
          "system": "http://hl7.org/fhir/v2/0131",
          "code": "C",
          "display": "Emergency Contact"
        } ]
      },
      "telecom": [ {
        "system": "phone",
        "value": "tel:07798501130"
      } ]
    }
  }, {
    "fullUrl": "urn:uuid:f6af5c8d-9497-4235-95ad-aef276468378",
    "resource": {
      "resourceType": "Device",
      "id": "f6af5c8d-9497-4235-95ad-aef276468378",
      "model": "111 Adaptor",
      "version": "1.0.1"
    }
  }, {
    "fullUrl": "urn:uuid:4d88f311-9cdb-4eef-9d97-42fd97765037",
    "resource": {
      "resourceType": "List",
      "id": "4d88f311-9cdb-4eef-9d97-42fd97765037",
      "status": "current",
      "mode": "working",
      "title": "111 Report List",
      "code": {
        "coding": [ {
          "system": "http://snomed.info/sct",
          "code": "225390008",
          "display": "Triage"
        } ]
      },
      "subject": {
        "reference": "urn:uuid:ef0e53a0-acfd-4e00-838b-a90b5e2a9740"
      },
      "encounter": {
        "reference": "urn:uuid:71051f60-fe46-4bff-ab85-d9cd7e9f265e"
      },
      "date": "2021-08-03T13:07:14+00:00",
      "source": {
        "reference": "urn:uuid:f6af5c8d-9497-4235-95ad-aef276468378"
      },
      "orderedBy": {
        "coding": [ {
          "system": "http://hl7.org/fhir/list-order",
          "code": "event-date",
          "display": "Sorted by Event Date"
        } ]
      },
      "entry": [ {
        "item": {
          "reference": "urn:uuid:71310641-ac3f-4e34-bc51-6da0702d403e"
        }
      }, {
        "item": {
          "reference": "urn:uuid:30d1ee75-e430-4a28-9c02-44412908f696"
        }
      }, {
        "item": {
          "reference": "urn:uuid:b50f36a1-8f77-48a1-a436-601149b4b2f6"
        }
      }, {
        "item": {
          "reference": "urn:uuid:a71afe42-f462-4b88-9baf-0cca8db47899"
        }
      }, {
        "item": {
          "reference": "urn:uuid:2df270ae-0ed9-4202-ba2c-c09311c96416"
        }
      }, {
        "item": {
          "reference": "urn:uuid:182080d1-e9e8-4fe8-bafc-908e82e889cd"
        }
      }, {
        "item": {
          "reference": "urn:uuid:9954b033-ad46-4031-ae6b-f524c1893be5"
        }
      }, {
        "item": {
          "reference": "urn:uuid:742fea76-b361-409f-8831-a086dd0488d8"
        }
      }, {
        "item": {
          "reference": "urn:uuid:413941ed-6476-4994-86dd-8e8fe090ee6f"
        }
      }, {
        "item": {
          "reference": "urn:uuid:fa731c45-7655-45c2-8e2d-8b9b33e0d1fc"
        }
      }, {
        "item": {
          "reference": "urn:uuid:ca2043ed-18f0-472f-88e2-e389a22d9cd5"
        }
      }, {
        "item": {
          "reference": "urn:uuid:99bd5d9b-1a33-4192-b0b9-6007d5010b91"
        }
      }, {
        "item": {
          "reference": "urn:uuid:b761cbb0-6ebf-4031-9b49-f46484f0f0d4"
        }
      }, {
        "item": {
          "reference": "urn:uuid:8c10ac91-a8a9-44e6-8e98-4f5f3f754efb"
        }
      }, {
        "item": {
          "reference": "urn:uuid:e3455c10-9578-4a49-8750-fc62d4bc4cc3"
        }
      }, {
        "item": {
          "reference": "urn:uuid:afbabda3-c8d4-40b8-9c3c-9e38c242c8a6"
        }
      }, {
        "item": {
          "reference": "urn:uuid:c3c4b12d-5e90-4099-8988-cc46b4538033"
        }
      }, {
        "item": {
          "reference": "urn:uuid:19d1edfd-0537-462c-9690-b31efd539807"
        }
      }, {
        "item": {
          "reference": "urn:uuid:1055825e-702a-45ca-86f7-6b3990aede0c"
        }
      }, {
        "item": {
          "reference": "urn:uuid:9a287621-af95-495f-b05e-7f040f1ea8e0"
        }
      }, {
        "item": {
          "reference": "urn:uuid:fa30f308-a39d-42d4-b2ce-fec49345436f"
        }
      }, {
        "item": {
          "reference": "urn:uuid:13d9ea36-1894-48e4-aab1-4cbe06c05eae"
        }
      }, {
        "item": {
          "reference": "urn:uuid:181ec214-876d-4f39-8dc3-caf947a263cb"
        }
      }, {
        "item": {
          "reference": "urn:uuid:10fa2165-0b0c-473d-9a01-f5187a885721"
        }
      }, {
        "item": {
          "reference": "urn:uuid:f682389d-25e4-42b9-a830-ef2bdbdfd19b"
        }
      }, {
        "item": {
          "reference": "urn:uuid:9e4b37bf-130e-4466-9798-7bd702ee510e"
        }
      }, {
        "item": {
          "reference": "urn:uuid:75998d5f-a767-4e64-baec-fd80321cfbbf"
        }
      }, {
        "item": {
          "reference": "urn:uuid:841dedca-1a36-403d-bfb5-6cb17f7164d0"
        }
      }, {
        "item": {
          "reference": "urn:uuid:61f94696-ed70-4209-af4e-c4b7dfac33fe"
        }
      }, {
        "item": {
          "reference": "urn:uuid:997e4545-0a42-4d47-ab90-198d90fb51fa"
        }
      }, {
        "item": {
          "reference": "urn:uuid:36df4041-51be-42cc-9a31-c34456775b7a"
        }
      }, {
        "item": {
          "reference": "urn:uuid:ec8a0855-0ac2-4fc3-ae00-1739954e75a6"
        }
      }, {
        "item": {
          "reference": "urn:uuid:054a6230-e575-41cc-9533-368fecf4c8a4"
        }
      }, {
        "item": {
          "reference": "urn:uuid:b8918de3-869a-448d-8731-4cdc59edc670"
        }
      }, {
        "item": {
          "reference": "urn:uuid:0f823ae0-4de6-499e-b80d-375113445f9c"
        }
      }, {
        "item": {
          "reference": "urn:uuid:a4e700bb-64f5-4e1a-a8a4-af54902fceba"
        }
      }, {
        "item": {
          "reference": "urn:uuid:aad67296-3982-4c3e-b854-ff86c01566bf"
        }
      }, {
        "item": {
          "reference": "urn:uuid:5cc8ce32-5a1c-4492-96e4-883d2e52ef35"
        }
      }, {
        "item": {
          "reference": "urn:uuid:bac83e3c-a1a9-4363-9c19-73cf7ff0cc73"
        }
      }, {
        "item": {
          "reference": "urn:uuid:f7598f73-3bfd-41f6-96ce-8a51d64c55b3"
        }
      }, {
        "item": {
          "reference": "urn:uuid:7c872672-cca3-4a7d-88fc-cf3deb8a728b"
        }
      }, {
        "item": {
          "reference": "urn:uuid:a6f9ca92-45c6-47eb-9315-b489217a8813"
        }
      }, {
        "item": {
          "reference": "urn:uuid:1abf11d4-d06c-43e3-bf4a-95fc03b00c69"
        }
      }, {
        "item": {
          "reference": "urn:uuid:567d7e4a-b3f3-44cb-86d4-ba6695c7603c"
        }
      }, {
        "item": {
          "reference": "urn:uuid:da281e29-e3b5-41fc-8b12-fe4eca3208d4"
        }
      }, {
        "item": {
          "reference": "urn:uuid:d4fe55af-9a3e-4527-b173-3c5fa47466d3"
        }
      }, {
        "item": {
          "reference": "urn:uuid:028a195e-acd0-45e9-9ae4-ddb53d2f4b1d"
        }
      }, {
        "item": {
          "reference": "urn:uuid:1fbb60fe-b165-4d67-92dd-e557ecc09674"
        }
      }, {
        "item": {
          "reference": "urn:uuid:e714e3b9-cd1f-48a4-81f3-85d45ea79fb5"
        }
      }, {
        "item": {
          "reference": "urn:uuid:36416bdf-19c7-4a0a-8fe0-cbb7bd425525"
        }
      }, {
        "item": {
          "reference": "urn:uuid:201188c0-e57a-418d-8626-568584a16ac9"
        }
      }, {
        "item": {
          "reference": "urn:uuid:0fe096c9-aa19-469f-abf8-d2c17c4dc31a"
        }
      }, {
        "item": {
          "reference": "urn:uuid:88df596c-7cbc-4505-b839-6a54bd4652be"
        }
      } ]
    }
  } ]
}