{
  "resourceType": "Bundle",
  "identifier": {
    "type": {
      "text": "ClinicalDocument VersionNumber"
    },
    "value": "1"
  },
  "type": "message",
  "entry": [ {
    "fullUrl": "urn:uuid:C34D38AA-2A35-4E0C-AAB2-BCC8D397736A",
    "resource": {
      "resourceType": "MessageHeader",
      "id": "C34D38AA-2A35-4E0C-AAB2-BCC8D397736A",
      "event": {
        "system": "https://fhir.nhs.uk/STU3/CodeSystem/EventType-1",
        "code": "referral-1",
        "display": "Referral"
      },
      "destination": [ {
        "endpoint": "urn:nhs-uk:addressing:ods:A82018:DOSServiceID:136753"
      } ],
      "timestamp": "2021-08-03T13:07:14.000+00:00",
      "source": {
        "name": "NHS 111 Adaptor",
        "endpoint": "http://localhost:8080/report"
      },
      "reason": {
        "coding": [ {
          "system": "urn:nhs-itk:ns:201005:interaction",
          "code": "urn:nhs-itk:interaction:primaryGeneralPractitionerRecipientNHS111CDADocument-v2-0"
        } ]
      }
    },
    "response": {
      "status": "success",
      "lastModified": "2022-05-05T12:27:57.929+00:00"
    }
  }, {
    "fullUrl": "urn:uuid:ab58f0f4-4a05-4f8f-a677-d2a70c16924e",
    "resource": {
      "resourceType": "Encounter",
      "id": "ab58f0f4-4a05-4f8f-a677-d2a70c16924e",
      "identifier": [ {
        "system": "2.16.840.1.113883.2.1.3.2.4.18.49",
        "value": "6C072313-DFFB-4D60-9416-43B044FDBA9F"
      }, {
        "system": "2.16.840.1.113883.2.1.3.2.4.18.34",
        "value": "1766759"
      }, {
        "system": "2.16.840.1.113883.2.1.3.2.4.18.35",
        "value": "1766759"
      } ],
      "status": "finished",
      "type": [ {
        "text": "111 Encounter Referral"
      } ],
      "subject": {
        "reference": "urn:uuid:d12aad63-a796-4862-b375-de9b476b269f"
      },
      "participant": [ {
        "type": [ {
          "coding": [ {
            "system": "http://hl7.org/fhir/ValueSet/encounter-participant-type",
            "code": "PPRF",
            "display": "Author"
          } ]
        } ],
        "individual": {
          "reference": "urn:uuid:e8733c4c-b73b-4e74-9f56-d761d9f714c1"
        }
      } ],
      "period": {
        "start": "2021-08-03T12:36:56+00:00",
        "end": "2021-08-03T13:07:14+00:00"
      },
      "location": [ {
        "location": {
          "reference": "urn:uuid:8ade1427-b034-449a-b928-a7523d24ec4e"
        },
        "status": "active"
      }, {
        "location": {
          "reference": "urn:uuid:30a320cc-f80c-4b11-8504-74fee76a01b2"
        },
        "status": "completed"
      } ],
      "serviceProvider": {
        "reference": "urn:uuid:1ed24ee1-3c30-48b5-a1b6-8b2e7ababbbf"
      }
    }
  }, {
    "fullUrl": "urn:uuid:1ed24ee1-3c30-48b5-a1b6-8b2e7ababbbf",
    "resource": {
      "resourceType": "Organization",
      "id": "1ed24ee1-3c30-48b5-a1b6-8b2e7ababbbf",
      "active": true,
      "type": [ {
        "text": "CST"
      } ],
      "name": "NWAS 111"
    }
  }, {
    "fullUrl": "urn:uuid:e8733c4c-b73b-4e74-9f56-d761d9f714c1",
    "resource": {
      "resourceType": "Practitioner",
      "id": "e8733c4c-b73b-4e74-9f56-d761d9f714c1",
      "active": true,
      "name": [ {
        "text": "AndrewJ.Walford"
      } ]
    }
  }, {
    "fullUrl": "urn:uuid:8ade1427-b034-449a-b928-a7523d24ec4e",
    "resource": {
      "resourceType": "Location",
      "id": "8ade1427-b034-449a-b928-a7523d24ec4e",
      "managingOrganization": {
        "reference": "urn:uuid:1b110d7f-4477-4fe1-91ac-0cf950ec2ae1"
      }
    }
  }, {
    "fullUrl": "urn:uuid:1b110d7f-4477-4fe1-91ac-0cf950ec2ae1",
    "resource": {
      "resourceType": "Organization",
      "id": "1b110d7f-4477-4fe1-91ac-0cf950ec2ae1",
      "identifier": [ {
        "value": "A82018"
      } ],
      "type": [ {
        "text": "GP Practice"
      } ],
      "name": "Spencer St Surgery",
      "telecom": [ {
        "system": "phone",
        "value": "tel:01228529171",
        "use": "work"
      } ],
      "address": [ {
        "use": "work",
        "line": [ "Spencer Street Surgery", "10 Spencer Street", "Carlisle" ],
        "postalCode": "CA1 1BP"
      } ]
    }
  }, {
    "fullUrl": "urn:uuid:30a320cc-f80c-4b11-8504-74fee76a01b2",
    "resource": {
      "resourceType": "Location",
      "id": "30a320cc-f80c-4b11-8504-74fee76a01b2",
      "address": {
        "type": "physical",
        "line": [ "North West Ambulance Service Nhs Trust Salkeld Hall", "Infirmary Street", "Carlisle" ],
        "postalCode": "CA2 7AN"
      }
    }
  }, {
    "fullUrl": "urn:uuid:d12aad63-a796-4862-b375-de9b476b269f",
    "resource": {
      "resourceType": "Patient",
      "id": "d12aad63-a796-4862-b375-de9b476b269f",
      "active": true,
      "name": [ {
        "use": "official",
        "family": "Please Disregard",
        "given": [ "Dx09 Test" ]
      } ],
      "telecom": [ {
        "system": "phone",
        "value": "tel:07798501130",
        "use": "mobile"
      }, {
        "system": "phone",
        "value": "tel:07798501130"
      } ],
      "gender": "male",
      "birthDate": "1980-01-01",
      "address": [ {
        "use": "home",
        "line": [ "North West Ambulance Service Nhs Trust Salkeld Hall", "Infirmary Street", "Carlisle" ],
        "postalCode": "CA2 7AN"
      }, {
        "type": "physical",
        "line": [ "North West Ambulance Service Nhs Trust Salkeld Hall", "Infirmary Street", "Carlisle" ],
        "postalCode": "CA2 7AN"
      } ],
      "generalPractitioner": [ {
        "reference": "urn:uuid:e83d3555-b908-4463-93a9-6fba5f4b27bc"
      } ]
    }
  }, {
    "fullUrl": "urn:uuid:e83d3555-b908-4463-93a9-6fba5f4b27bc",
    "resource": {
      "resourceType": "Organization",
      "id": "e83d3555-b908-4463-93a9-6fba5f4b27bc",
      "identifier": [ {
        "value": "A82018"
      } ],
      "type": [ {
        "text": "GP Practice"
      } ],
      "name": "Spencer St Surgery",
      "telecom": [ {
        "system": "phone",
        "value": "tel:01228529171",
        "use": "work"
      } ],
      "address": [ {
        "use": "work",
        "line": [ "Spencer Street Surgery", "10 Spencer Street", "Carlisle" ],
        "postalCode": "CA1 1BP"
      } ]
    }
  }, {
    "fullUrl": "urn:uuid:38d60d4e-b9b9-4725-bb4f-aa54d570a9b8",
    "resource": {
      "resourceType": "HealthcareService",
      "id": "38d60d4e-b9b9-4725-bb4f-aa54d570a9b8",
      "active": true,
      "providedBy": {
        "reference": "urn:uuid:332f9571-9fbc-4d6e-875a-e69ceed1035f"
      },
      "location": [ {
        "reference": "urn:uuid:f9f8e87b-acf2-4576-ba3d-a985b04ede7d"
      } ],
      "name": "Spencer St Surgery",
      "telecom": [ {
        "system": "phone",
        "value": "tel:01228529171",
        "use": "work"
      } ]
    }
  }, {
    "fullUrl": "urn:uuid:f9f8e87b-acf2-4576-ba3d-a985b04ede7d",
    "resource": {
      "resourceType": "Location",
      "id": "f9f8e87b-acf2-4576-ba3d-a985b04ede7d",
      "telecom": [ {
        "system": "phone",
        "value": "tel:01228529171",
        "use": "work"
      } ],
      "address": {
        "use": "work",
        "line": [ "Spencer Street Surgery", "10 Spencer Street", "Carlisle" ],
        "postalCode": "CA1 1BP"
      },
      "managingOrganization": {
        "reference": "urn:uuid:332f9571-9fbc-4d6e-875a-e69ceed1035f"
      }
    }
  }, {
    "fullUrl": "urn:uuid:332f9571-9fbc-4d6e-875a-e69ceed1035f",
    "resource": {
      "resourceType": "Organization",
      "id": "332f9571-9fbc-4d6e-875a-e69ceed1035f",
      "identifier": [ {
        "value": "A82018"
      } ],
      "type": [ {
        "coding": [ {
          "code": "PRCP",
          "display": "Spencer St Surgery"
        } ]
      } ],
      "name": "Spencer St Surgery"
    }
  }, {
    "fullUrl": "urn:uuid:62b19a81-2319-4d7a-92cc-f8430939ef2a",
    "resource": {
      "resourceType": "ReferralRequest",
      "id": "62b19a81-2319-4d7a-92cc-f8430939ef2a",
      "status": "active",
      "intent": "plan",
      "priority": "routine",
      "subject": {
        "reference": "urn:uuid:d12aad63-a796-4862-b375-de9b476b269f"
      },
      "context": {
        "reference": "urn:uuid:ab58f0f4-4a05-4f8f-a677-d2a70c16924e"
      },
      "occurrencePeriod": {
        "start": "2021-08-03T13:07:14+00:00"
      },
      "authoredOn": "2021-08-03T12:36:56+00:00",
      "requester": {
        "agent": {
          "reference": "urn:uuid:225ab197-b096-4185-a9e7-d6629d4fb96c"
        },
        "onBehalfOf": {
          "reference": "urn:uuid:1ed24ee1-3c30-48b5-a1b6-8b2e7ababbbf"
        }
      },
      "recipient": [ {
        "reference": "urn:uuid:b3d6502f-7cd4-4e11-ab2d-8fb89f9cc01a"
      }, {
        "reference": "urn:uuid:38d60d4e-b9b9-4725-bb4f-aa54d570a9b8"
      } ],
      "reasonReference": [ {
        "reference": "urn:uuid:bc332d4d-6356-40e9-a443-e1d3686a506b"
      } ],
      "supportingInfo": [ {
        "reference": "urn:uuid:2e44a099-ac00-4f9b-9356-158d55fb74f9"
      } ]
    }
  }, {
    "fullUrl": "urn:uuid:2e44a099-ac00-4f9b-9356-158d55fb74f9",
    "resource": {
      "resourceType": "ProcedureRequest",
      "id": "2e44a099-ac00-4f9b-9356-158d55fb74f9",
      "status": "active",
      "intent": "plan",
      "priority": "routine",
      "doNotPerform": false,
      "code": {
        "coding": [ {
          "system": "2.16.840.1.113883.2.1.3.2.4.17.325",
          "code": "Dx09",
          "display": "For Persistent Or Recurrent Symptoms: Get In Touch With A Local Service For A Non-urgent Appointment"
        } ]
      },
      "subject": {
        "reference": "urn:uuid:d12aad63-a796-4862-b375-de9b476b269f"
      },
      "occurrencePeriod": {
        "start": "2021-08-03T13:07:14+00:00"
      },
      "reasonReference": [ {
        "reference": "urn:uuid:bc332d4d-6356-40e9-a443-e1d3686a506b"
      } ]
    }
  }, {
    "fullUrl": "urn:uuid:b3d6502f-7cd4-4e11-ab2d-8fb89f9cc01a",
    "resource": {
      "resourceType": "Practitioner",
      "id": "b3d6502f-7cd4-4e11-ab2d-8fb89f9cc01a",
      "active": true,
      "address": [ {
        "type": "physical",
        "line": [ "Spencer Street Surgery", "Spencer Street", "Carlisle" ],
        "postalCode": "CA1 1BP"
      } ]
    }
  }, {
    "fullUrl": "urn:uuid:18e77992-4a3c-490e-ad7e-264afe1676ea",
    "resource": {
      "resourceType": "Composition",
      "id": "18e77992-4a3c-490e-ad7e-264afe1676ea",
      "identifier": {
        "use": "usual",
        "value": "B5A4AC85-5A10-4D08-B956-83421A24BB81"
      },
      "status": "final",
      "type": {
        "coding": [ {
          "system": "http://snomed.info/sct",
          "code": "371531000",
          "display": "Report of clinical encounter (record artifact)"
        } ]
      },
      "subject": {
        "reference": "urn:uuid:d12aad63-a796-4862-b375-de9b476b269f"
      },
      "encounter": {
        "reference": "urn:uuid:ab58f0f4-4a05-4f8f-a677-d2a70c16924e"
      },
      "date": "2021-08-03T13:07:14+00:00",
      "author": [ {
        "reference": "urn:uuid:e8733c4c-b73b-4e74-9f56-d761d9f714c1"
      } ],
      "title": "111 Report",
      "confidentiality": "N",
      "section": [ {
        "section": [ {
          "title": "Patient's Reported Condition",
          "text": {
            "status": "generated",
            "div": "<div xmlns=\"http://www.w3.org/1999/xhtml\">**test From Nwas111 - No Action Required - Please Disregard Test</div>"
          }
        }, {
          "title": "Case Summary",
          "text": {
            "status": "generated",
            "div": "<div xmlns=\"http://www.w3.org/1999/xhtml\">&lt;content styleCode=&quot;bold&quot;&gt;Pathways Disposition: Dx09&lt;/content&gt;\n                                                    &lt;br/&gt;\n                                                    &lt;content&gt;For Persistent Or Recurrent Symptoms: Get In Touch With A Local Service For A Non-urgent Appointment&lt;/content&gt;\n                                                    &lt;br/&gt;\n                                                    &lt;br/&gt;\n                                                    &lt;content styleCode=&quot;bold&quot;&gt;Consultation Summary:&lt;/content&gt;\n                                                    &lt;br/&gt;\n                                                    &lt;content&gt;Illness - '**Test From NWAS111 - No Action required - Please Disregard Test case**'&lt;/content&gt;\n                                                    &lt;br/&gt;\n                                                    &lt;content&gt;Warm to touch&lt;/content&gt;\n                                                    &lt;br/&gt;\n                                                    &lt;content&gt;Head lice&lt;/content&gt;\n                                                    &lt;br/&gt;\n                                                    &lt;content&gt;Head lice contact&lt;/content&gt;\n                                                    &lt;br/&gt;\n                                                    &lt;content&gt;Recent sudden loss of clumps of hair&lt;/content&gt;\n                                                    &lt;br/&gt;\n                                                    &lt;br/&gt;\n                                                    &lt;content styleCode=&quot;bold&quot;&gt;Pathways Assessment:&lt;/content&gt;\n                                                    &lt;br/&gt;\n                                                    &lt;content&gt;An injury or health problem was the reason for the contact.&lt;/content&gt;\n                                                    &lt;br/&gt;\n                                                    &lt;content&gt;User comment - '**Test From NWAS111 - No Action required - Please Disregard Test case**'&lt;/content&gt;\n                                                    &lt;br/&gt;\n                                                    &lt;content&gt;Heavy bleeding had not occurred in the previous 2 hours.&lt;/content&gt;\n                                                    &lt;br/&gt;\n                                                    &lt;content&gt;An illness or health problem was the main problem.&lt;/content&gt;\n                                                    &lt;br/&gt;\n                                                    &lt;content&gt;User comment - '**Test From NWAS111 - No Action required - Please Disregard Test case**'&lt;/content&gt;\n                                                    &lt;br/&gt;\n                                                    &lt;content&gt;The individual was not fighting for breath.&lt;/content&gt;\n                                                    &lt;br/&gt;\n                                                    &lt;content&gt;The main reason for the assessment was not an allergic reaction, heart attack, chest/upper back pain, probable stroke, recent fit/seizure or suicide attempt.&lt;/content&gt;\n                                                    &lt;br/&gt;\n                                                    &lt;content&gt;The main reason for contact was not new confusion, declared diabetic hypo/hyperglycaemia, or ICD shock.&lt;/content&gt;\n                                                    &lt;br/&gt;\n                                                    &lt;content&gt;The skin on the torso felt normal, warm or hot.&lt;/content&gt;\n                                                    &lt;br/&gt;\n                                                    &lt;content&gt;Pathway selected - Skin Problems&lt;/content&gt;\n                                                    &lt;br/&gt;\n                                                    &lt;content&gt;The main problem was not a rash, itch, jaundice, skin lumps or abnormal bruising.&lt;/content&gt;\n                                                    &lt;br/&gt;\n                                                    &lt;content&gt;The main problem was head lice.&lt;/content&gt;\n                                                    &lt;br/&gt;\n                                                    &lt;content&gt;There had been contact with somebody with head lice.&lt;/content&gt;\n                                                    &lt;br/&gt;\n                                                    &lt;content&gt;There was recent patchy hair loss.&lt;/content&gt;\n                                                    &lt;br/&gt;\n                                                    &lt;content&gt;User comment - 'GP - Spencer Street Surgery - Cumbria (Home GP)'&lt;/content&gt;\n                                                    &lt;br/&gt;\n                                                    &lt;br/&gt;\n                                                    &lt;content styleCode=&quot;bold&quot;&gt;Advice Given:&lt;/content&gt;\n                                                    &lt;br/&gt;\n                                                    &lt;content&gt;Head lice is common. Speak to a pharmacist for advice on suitable treatments.&lt;/content&gt;\n                                                    &lt;br/&gt;\n                                                    &lt;br/&gt;</div>"
          }
        } ]
      }, {
        "title": "ReferralRequest",
        "entry": [ {
          "reference": "urn:uuid:62b19a81-2319-4d7a-92cc-f8430939ef2a"
        } ]
      }, {
        "title": "QuestionnaireResponse",
        "entry": [ {
          "reference": "urn:uuid:b08b426d-b257-4150-9516-69e732e6af88"
        } ]
      }, {
        "title": "QuestionnaireResponse",
        "entry": [ {
          "reference": "urn:uuid:92d0de2f-2cae-482b-befc-07e2c8b8b5e3"
        } ]
      }, {
        "title": "QuestionnaireResponse",
        "entry": [ {
          "reference": "urn:uuid:58b9ac8c-8064-4bda-9e72-ae2f6d988fa9"
        } ]
      }, {
        "title": "QuestionnaireResponse",
        "entry": [ {
          "reference": "urn:uuid:f5ac16c6-3fef-451e-8eb9-90c497a436a6"
        } ]
      }, {
        "title": "QuestionnaireResponse",
        "entry": [ {
          "reference": "urn:uuid:9358728b-2e46-4849-ae02-2eb1f3d8e132"
        } ]
      }, {
        "title": "QuestionnaireResponse",
        "entry": [ {
          "reference": "urn:uuid:d9eaf273-d0d9-4460-96f2-f1e4d91ed53c"
        } ]
      }, {
        "title": "QuestionnaireResponse",
        "entry": [ {
          "reference": "urn:uuid:361737d7-06c8-4cd3-8322-67866569a866"
        } ]
      }, {
        "title": "QuestionnaireResponse",
        "entry": [ {
          "reference": "urn:uuid:2732dd95-f0c8-43ea-abf3-61317beaada6"
        } ]
      }, {
        "title": "QuestionnaireResponse",
        "entry": [ {
          "reference": "urn:uuid:8f2c2986-7c68-4552-bb0e-a61b82689c2c"
        } ]
      }, {
        "title": "QuestionnaireResponse",
        "entry": [ {
          "reference": "urn:uuid:f9119f1a-6936-4e51-864d-c6081785dc39"
        } ]
      }, {
        "title": "QuestionnaireResponse",
        "entry": [ {
          "reference": "urn:uuid:ff5183de-c8ec-4d21-a942-080350d59489"
        } ]
      }, {
        "title": "QuestionnaireResponse",
        "entry": [ {
          "reference": "urn:uuid:76a4102b-9fa9-4990-a8b0-282a60c2a4ad"
        } ]
      }, {
        "title": "QuestionnaireResponse",
        "entry": [ {
          "reference": "urn:uuid:787ea49a-697d-4902-9d2c-26b29fd624ef"
        } ]
      }, {
        "title": "QuestionnaireResponse",
        "entry": [ {
          "reference": "urn:uuid:d8f9bc3f-e666-4a11-be82-e64a84d310eb"
        } ]
      }, {
        "title": "QuestionnaireResponse",
        "entry": [ {
          "reference": "urn:uuid:f33cf4e9-ac29-4107-92e5-3f055d96a689"
        } ]
      }, {
        "title": "QuestionnaireResponse",
        "entry": [ {
          "reference": "urn:uuid:50c7b10f-f706-43cb-a3ed-a1c592a1b28b"
        } ]
      }, {
        "title": "QuestionnaireResponse",
        "entry": [ {
          "reference": "urn:uuid:99b1d5dc-c771-42f5-9b3a-6d2f7d5396de"
        } ]
      }, {
        "title": "QuestionnaireResponse",
        "entry": [ {
          "reference": "urn:uuid:83f899b5-5502-4392-805a-c731d29dd3fb"
        } ]
      }, {
        "title": "QuestionnaireResponse",
        "entry": [ {
          "reference": "urn:uuid:4db53d83-67ad-47e8-b84d-dca584125ae3"
        } ]
      }, {
        "title": "QuestionnaireResponse",
        "entry": [ {
          "reference": "urn:uuid:8c0e1af8-150c-4bf3-9e1c-116addc87010"
        } ]
      }, {
        "title": "QuestionnaireResponse",
        "entry": [ {
          "reference": "urn:uuid:dbd282ff-db0f-42ba-8635-c39ff279ab45"
        } ]
      } ]
    }
  }, {
    "fullUrl": "urn:uuid:de577380-1198-44fb-95e4-c8e141f75041",
    "resource": {
      "resourceType": "Consent",
      "id": "de577380-1198-44fb-95e4-c8e141f75041",
      "identifier": {
        "use": "usual",
        "value": "B5A4AC85-5A10-4D08-B956-83421A24BB81"
      },
      "status": "active",
      "patient": {
        "reference": "urn:uuid:d12aad63-a796-4862-b375-de9b476b269f"
      },
      "period": {
        "start": "2021-08-03T12:36:56+00:00",
        "end": "2021-08-03T13:07:14+00:00"
      },
      "consentingParty": [ {
        "reference": "urn:uuid:d12aad63-a796-4862-b375-de9b476b269f"
      } ],
      "action": [ {
        "coding": [ {
          "system": "http://snomed.info/sct",
          "code": "425691002",
          "display": "Consent given for electronic record sharing"
        } ],
        "text": "Consent given for electronic record sharing"
      } ],
      "organization": [ {
        "reference": "urn:uuid:1ed24ee1-3c30-48b5-a1b6-8b2e7ababbbf"
      } ],
      "policyRule": "http://hl7.org/fhir/ConsentPolicy/opt-out",
      "data": [ {
        "meaning": "related",
        "reference": {
          "reference": "urn:uuid:ab58f0f4-4a05-4f8f-a677-d2a70c16924e"
        }
      } ]
    }
  }, {
    "fullUrl": "urn:uuid:bc332d4d-6356-40e9-a443-e1d3686a506b",
    "resource": {
      "resourceType": "Condition",
      "id": "bc332d4d-6356-40e9-a443-e1d3686a506b",
      "clinicalStatus": "active",
      "verificationStatus": "unknown",
      "subject": {
        "reference": "urn:uuid:d12aad63-a796-4862-b375-de9b476b269f"
      },
      "context": {
        "reference": "urn:uuid:ab58f0f4-4a05-4f8f-a677-d2a70c16924e"
      },
      "evidence": [ {
        "detail": [ {
          "reference": "urn:uuid:b08b426d-b257-4150-9516-69e732e6af88"
        } ]
      }, {
        "detail": [ {
          "reference": "urn:uuid:92d0de2f-2cae-482b-befc-07e2c8b8b5e3"
        } ]
      }, {
        "detail": [ {
          "reference": "urn:uuid:58b9ac8c-8064-4bda-9e72-ae2f6d988fa9"
        } ]
      }, {
        "detail": [ {
          "reference": "urn:uuid:f5ac16c6-3fef-451e-8eb9-90c497a436a6"
        } ]
      }, {
        "detail": [ {
          "reference": "urn:uuid:9358728b-2e46-4849-ae02-2eb1f3d8e132"
        } ]
      }, {
        "detail": [ {
          "reference": "urn:uuid:d9eaf273-d0d9-4460-96f2-f1e4d91ed53c"
        } ]
      }, {
        "detail": [ {
          "reference": "urn:uuid:361737d7-06c8-4cd3-8322-67866569a866"
        } ]
      }, {
        "detail": [ {
          "reference": "urn:uuid:2732dd95-f0c8-43ea-abf3-61317beaada6"
        } ]
      }, {
        "detail": [ {
          "reference": "urn:uuid:8f2c2986-7c68-4552-bb0e-a61b82689c2c"
        } ]
      }, {
        "detail": [ {
          "reference": "urn:uuid:f9119f1a-6936-4e51-864d-c6081785dc39"
        } ]
      }, {
        "detail": [ {
          "reference": "urn:uuid:ff5183de-c8ec-4d21-a942-080350d59489"
        } ]
      }, {
        "detail": [ {
          "reference": "urn:uuid:76a4102b-9fa9-4990-a8b0-282a60c2a4ad"
        } ]
      }, {
        "detail": [ {
          "reference": "urn:uuid:787ea49a-697d-4902-9d2c-26b29fd624ef"
        } ]
      }, {
        "detail": [ {
          "reference": "urn:uuid:d8f9bc3f-e666-4a11-be82-e64a84d310eb"
        } ]
      }, {
        "detail": [ {
          "reference": "urn:uuid:f33cf4e9-ac29-4107-92e5-3f055d96a689"
        } ]
      }, {
        "detail": [ {
          "reference": "urn:uuid:50c7b10f-f706-43cb-a3ed-a1c592a1b28b"
        } ]
      }, {
        "detail": [ {
          "reference": "urn:uuid:99b1d5dc-c771-42f5-9b3a-6d2f7d5396de"
        } ]
      }, {
        "detail": [ {
          "reference": "urn:uuid:83f899b5-5502-4392-805a-c731d29dd3fb"
        } ]
      }, {
        "detail": [ {
          "reference": "urn:uuid:4db53d83-67ad-47e8-b84d-dca584125ae3"
        } ]
      }, {
        "detail": [ {
          "reference": "urn:uuid:8c0e1af8-150c-4bf3-9e1c-116addc87010"
        } ]
      }, {
        "detail": [ {
          "reference": "urn:uuid:dbd282ff-db0f-42ba-8635-c39ff279ab45"
        } ]
      } ]
    }
  }, {
    "fullUrl": "urn:uuid:b08b426d-b257-4150-9516-69e732e6af88",
    "resource": {
      "resourceType": "QuestionnaireResponse",
      "id": "b08b426d-b257-4150-9516-69e732e6af88",
      "identifier": {
        "value": "1766759"
      },
      "questionnaire": {
        "reference": "urn:uuid:959be27a-c1c9-49ec-a8e6-283a1f0f74ce"
      },
      "status": "completed",
      "subject": {
        "reference": "urn:uuid:d12aad63-a796-4862-b375-de9b476b269f"
      },
      "context": {
        "reference": "urn:uuid:ab58f0f4-4a05-4f8f-a677-d2a70c16924e"
      },
      "authored": "2021-08-03T13:07:14+00:00",
      "item": [ {
        "linkId": "Tx220109",
        "text": "What is the reason for the contact?",
        "answer": [ {
          "valueString": "an injury or other health problem"
        } ]
      } ]
    }
  }, {
    "fullUrl": "urn:uuid:959be27a-c1c9-49ec-a8e6-283a1f0f74ce",
    "resource": {
      "resourceType": "Questionnaire",
      "id": "959be27a-c1c9-49ec-a8e6-283a1f0f74ce",
      "identifier": [ {
        "value": "1766759"
      } ],
      "version": "2021-08-03T13:07:14.000Z",
      "status": "active",
      "experimental": false,
      "date": "2021-08-03T13:07:14+00:00",
      "publisher": "User ID: '922' User name: 'AndrewJ.Walford' User skill set: 'T4'",
      "lastReviewDate": "2021-08-03",
      "contact": [ {
        "telecom": [ {
          "system": "phone",
          "value": "07798501130"
        } ]
      } ],
      "subjectType": [ "Patient" ],
      "item": [ {
        "linkId": "1766759",
        "prefix": "5",
        "text": "What is the reason for the contact?",
        "type": "choice",
        "required": true,
        "repeats": false,
        "option": [ {
          "valueString": "an injury or other health problem, Selected: true"
        }, {
          "valueString": "a need to access another healthcare service, Selected: false"
        }, {
          "valueString": "a healthcare professional requesting contact with another clinician, Selected: false"
        }, {
          "valueString": "a report of results or tests, Selected: false"
        }, {
          "valueString": "more, Selected: false"
        } ]
      } ]
    }
  }, {
    "fullUrl": "urn:uuid:92d0de2f-2cae-482b-befc-07e2c8b8b5e3",
    "resource": {
      "resourceType": "QuestionnaireResponse",
      "id": "92d0de2f-2cae-482b-befc-07e2c8b8b5e3",
      "identifier": {
        "value": "1766759"
      },
      "questionnaire": {
        "reference": "urn:uuid:191ab6e6-a7d3-4fad-b857-44a841915641"
      },
      "status": "completed",
      "subject": {
        "reference": "urn:uuid:d12aad63-a796-4862-b375-de9b476b269f"
      },
      "context": {
        "reference": "urn:uuid:ab58f0f4-4a05-4f8f-a677-d2a70c16924e"
      },
      "authored": "2021-08-03T13:07:14+00:00",
      "item": [ {
        "linkId": "Tx221788",
        "text": "STRING:to'ImmediateThreatsToLife(SPA/OOHversion)'-'ABC'menu",
        "answer": [ {
          "valueString": "\"\"present\"\""
        } ]
      } ]
    }
  }, {
    "fullUrl": "urn:uuid:191ab6e6-a7d3-4fad-b857-44a841915641",
    "resource": {
      "resourceType": "Questionnaire",
      "id": "191ab6e6-a7d3-4fad-b857-44a841915641",
      "identifier": [ {
        "value": "1766759"
      } ],
      "version": "2021-08-03T13:07:14.000Z",
      "status": "active",
      "experimental": false,
      "date": "2021-08-03T13:07:14+00:00",
      "publisher": "User ID: '922' User name: 'AndrewJ.Walford' User skill set: 'T4'",
      "lastReviewDate": "2021-08-03",
      "contact": [ {
        "telecom": [ {
          "system": "phone",
          "value": "07798501130"
        } ]
      } ],
      "subjectType": [ "Patient" ],
      "item": [ {
        "linkId": "1766759",
        "prefix": "500",
        "text": "STRING:to'ImmediateThreatsToLife(SPA/OOHversion)'-'ABC'menu",
        "type": "choice",
        "required": true,
        "repeats": false,
        "option": [ {
          "valueString": "\"\"present\"\", Selected: true"
        } ]
      } ]
    }
  }, {
    "fullUrl": "urn:uuid:58b9ac8c-8064-4bda-9e72-ae2f6d988fa9",
    "resource": {
      "resourceType": "QuestionnaireResponse",
      "id": "58b9ac8c-8064-4bda-9e72-ae2f6d988fa9",
      "identifier": {
        "value": "1766759"
      },
      "questionnaire": {
        "reference": "urn:uuid:84a56ccc-6891-4998-899c-0435c613979d"
      },
      "status": "completed",
      "subject": {
        "reference": "urn:uuid:d12aad63-a796-4862-b375-de9b476b269f"
      },
      "context": {
        "reference": "urn:uuid:ab58f0f4-4a05-4f8f-a677-d2a70c16924e"
      },
      "authored": "2021-08-03T13:07:14+00:00",
      "item": [ {
        "linkId": "Tx221814",
        "text": "STRING:aninjuryorotherhealthproblemestablishedinEntryFlow",
        "answer": [ {
          "valueString": "\"\"present\"\""
        } ]
      } ]
    }
  }, {
    "fullUrl": "urn:uuid:84a56ccc-6891-4998-899c-0435c613979d",
    "resource": {
      "resourceType": "Questionnaire",
      "id": "84a56ccc-6891-4998-899c-0435c613979d",
      "identifier": [ {
        "value": "1766759"
      } ],
      "version": "2021-08-03T13:07:14.000Z",
      "status": "active",
      "experimental": false,
      "date": "2021-08-03T13:07:14+00:00",
      "publisher": "User ID: '922' User name: 'AndrewJ.Walford' User skill set: 'T4'",
      "lastReviewDate": "2021-08-03",
      "contact": [ {
        "telecom": [ {
          "system": "phone",
          "value": "07798501130"
        } ]
      } ],
      "subjectType": [ "Patient" ],
      "item": [ {
        "linkId": "1766759",
        "prefix": "0",
        "text": "STRING:aninjuryorotherhealthproblemestablishedinEntryFlow",
        "type": "choice",
        "required": true,
        "repeats": false,
        "option": [ {
          "valueString": "\"\"present\"\", Selected: true"
        } ]
      } ]
    }
  }, {
    "fullUrl": "urn:uuid:f5ac16c6-3fef-451e-8eb9-90c497a436a6",
    "resource": {
      "resourceType": "QuestionnaireResponse",
      "id": "f5ac16c6-3fef-451e-8eb9-90c497a436a6",
      "identifier": {
        "value": "1766759"
      },
      "questionnaire": {
        "reference": "urn:uuid:c69cbf53-6c52-45bb-8303-21c310e7022c"
      },
      "status": "completed",
      "subject": {
        "reference": "urn:uuid:d12aad63-a796-4862-b375-de9b476b269f"
      },
      "context": {
        "reference": "urn:uuid:ab58f0f4-4a05-4f8f-a677-d2a70c16924e"
      },
      "authored": "2021-08-03T13:07:14+00:00",
      "item": [ {
        "linkId": "Tx224120",
        "text": "Have you been bleeding RED BLOOD very heavily IN THE LAST 2 HOURS?",
        "answer": [ {
          "valueString": "no"
        } ]
      } ]
    }
  }, {
    "fullUrl": "urn:uuid:c69cbf53-6c52-45bb-8303-21c310e7022c",
    "resource": {
      "resourceType": "Questionnaire",
      "id": "c69cbf53-6c52-45bb-8303-21c310e7022c",
      "identifier": [ {
        "value": "1766759"
      } ],
      "version": "2021-08-03T13:07:14.000Z",
      "status": "active",
      "experimental": false,
      "date": "2021-08-03T13:07:14+00:00",
      "publisher": "User ID: '922' User name: 'AndrewJ.Walford' User skill set: 'T4'",
      "lastReviewDate": "2021-08-03",
      "contact": [ {
        "telecom": [ {
          "system": "phone",
          "value": "07798501130"
        } ]
      } ],
      "subjectType": [ "Patient" ],
      "item": [ {
        "linkId": "1766759",
        "prefix": "7000",
        "text": "Have you been bleeding RED BLOOD very heavily IN THE LAST 2 HOURS?",
        "type": "choice",
        "required": true,
        "repeats": false,
        "option": [ {
          "valueString": "yes, Selected: false"
        }, {
          "valueString": "not sure, Selected: false"
        }, {
          "valueString": "no, Selected: true"
        } ]
      } ]
    }
  }, {
    "fullUrl": "urn:uuid:9358728b-2e46-4849-ae02-2eb1f3d8e132",
    "resource": {
      "resourceType": "QuestionnaireResponse",
      "id": "9358728b-2e46-4849-ae02-2eb1f3d8e132",
      "identifier": {
        "value": "1766759"
      },
      "questionnaire": {
        "reference": "urn:uuid:3690b6c5-74dc-4402-aeca-13596db5c650"
      },
      "status": "completed",
      "subject": {
        "reference": "urn:uuid:d12aad63-a796-4862-b375-de9b476b269f"
      },
      "context": {
        "reference": "urn:uuid:ab58f0f4-4a05-4f8f-a677-d2a70c16924e"
      },
      "authored": "2021-08-03T13:07:14+00:00",
      "item": [ {
        "linkId": "Tx221343",
        "text": "SocialConcernsExcluded",
        "answer": [ {
          "valueString": "*"
        } ]
      } ]
    }
  }, {
    "fullUrl": "urn:uuid:3690b6c5-74dc-4402-aeca-13596db5c650",
    "resource": {
      "resourceType": "Questionnaire",
      "id": "3690b6c5-74dc-4402-aeca-13596db5c650",
      "identifier": [ {
        "value": "1766759"
      } ],
      "version": "2021-08-03T13:07:14.000Z",
      "status": "active",
      "experimental": false,
      "date": "2021-08-03T13:07:14+00:00",
      "publisher": "User ID: '922' User name: 'AndrewJ.Walford' User skill set: 'T4'",
      "lastReviewDate": "2021-08-03",
      "contact": [ {
        "telecom": [ {
          "system": "phone",
          "value": "07798501130"
        } ]
      } ],
      "subjectType": [ "Patient" ],
      "item": [ {
        "linkId": "1766759",
        "prefix": "2700",
        "text": "SocialConcernsExcluded",
        "type": "choice",
        "required": true,
        "repeats": false,
        "option": [ {
          "valueString": "==\"\"present\"\", Selected: false"
        }, {
          "valueString": "*, Selected: true"
        } ]
      } ]
    }
  }, {
    "fullUrl": "urn:uuid:d9eaf273-d0d9-4460-96f2-f1e4d91ed53c",
    "resource": {
      "resourceType": "QuestionnaireResponse",
      "id": "d9eaf273-d0d9-4460-96f2-f1e4d91ed53c",
      "identifier": {
        "value": "1766759"
      },
      "questionnaire": {
        "reference": "urn:uuid:d10d2f61-80c7-4c79-a70e-114e65850117"
      },
      "status": "completed",
      "subject": {
        "reference": "urn:uuid:d12aad63-a796-4862-b375-de9b476b269f"
      },
      "context": {
        "reference": "urn:uuid:ab58f0f4-4a05-4f8f-a677-d2a70c16924e"
      },
      "authored": "2021-08-03T13:07:14+00:00",
      "item": [ {
        "linkId": "Tx130011",
        "text": "What is the main problem?",
        "answer": [ {
          "valueString": "illness or other health problem (specify)"
        } ]
      } ]
    }
  }, {
    "fullUrl": "urn:uuid:d10d2f61-80c7-4c79-a70e-114e65850117",
    "resource": {
      "resourceType": "Questionnaire",
      "id": "d10d2f61-80c7-4c79-a70e-114e65850117",
      "identifier": [ {
        "value": "1766759"
      } ],
      "version": "2021-08-03T13:07:14.000Z",
      "status": "active",
      "experimental": false,
      "date": "2021-08-03T13:07:14+00:00",
      "publisher": "User ID: '922' User name: 'AndrewJ.Walford' User skill set: 'T4'",
      "lastReviewDate": "2021-08-03",
      "contact": [ {
        "telecom": [ {
          "system": "phone",
          "value": "07798501130"
        } ]
      } ],
      "subjectType": [ "Patient" ],
      "item": [ {
        "linkId": "1766759",
        "prefix": "3400",
        "text": "What is the main problem?",
        "type": "choice",
        "required": true,
        "repeats": false,
        "option": [ {
          "valueString": "the individual has been told to follow a particular course of action (specify), Selected: false"
        }, {
          "valueString": "the individual is an identified frequent caller, Selected: false"
        }, {
          "valueString": "injury (specify), Selected: false"
        }, {
          "valueString": "illness or other health problem (specify), Selected: true"
        }, {
          "valueString": "child protection/vulnerable adult concern, Selected: false"
        }, {
          "valueString": "social or domestic emergency, Selected: false"
        }, {
          "valueString": "the environment potentially poses an immediate threat to life (specify), Selected: false"
        } ]
      } ]
    }
  }, {
    "fullUrl": "urn:uuid:361737d7-06c8-4cd3-8322-67866569a866",
    "resource": {
      "resourceType": "QuestionnaireResponse",
      "id": "361737d7-06c8-4cd3-8322-67866569a866",
      "identifier": {
        "value": "1766759"
      },
      "questionnaire": {
        "reference": "urn:uuid:48bc729a-126d-42ad-8439-cd0d038d850e"
      },
      "status": "completed",
      "subject": {
        "reference": "urn:uuid:d12aad63-a796-4862-b375-de9b476b269f"
      },
      "context": {
        "reference": "urn:uuid:ab58f0f4-4a05-4f8f-a677-d2a70c16924e"
      },
      "authored": "2021-08-03T13:07:14+00:00",
      "item": [ {
        "linkId": "Tx61025",
        "text": "Are you so breathless that speaking more than a few words is impossible?",
        "answer": [ {
          "valueString": "no"
        } ]
      } ]
    }
  }, {
    "fullUrl": "urn:uuid:48bc729a-126d-42ad-8439-cd0d038d850e",
    "resource": {
      "resourceType": "Questionnaire",
      "id": "48bc729a-126d-42ad-8439-cd0d038d850e",
      "identifier": [ {
        "value": "1766759"
      } ],
      "version": "2021-08-03T13:07:14.000Z",
      "status": "active",
      "experimental": false,
      "date": "2021-08-03T13:07:14+00:00",
      "publisher": "User ID: '922' User name: 'AndrewJ.Walford' User skill set: 'T4'",
      "lastReviewDate": "2021-08-03",
      "contact": [ {
        "telecom": [ {
          "system": "phone",
          "value": "07798501130"
        } ]
      } ],
      "subjectType": [ "Patient" ],
      "item": [ {
        "linkId": "1766759",
        "prefix": "0",
        "text": "Are you so breathless that speaking more than a few words is impossible?",
        "type": "choice",
        "required": true,
        "repeats": false,
        "option": [ {
          "valueString": "yes, Selected: false"
        }, {
          "valueString": "not sure, Selected: false"
        }, {
          "valueString": "no, Selected: true"
        } ]
      } ]
    }
  }, {
    "fullUrl": "urn:uuid:2732dd95-f0c8-43ea-abf3-61317beaada6",
    "resource": {
      "resourceType": "QuestionnaireResponse",
      "id": "2732dd95-f0c8-43ea-abf3-61317beaada6",
      "identifier": {
        "value": "1766759"
      },
      "questionnaire": {
        "reference": "urn:uuid:a4f64024-68c6-46c0-81e6-31335e5616dc"
      },
      "status": "completed",
      "subject": {
        "reference": "urn:uuid:d12aad63-a796-4862-b375-de9b476b269f"
      },
      "context": {
        "reference": "urn:uuid:ab58f0f4-4a05-4f8f-a677-d2a70c16924e"
      },
      "authored": "2021-08-03T13:07:14+00:00",
      "item": [ {
        "linkId": "Tx220845",
        "text": "SYSTEM_FLUPANDEMIC",
        "answer": [ {
          "valueString": "*"
        } ]
      } ]
    }
  }, {
    "fullUrl": "urn:uuid:a4f64024-68c6-46c0-81e6-31335e5616dc",
    "resource": {
      "resourceType": "Questionnaire",
      "id": "a4f64024-68c6-46c0-81e6-31335e5616dc",
      "identifier": [ {
        "value": "1766759"
      } ],
      "version": "2021-08-03T13:07:14.000Z",
      "status": "active",
      "experimental": false,
      "date": "2021-08-03T13:07:14+00:00",
      "publisher": "User ID: '922' User name: 'AndrewJ.Walford' User skill set: 'T4'",
      "lastReviewDate": "2021-08-03",
      "contact": [ {
        "telecom": [ {
          "system": "phone",
          "value": "07798501130"
        } ]
      } ],
      "subjectType": [ "Patient" ],
      "item": [ {
        "linkId": "1766759",
        "prefix": "100",
        "text": "SYSTEM_FLUPANDEMIC",
        "type": "choice",
        "required": true,
        "repeats": false,
        "option": [ {
          "valueString": "==\"\"pandemic\"\", Selected: false"
        }, {
          "valueString": "*, Selected: true"
        } ]
      } ]
    }
  }, {
    "fullUrl": "urn:uuid:8f2c2986-7c68-4552-bb0e-a61b82689c2c",
    "resource": {
      "resourceType": "QuestionnaireResponse",
      "id": "8f2c2986-7c68-4552-bb0e-a61b82689c2c",
      "identifier": {
        "value": "1766759"
      },
      "questionnaire": {
        "reference": "urn:uuid:831d627c-5f60-46dd-b7c7-b71b18775ad0"
      },
      "status": "completed",
      "subject": {
        "reference": "urn:uuid:d12aad63-a796-4862-b375-de9b476b269f"
      },
      "context": {
        "reference": "urn:uuid:ab58f0f4-4a05-4f8f-a677-d2a70c16924e"
      },
      "authored": "2021-08-03T13:07:14+00:00",
      "item": [ {
        "linkId": "Tx223440",
        "text": "WHAT IS SAID TO BE THE MAIN REASON FOR THIS CONTACT?",
        "answer": [ {
          "valueString": "more"
        } ]
      } ]
    }
  }, {
    "fullUrl": "urn:uuid:831d627c-5f60-46dd-b7c7-b71b18775ad0",
    "resource": {
      "resourceType": "Questionnaire",
      "id": "831d627c-5f60-46dd-b7c7-b71b18775ad0",
      "identifier": [ {
        "value": "1766759"
      } ],
      "version": "2021-08-03T13:07:14.000Z",
      "status": "active",
      "experimental": false,
      "date": "2021-08-03T13:07:14+00:00",
      "publisher": "User ID: '922' User name: 'AndrewJ.Walford' User skill set: 'T4'",
      "lastReviewDate": "2021-08-03",
      "contact": [ {
        "telecom": [ {
          "system": "phone",
          "value": "07798501130"
        } ]
      } ],
      "subjectType": [ "Patient" ],
      "item": [ {
        "linkId": "1766759",
        "prefix": "5000",
        "text": "WHAT IS SAID TO BE THE MAIN REASON FOR THIS CONTACT?",
        "type": "choice",
        "required": true,
        "repeats": false,
        "option": [ {
          "valueString": "a probable allergic reaction now, Selected: false"
        }, {
          "valueString": "a probable heart attack, Selected: false"
        }, {
          "valueString": "chest or upper back pain, Selected: false"
        }, {
          "valueString": "a probable stroke or mini-stroke, Selected: false"
        }, {
          "valueString": "a probable fit or seizure within the last 12 hours, Selected: false"
        }, {
          "valueString": "a suicide attempt, Selected: false"
        }, {
          "valueString": "more, Selected: true"
        } ]
      } ]
    }
  }, {
    "fullUrl": "urn:uuid:f9119f1a-6936-4e51-864d-c6081785dc39",
    "resource": {
      "resourceType": "QuestionnaireResponse",
      "id": "f9119f1a-6936-4e51-864d-c6081785dc39",
      "identifier": {
        "value": "1766759"
      },
      "questionnaire": {
        "reference": "urn:uuid:633684a4-942d-423d-89ea-b0834efe366f"
      },
      "status": "completed",
      "subject": {
        "reference": "urn:uuid:d12aad63-a796-4862-b375-de9b476b269f"
      },
      "context": {
        "reference": "urn:uuid:ab58f0f4-4a05-4f8f-a677-d2a70c16924e"
      },
      "authored": "2021-08-03T13:07:14+00:00",
      "item": [ {
        "linkId": "Tx220032",
        "text": "WHAT IS SAID TO BE THE MAIN REASON FOR THIS CONTACT?",
        "answer": [ {
          "valueString": "none of the above"
        } ]
      } ]
    }
  }, {
    "fullUrl": "urn:uuid:633684a4-942d-423d-89ea-b0834efe366f",
    "resource": {
      "resourceType": "Questionnaire",
      "id": "633684a4-942d-423d-89ea-b0834efe366f",
      "identifier": [ {
        "value": "1766759"
      } ],
      "version": "2021-08-03T13:07:14.000Z",
      "status": "active",
      "experimental": false,
      "date": "2021-08-03T13:07:14+00:00",
      "publisher": "User ID: '922' User name: 'AndrewJ.Walford' User skill set: 'T4'",
      "lastReviewDate": "2021-08-03",
      "contact": [ {
        "telecom": [ {
          "system": "phone",
          "value": "07798501130"
        } ]
      } ],
      "subjectType": [ "Patient" ],
      "item": [ {
        "linkId": "1766759",
        "prefix": "1900",
        "text": "WHAT IS SAID TO BE THE MAIN REASON FOR THIS CONTACT?",
        "type": "choice",
        "required": true,
        "repeats": false,
        "option": [ {
          "valueString": "new confusion now, Selected: false"
        }, {
          "valueString": "a diabetic hypo (low blood sugar) or a diabetic hyper (high blood sugar), Selected: false"
        }, {
          "valueString": "recovery from an ICD (implanted cardioverter defibrillator) shock, Selected: false"
        }, {
          "valueString": "none of the above, Selected: true"
        } ]
      } ]
    }
  }, {
    "fullUrl": "urn:uuid:ff5183de-c8ec-4d21-a942-080350d59489",
    "resource": {
      "resourceType": "QuestionnaireResponse",
      "id": "ff5183de-c8ec-4d21-a942-080350d59489",
      "identifier": {
        "value": "1766759"
      },
      "questionnaire": {
        "reference": "urn:uuid:0b268ea4-14e1-4a75-8d1b-8b2bc810b39a"
      },
      "status": "completed",
      "subject": {
        "reference": "urn:uuid:d12aad63-a796-4862-b375-de9b476b269f"
      },
      "context": {
        "reference": "urn:uuid:ab58f0f4-4a05-4f8f-a677-d2a70c16924e"
      },
      "authored": "2021-08-03T13:07:14+00:00",
      "item": [ {
        "linkId": "Tx223142",
        "text": "Does the skin on the chest, back or abdomen feel a normal temperature?",
        "answer": [ {
          "valueString": "yes - normal, warm or hot"
        } ]
      } ]
    }
  }, {
    "fullUrl": "urn:uuid:0b268ea4-14e1-4a75-8d1b-8b2bc810b39a",
    "resource": {
      "resourceType": "Questionnaire",
      "id": "0b268ea4-14e1-4a75-8d1b-8b2bc810b39a",
      "identifier": [ {
        "value": "1766759"
      } ],
      "version": "2021-08-03T13:07:14.000Z",
      "status": "active",
      "experimental": false,
      "date": "2021-08-03T13:07:14+00:00",
      "publisher": "User ID: '922' User name: 'AndrewJ.Walford' User skill set: 'T4'",
      "lastReviewDate": "2021-08-03",
      "contact": [ {
        "telecom": [ {
          "system": "phone",
          "value": "07798501130"
        } ]
      } ],
      "subjectType": [ "Patient" ],
      "item": [ {
        "linkId": "1766759",
        "prefix": "4000",
        "text": "Does the skin on the chest, back or abdomen feel a normal temperature?",
        "type": "choice",
        "required": true,
        "repeats": false,
        "option": [ {
          "valueString": "yes - normal, warm or hot, Selected: true"
        }, {
          "valueString": "not sure, Selected: false"
        }, {
          "valueString": "no - cool OR cold, Selected: false"
        }, {
          "valueString": "not safe to touch, Selected: false"
        } ]
      } ]
    }
  }, {
    "fullUrl": "urn:uuid:76a4102b-9fa9-4990-a8b0-282a60c2a4ad",
    "resource": {
      "resourceType": "QuestionnaireResponse",
      "id": "76a4102b-9fa9-4990-a8b0-282a60c2a4ad",
      "identifier": {
        "value": "1766759"
      },
      "questionnaire": {
        "reference": "urn:uuid:48c70bd0-d848-4875-b2b0-485f5335a6b3"
      },
      "status": "completed",
      "subject": {
        "reference": "urn:uuid:d12aad63-a796-4862-b375-de9b476b269f"
      },
      "context": {
        "reference": "urn:uuid:ab58f0f4-4a05-4f8f-a677-d2a70c16924e"
      },
      "authored": "2021-08-03T13:07:14+00:00",
      "item": [ {
        "linkId": "Tx221724",
        "text": "STRING:ShockAsked",
        "answer": [ {
          "valueString": "\"\"present\"\""
        } ]
      } ]
    }
  }, {
    "fullUrl": "urn:uuid:48c70bd0-d848-4875-b2b0-485f5335a6b3",
    "resource": {
      "resourceType": "Questionnaire",
      "id": "48c70bd0-d848-4875-b2b0-485f5335a6b3",
      "identifier": [ {
        "value": "1766759"
      } ],
      "version": "2021-08-03T13:07:14.000Z",
      "status": "active",
      "experimental": false,
      "date": "2021-08-03T13:07:14+00:00",
      "publisher": "User ID: '922' User name: 'AndrewJ.Walford' User skill set: 'T4'",
      "lastReviewDate": "2021-08-03",
      "contact": [ {
        "telecom": [ {
          "system": "phone",
          "value": "07798501130"
        } ]
      } ],
      "subjectType": [ "Patient" ],
      "item": [ {
        "linkId": "1766759",
        "prefix": "3300",
        "text": "STRING:ShockAsked",
        "type": "choice",
        "required": true,
        "repeats": false,
        "option": [ {
          "valueString": "\"\"present\"\", Selected: true"
        } ]
      } ]
    }
  }, {
    "fullUrl": "urn:uuid:787ea49a-697d-4902-9d2c-26b29fd624ef",
    "resource": {
      "resourceType": "QuestionnaireResponse",
      "id": "787ea49a-697d-4902-9d2c-26b29fd624ef",
      "identifier": {
        "value": "1766759"
      },
      "questionnaire": {
        "reference": "urn:uuid:2f6463ce-9eae-420c-b204-91e04cee3a62"
      },
      "status": "completed",
      "subject": {
        "reference": "urn:uuid:d12aad63-a796-4862-b375-de9b476b269f"
      },
      "context": {
        "reference": "urn:uuid:ab58f0f4-4a05-4f8f-a677-d2a70c16924e"
      },
      "authored": "2021-08-03T13:07:14+00:00"
    }
  }, {
    "fullUrl": "urn:uuid:2f6463ce-9eae-420c-b204-91e04cee3a62",
    "resource": {
      "resourceType": "Questionnaire",
      "id": "2f6463ce-9eae-420c-b204-91e04cee3a62",
      "identifier": [ {
        "value": "1766759"
      } ],
      "version": "2021-08-03T13:07:14.000Z",
      "status": "active",
      "experimental": false,
      "date": "2021-08-03T13:07:14+00:00",
      "publisher": "User ID: '922' User name: 'AndrewJ.Walford' User skill set: 'T4'",
      "lastReviewDate": "2021-08-03",
      "contact": [ {
        "telecom": [ {
          "system": "phone",
          "value": "07798501130"
        } ]
      } ],
      "subjectType": [ "Patient" ]
    }
  }, {
    "fullUrl": "urn:uuid:d8f9bc3f-e666-4a11-be82-e64a84d310eb",
    "resource": {
      "resourceType": "QuestionnaireResponse",
      "id": "d8f9bc3f-e666-4a11-be82-e64a84d310eb",
      "identifier": {
        "value": "1766759"
      },
      "questionnaire": {
        "reference": "urn:uuid:c27ebeaf-c201-4936-bf3e-60cae601ceab"
      },
      "status": "completed",
      "subject": {
        "reference": "urn:uuid:d12aad63-a796-4862-b375-de9b476b269f"
      },
      "context": {
        "reference": "urn:uuid:ab58f0f4-4a05-4f8f-a677-d2a70c16924e"
      },
      "authored": "2021-08-03T13:07:14+00:00",
      "item": [ {
        "linkId": "Tx222984",
        "text": "WHAT IS THE MAIN PROBLEM?",
        "answer": [ {
          "valueString": "more"
        } ]
      } ]
    }
  }, {
    "fullUrl": "urn:uuid:c27ebeaf-c201-4936-bf3e-60cae601ceab",
    "resource": {
      "resourceType": "Questionnaire",
      "id": "c27ebeaf-c201-4936-bf3e-60cae601ceab",
      "identifier": [ {
        "value": "1766759"
      } ],
      "version": "2021-08-03T13:07:14.000Z",
      "status": "active",
      "experimental": false,
      "date": "2021-08-03T13:07:14+00:00",
      "publisher": "User ID: '922' User name: 'AndrewJ.Walford' User skill set: 'T4'",
      "lastReviewDate": "2021-08-03",
      "contact": [ {
        "telecom": [ {
          "system": "phone",
          "value": "07798501130"
        } ]
      } ],
      "subjectType": [ "Patient" ],
      "item": [ {
        "linkId": "1766759",
        "prefix": "0",
        "text": "WHAT IS THE MAIN PROBLEM?",
        "type": "choice",
        "required": true,
        "repeats": false,
        "option": [ {
          "valueString": "a rash, Selected: false"
        }, {
          "valueString": "itch, Selected: false"
        }, {
          "valueString": "yellow skin, Selected: false"
        }, {
          "valueString": "skin lumps, Selected: false"
        }, {
          "valueString": "easy or unexplained bruising, Selected: false"
        }, {
          "valueString": "more, Selected: true"
        } ]
      } ]
    }
  }, {
    "fullUrl": "urn:uuid:f33cf4e9-ac29-4107-92e5-3f055d96a689",
    "resource": {
      "resourceType": "QuestionnaireResponse",
      "id": "f33cf4e9-ac29-4107-92e5-3f055d96a689",
      "identifier": {
        "value": "1766759"
      },
      "questionnaire": {
        "reference": "urn:uuid:99735bb6-57be-4635-8d00-dd943826f705"
      },
      "status": "completed",
      "subject": {
        "reference": "urn:uuid:d12aad63-a796-4862-b375-de9b476b269f"
      },
      "context": {
        "reference": "urn:uuid:ab58f0f4-4a05-4f8f-a677-d2a70c16924e"
      },
      "authored": "2021-08-03T13:07:14+00:00",
      "item": [ {
        "linkId": "Tx222985",
        "text": "WHAT IS THE MAIN PROBLEM?",
        "answer": [ {
          "valueString": "declared head lice"
        } ]
      } ]
    }
  }, {
    "fullUrl": "urn:uuid:99735bb6-57be-4635-8d00-dd943826f705",
    "resource": {
      "resourceType": "Questionnaire",
      "id": "99735bb6-57be-4635-8d00-dd943826f705",
      "identifier": [ {
        "value": "1766759"
      } ],
      "version": "2021-08-03T13:07:14.000Z",
      "status": "active",
      "experimental": false,
      "date": "2021-08-03T13:07:14+00:00",
      "publisher": "User ID: '922' User name: 'AndrewJ.Walford' User skill set: 'T4'",
      "lastReviewDate": "2021-08-03",
      "contact": [ {
        "telecom": [ {
          "system": "phone",
          "value": "07798501130"
        } ]
      } ],
      "subjectType": [ "Patient" ],
      "item": [ {
        "linkId": "1766759",
        "prefix": "700",
        "text": "WHAT IS THE MAIN PROBLEM?",
        "type": "choice",
        "required": true,
        "repeats": false,
        "option": [ {
          "valueString": "declared head lice, Selected: true"
        }, {
          "valueString": "declared pubic lice, Selected: false"
        }, {
          "valueString": "declared scabies, Selected: false"
        }, {
          "valueString": "declared athlete's foot, Selected: false"
        }, {
          "valueString": "acne, spots or pimples, Selected: false"
        }, {
          "valueString": "more, Selected: false"
        } ]
      } ]
    }
  }, {
    "fullUrl": "urn:uuid:50c7b10f-f706-43cb-a3ed-a1c592a1b28b",
    "resource": {
      "resourceType": "QuestionnaireResponse",
      "id": "50c7b10f-f706-43cb-a3ed-a1c592a1b28b",
      "identifier": {
        "value": "1766759"
      },
      "questionnaire": {
        "reference": "urn:uuid:84d05c96-6737-4fe6-b79f-fb67228d617a"
      },
      "status": "completed",
      "subject": {
        "reference": "urn:uuid:d12aad63-a796-4862-b375-de9b476b269f"
      },
      "context": {
        "reference": "urn:uuid:ab58f0f4-4a05-4f8f-a677-d2a70c16924e"
      },
      "authored": "2021-08-03T13:07:14+00:00",
      "item": [ {
        "linkId": "Tx220667",
        "text": "Have you been in contact with somebody with head lice or nits?",
        "answer": [ {
          "valueString": "yes"
        } ]
      } ]
    }
  }, {
    "fullUrl": "urn:uuid:84d05c96-6737-4fe6-b79f-fb67228d617a",
    "resource": {
      "resourceType": "Questionnaire",
      "id": "84d05c96-6737-4fe6-b79f-fb67228d617a",
      "identifier": [ {
        "value": "1766759"
      } ],
      "version": "2021-08-03T13:07:14.000Z",
      "status": "active",
      "experimental": false,
      "date": "2021-08-03T13:07:14+00:00",
      "publisher": "User ID: '922' User name: 'AndrewJ.Walford' User skill set: 'T4'",
      "lastReviewDate": "2021-08-03",
      "contact": [ {
        "telecom": [ {
          "system": "phone",
          "value": "07798501130"
        } ]
      } ],
      "subjectType": [ "Patient" ],
      "item": [ {
        "linkId": "1766759",
        "prefix": "0",
        "text": "Have you been in contact with somebody with head lice or nits?",
        "type": "choice",
        "required": true,
        "repeats": false,
        "option": [ {
          "valueString": "yes, Selected: true"
        }, {
          "valueString": "not sure, Selected: false"
        }, {
          "valueString": "no, Selected: false"
        } ]
      } ]
    }
  }, {
    "fullUrl": "urn:uuid:99b1d5dc-c771-42f5-9b3a-6d2f7d5396de",
    "resource": {
      "resourceType": "QuestionnaireResponse",
      "id": "99b1d5dc-c771-42f5-9b3a-6d2f7d5396de",
      "identifier": {
        "value": "1766759"
      },
      "questionnaire": {
        "reference": "urn:uuid:4e8f866c-dda5-4b06-b47c-08446cce5acd"
      },
      "status": "completed",
      "subject": {
        "reference": "urn:uuid:d12aad63-a796-4862-b375-de9b476b269f"
      },
      "context": {
        "reference": "urn:uuid:ab58f0f4-4a05-4f8f-a677-d2a70c16924e"
      },
      "authored": "2021-08-03T13:07:14+00:00",
      "item": [ {
        "linkId": "Tx220664",
        "text": "Have you lost patches or clumps of hair OVER THE LAST FEW WEEKS?",
        "answer": [ {
          "valueString": "yes"
        } ]
      } ]
    }
  }, {
    "fullUrl": "urn:uuid:4e8f866c-dda5-4b06-b47c-08446cce5acd",
    "resource": {
      "resourceType": "Questionnaire",
      "id": "4e8f866c-dda5-4b06-b47c-08446cce5acd",
      "identifier": [ {
        "value": "1766759"
      } ],
      "version": "2021-08-03T13:07:14.000Z",
      "status": "active",
      "experimental": false,
      "date": "2021-08-03T13:07:14+00:00",
      "publisher": "User ID: '922' User name: 'AndrewJ.Walford' User skill set: 'T4'",
      "lastReviewDate": "2021-08-03",
      "contact": [ {
        "telecom": [ {
          "system": "phone",
          "value": "07798501130"
        } ]
      } ],
      "subjectType": [ "Patient" ],
      "item": [ {
        "linkId": "1766759",
        "prefix": "300",
        "text": "Have you lost patches or clumps of hair OVER THE LAST FEW WEEKS?",
        "type": "choice",
        "required": true,
        "repeats": false,
        "option": [ {
          "valueString": "yes, Selected: true"
        }, {
          "valueString": "not sure, Selected: false"
        }, {
          "valueString": "no, Selected: false"
        } ]
      } ]
    }
  }, {
    "fullUrl": "urn:uuid:83f899b5-5502-4392-805a-c731d29dd3fb",
    "resource": {
      "resourceType": "QuestionnaireResponse",
      "id": "83f899b5-5502-4392-805a-c731d29dd3fb",
      "identifier": {
        "value": "1766759"
      },
      "questionnaire": {
        "reference": "urn:uuid:17b334b5-3031-42cb-a666-9b1e434a17a6"
      },
      "status": "completed",
      "subject": {
        "reference": "urn:uuid:d12aad63-a796-4862-b375-de9b476b269f"
      },
      "context": {
        "reference": "urn:uuid:ab58f0f4-4a05-4f8f-a677-d2a70c16924e"
      },
      "authored": "2021-08-03T13:07:14+00:00",
      "item": [ {
        "linkId": "Tx221449",
        "text": "STRING:SDPCFullPrimaryCareassessmentandprescribingcapability",
        "answer": [ {
          "valueString": "\"\"PC full Primary Care assessment and prescribing capability\"\""
        } ]
      } ]
    }
  }, {
    "fullUrl": "urn:uuid:17b334b5-3031-42cb-a666-9b1e434a17a6",
    "resource": {
      "resourceType": "Questionnaire",
      "id": "17b334b5-3031-42cb-a666-9b1e434a17a6",
      "identifier": [ {
        "value": "1766759"
      } ],
      "version": "2021-08-03T13:07:14.000Z",
      "status": "active",
      "experimental": false,
      "date": "2021-08-03T13:07:14+00:00",
      "publisher": "User ID: '922' User name: 'AndrewJ.Walford' User skill set: 'T4'",
      "lastReviewDate": "2021-08-03",
      "contact": [ {
        "telecom": [ {
          "system": "phone",
          "value": "07798501130"
        } ]
      } ],
      "subjectType": [ "Patient" ],
      "item": [ {
        "linkId": "1766759",
        "prefix": "500",
        "text": "STRING:SDPCFullPrimaryCareassessmentandprescribingcapability",
        "type": "choice",
        "required": true,
        "repeats": false,
        "option": [ {
          "valueString": "\"\"PC full Primary Care assessment and prescribing capability\"\", Selected: true"
        } ]
      } ]
    }
  }, {
    "fullUrl": "urn:uuid:4db53d83-67ad-47e8-b84d-dca584125ae3",
    "resource": {
      "resourceType": "QuestionnaireResponse",
      "id": "4db53d83-67ad-47e8-b84d-dca584125ae3",
      "identifier": {
        "value": "1766759"
      },
      "questionnaire": {
        "reference": "urn:uuid:55754ee3-8f9c-4fa5-979e-463b37da52fa"
      },
      "status": "completed",
      "subject": {
        "reference": "urn:uuid:d12aad63-a796-4862-b375-de9b476b269f"
      },
      "context": {
        "reference": "urn:uuid:ab58f0f4-4a05-4f8f-a677-d2a70c16924e"
      },
      "authored": "2021-08-03T13:07:14+00:00"
    }
  }, {
    "fullUrl": "urn:uuid:55754ee3-8f9c-4fa5-979e-463b37da52fa",
    "resource": {
      "resourceType": "Questionnaire",
      "id": "55754ee3-8f9c-4fa5-979e-463b37da52fa",
      "identifier": [ {
        "value": "1766759"
      } ],
      "version": "2021-08-03T13:07:14.000Z",
      "status": "active",
      "experimental": false,
      "date": "2021-08-03T13:07:14+00:00",
      "publisher": "User ID: '922' User name: 'AndrewJ.Walford' User skill set: 'T4'",
      "lastReviewDate": "2021-08-03",
      "contact": [ {
        "telecom": [ {
          "system": "phone",
          "value": "07798501130"
        } ]
      } ],
      "subjectType": [ "Patient" ]
    }
  }, {
    "fullUrl": "urn:uuid:8c0e1af8-150c-4bf3-9e1c-116addc87010",
    "resource": {
      "resourceType": "QuestionnaireResponse",
      "id": "8c0e1af8-150c-4bf3-9e1c-116addc87010",
      "identifier": {
        "value": "1766759"
      },
      "questionnaire": {
        "reference": "urn:uuid:0cdb092a-08fd-4592-ba48-76cb014697e1"
      },
      "status": "completed",
      "subject": {
        "reference": "urn:uuid:d12aad63-a796-4862-b375-de9b476b269f"
      },
      "context": {
        "reference": "urn:uuid:ab58f0f4-4a05-4f8f-a677-d2a70c16924e"
      },
      "authored": "2021-08-03T13:07:14+00:00",
      "item": [ {
        "linkId": "N/A"
      } ]
    }
  }, {
    "fullUrl": "urn:uuid:0cdb092a-08fd-4592-ba48-76cb014697e1",
    "resource": {
      "resourceType": "Questionnaire",
      "id": "0cdb092a-08fd-4592-ba48-76cb014697e1",
      "identifier": [ {
        "value": "1766759"
      } ],
      "version": "2021-08-03T13:07:14.000Z",
      "status": "active",
      "experimental": false,
      "date": "2021-08-03T13:07:14+00:00",
      "publisher": "User ID: '922' User name: 'AndrewJ.Walford' User skill set: 'T4'",
      "lastReviewDate": "2021-08-03",
      "contact": [ {
        "telecom": [ {
          "system": "phone",
          "value": "07798501130"
        } ]
      } ],
      "subjectType": [ "Patient" ],
      "item": [ {
        "linkId": "1766759",
        "type": "choice",
        "required": true,
        "repeats": false,
        "option": [ {
          "valueString": ", Selected: false"
        } ]
      } ]
    }
  }, {
    "fullUrl": "urn:uuid:dbd282ff-db0f-42ba-8635-c39ff279ab45",
    "resource": {
      "resourceType": "QuestionnaireResponse",
      "id": "dbd282ff-db0f-42ba-8635-c39ff279ab45",
      "identifier": {
        "value": "1766759"
      },
      "questionnaire": {
        "reference": "urn:uuid:d9134d46-be37-4539-b3e5-4810ab2ee256"
      },
      "status": "completed",
      "subject": {
        "reference": "urn:uuid:d12aad63-a796-4862-b375-de9b476b269f"
      },
      "context": {
        "reference": "urn:uuid:ab58f0f4-4a05-4f8f-a677-d2a70c16924e"
      },
      "authored": "2021-08-03T13:07:14+00:00"
    }
  }, {
    "fullUrl": "urn:uuid:d9134d46-be37-4539-b3e5-4810ab2ee256",
    "resource": {
      "resourceType": "Questionnaire",
      "id": "d9134d46-be37-4539-b3e5-4810ab2ee256",
      "identifier": [ {
        "value": "1766759"
      } ],
      "version": "2021-08-03T13:07:14.000Z",
      "status": "active",
      "experimental": false,
      "date": "2021-08-03T13:07:14+00:00",
      "publisher": "User ID: '922' User name: 'AndrewJ.Walford' User skill set: 'T4'",
      "lastReviewDate": "2021-08-03",
      "contact": [ {
        "telecom": [ {
          "system": "phone",
          "value": "07798501130"
        } ]
      } ],
      "subjectType": [ "Patient" ]
    }
  }, {
    "fullUrl": "urn:uuid:f4d31ca5-7dcb-4244-888e-6f0c2a9f6953",
    "resource": {
      "resourceType": "Observation",
      "id": "f4d31ca5-7dcb-4244-888e-6f0c2a9f6953",
      "status": "final",
      "code": {
        "coding": [ {
          "system": "http://snomed.info/sct",
          "code": "33962009",
          "display": "Presenting complaint"
        } ]
      },
      "subject": {
        "reference": "urn:uuid:d12aad63-a796-4862-b375-de9b476b269f"
      },
      "context": {
        "reference": "urn:uuid:ab58f0f4-4a05-4f8f-a677-d2a70c16924e"
      }
    }
  }, {
    "fullUrl": "urn:uuid:6c852738-7b95-4f2f-a887-ebd47fb756a3",
    "resource": {
      "resourceType": "PractitionerRole",
      "id": "6c852738-7b95-4f2f-a887-ebd47fb756a3",
      "practitioner": {
        "reference": "urn:uuid:e8733c4c-b73b-4e74-9f56-d761d9f714c1"
      },
      "organization": {
        "reference": "urn:uuid:46bed45a-d37b-410a-96cd-fb49c141131f"
      },
      "code": [ {
        "coding": [ {
          "system": "2.16.840.1.113883.2.1.3.2.4.17.339",
          "code": "NP",
          "display": "Nurse Practitioner"
        } ]
      } ]
    }
  }, {
    "fullUrl": "urn:uuid:46bed45a-d37b-410a-96cd-fb49c141131f",
    "resource": {
      "resourceType": "Organization",
      "id": "46bed45a-d37b-410a-96cd-fb49c141131f",
      "identifier": [ {
        "value": "RX7"
      } ],
      "name": "NWAS 111"
    }
  }, {
    "fullUrl": "urn:uuid:792ed9f9-fe13-4cef-b222-993bd34c2d5b",
    "resource": {
      "resourceType": "RelatedPerson",
      "id": "792ed9f9-fe13-4cef-b222-993bd34c2d5b",
      "patient": {
        "reference": "urn:uuid:d12aad63-a796-4862-b375-de9b476b269f"
      },
      "relationship": {
        "coding": [ {
          "system": "http://hl7.org/fhir/v2/0131",
          "code": "C",
          "display": "Emergency Contact"
        } ]
      },
      "telecom": [ {
        "system": "phone",
        "value": "tel:07798501130"
      } ]
    }
  }, {
    "fullUrl": "urn:uuid:225ab197-b096-4185-a9e7-d6629d4fb96c",
    "resource": {
      "resourceType": "Device",
      "id": "225ab197-b096-4185-a9e7-d6629d4fb96c",
      "model": "111 Adaptor",
      "version": "1.0.1"
    }
  }, {
    "fullUrl": "urn:uuid:909d247e-98d9-438e-b78f-c33250c16f9a",
    "resource": {
      "resourceType": "List",
      "id": "909d247e-98d9-438e-b78f-c33250c16f9a",
      "status": "current",
      "mode": "working",
      "title": "111 Report List",
      "code": {
        "coding": [ {
          "system": "http://snomed.info/sct",
          "code": "225390008",
          "display": "Triage"
        } ]
      },
      "subject": {
        "reference": "urn:uuid:d12aad63-a796-4862-b375-de9b476b269f"
      },
      "encounter": {
        "reference": "urn:uuid:ab58f0f4-4a05-4f8f-a677-d2a70c16924e"
      },
      "date": "2021-08-03T13:07:14+00:00",
      "source": {
        "reference": "urn:uuid:225ab197-b096-4185-a9e7-d6629d4fb96c"
      },
      "orderedBy": {
        "coding": [ {
          "system": "http://hl7.org/fhir/list-order",
          "code": "event-date",
          "display": "Sorted by Event Date"
        } ]
      },
      "entry": [ {
        "item": {
          "reference": "urn:uuid:46bed45a-d37b-410a-96cd-fb49c141131f"
        }
      }, {
        "item": {
          "reference": "urn:uuid:b3d6502f-7cd4-4e11-ab2d-8fb89f9cc01a"
        }
      }, {
        "item": {
          "reference": "urn:uuid:e8733c4c-b73b-4e74-9f56-d761d9f714c1"
        }
      }, {
        "item": {
          "reference": "urn:uuid:f4d31ca5-7dcb-4244-888e-6f0c2a9f6953"
        }
      }, {
        "item": {
          "reference": "urn:uuid:e83d3555-b908-4463-93a9-6fba5f4b27bc"
        }
      }, {
        "item": {
          "reference": "urn:uuid:bc332d4d-6356-40e9-a443-e1d3686a506b"
        }
      }, {
        "item": {
          "reference": "urn:uuid:332f9571-9fbc-4d6e-875a-e69ceed1035f"
        }
      }, {
        "item": {
          "reference": "urn:uuid:792ed9f9-fe13-4cef-b222-993bd34c2d5b"
        }
      }, {
        "item": {
          "reference": "urn:uuid:1b110d7f-4477-4fe1-91ac-0cf950ec2ae1"
        }
      }, {
        "item": {
          "reference": "urn:uuid:1ed24ee1-3c30-48b5-a1b6-8b2e7ababbbf"
        }
      }, {
        "item": {
          "reference": "urn:uuid:76a4102b-9fa9-4990-a8b0-282a60c2a4ad"
        }
      }, {
        "item": {
          "reference": "urn:uuid:58b9ac8c-8064-4bda-9e72-ae2f6d988fa9"
        }
      }, {
        "item": {
          "reference": "urn:uuid:92d0de2f-2cae-482b-befc-07e2c8b8b5e3"
        }
      }, {
        "item": {
          "reference": "urn:uuid:83f899b5-5502-4392-805a-c731d29dd3fb"
        }
      }, {
        "item": {
          "reference": "urn:uuid:48c70bd0-d848-4875-b2b0-485f5335a6b3"
        }
      }, {
        "item": {
          "reference": "urn:uuid:b08b426d-b257-4150-9516-69e732e6af88"
        }
      }, {
        "item": {
          "reference": "urn:uuid:84d05c96-6737-4fe6-b79f-fb67228d617a"
        }
      }, {
        "item": {
          "reference": "urn:uuid:55754ee3-8f9c-4fa5-979e-463b37da52fa"
        }
      }, {
        "item": {
          "reference": "urn:uuid:2732dd95-f0c8-43ea-abf3-61317beaada6"
        }
      }, {
        "item": {
          "reference": "urn:uuid:f9119f1a-6936-4e51-864d-c6081785dc39"
        }
      }, {
        "item": {
          "reference": "urn:uuid:4db53d83-67ad-47e8-b84d-dca584125ae3"
        }
      }, {
        "item": {
          "reference": "urn:uuid:3690b6c5-74dc-4402-aeca-13596db5c650"
        }
      }, {
        "item": {
          "reference": "urn:uuid:d8f9bc3f-e666-4a11-be82-e64a84d310eb"
        }
      }, {
        "item": {
          "reference": "urn:uuid:959be27a-c1c9-49ec-a8e6-283a1f0f74ce"
        }
      }, {
        "item": {
          "reference": "urn:uuid:ff5183de-c8ec-4d21-a942-080350d59489"
        }
      }, {
        "item": {
          "reference": "urn:uuid:c69cbf53-6c52-45bb-8303-21c310e7022c"
        }
      }, {
        "item": {
          "reference": "urn:uuid:8f2c2986-7c68-4552-bb0e-a61b82689c2c"
        }
      }, {
        "item": {
          "reference": "urn:uuid:2f6463ce-9eae-420c-b204-91e04cee3a62"
        }
      }, {
        "item": {
          "reference": "urn:uuid:c27ebeaf-c201-4936-bf3e-60cae601ceab"
        }
      }, {
        "item": {
          "reference": "urn:uuid:0cdb092a-08fd-4592-ba48-76cb014697e1"
        }
      }, {
        "item": {
          "reference": "urn:uuid:99b1d5dc-c771-42f5-9b3a-6d2f7d5396de"
        }
      }, {
        "item": {
          "reference": "urn:uuid:f5ac16c6-3fef-451e-8eb9-90c497a436a6"
        }
      }, {
        "item": {
          "reference": "urn:uuid:4e8f866c-dda5-4b06-b47c-08446cce5acd"
        }
      }, {
        "item": {
          "reference": "urn:uuid:361737d7-06c8-4cd3-8322-67866569a866"
        }
      }, {
        "item": {
          "reference": "urn:uuid:d9134d46-be37-4539-b3e5-4810ab2ee256"
        }
      }, {
        "item": {
          "reference": "urn:uuid:191ab6e6-a7d3-4fad-b857-44a841915641"
        }
      }, {
        "item": {
          "reference": "urn:uuid:787ea49a-697d-4902-9d2c-26b29fd624ef"
        }
      }, {
        "item": {
          "reference": "urn:uuid:0b268ea4-14e1-4a75-8d1b-8b2bc810b39a"
        }
      }, {
        "item": {
          "reference": "urn:uuid:50c7b10f-f706-43cb-a3ed-a1c592a1b28b"
        }
      }, {
        "item": {
          "reference": "urn:uuid:a4f64024-68c6-46c0-81e6-31335e5616dc"
        }
      }, {
        "item": {
          "reference": "urn:uuid:8c0e1af8-150c-4bf3-9e1c-116addc87010"
        }
      }, {
        "item": {
          "reference": "urn:uuid:99735bb6-57be-4635-8d00-dd943826f705"
        }
      }, {
        "item": {
          "reference": "urn:uuid:633684a4-942d-423d-89ea-b0834efe366f"
        }
      }, {
        "item": {
          "reference": "urn:uuid:48bc729a-126d-42ad-8439-cd0d038d850e"
        }
      }, {
        "item": {
          "reference": "urn:uuid:831d627c-5f60-46dd-b7c7-b71b18775ad0"
        }
      }, {
        "item": {
          "reference": "urn:uuid:d10d2f61-80c7-4c79-a70e-114e65850117"
        }
      }, {
        "item": {
          "reference": "urn:uuid:f33cf4e9-ac29-4107-92e5-3f055d96a689"
        }
      }, {
        "item": {
          "reference": "urn:uuid:d9eaf273-d0d9-4460-96f2-f1e4d91ed53c"
        }
      }, {
        "item": {
          "reference": "urn:uuid:84a56ccc-6891-4998-899c-0435c613979d"
        }
      }, {
        "item": {
          "reference": "urn:uuid:17b334b5-3031-42cb-a666-9b1e434a17a6"
        }
      }, {
        "item": {
          "reference": "urn:uuid:dbd282ff-db0f-42ba-8635-c39ff279ab45"
        }
      }, {
        "item": {
          "reference": "urn:uuid:9358728b-2e46-4849-ae02-2eb1f3d8e132"
        }
      }, {
        "item": {
          "reference": "urn:uuid:62b19a81-2319-4d7a-92cc-f8430939ef2a"
        }
      } ]
    }
  } ]
}