{
    "resourceType": "Bundle",
    "identifier": {
        "type": {
            "text": "ClinicalDocument VersionNumber"
        },
        "value": "1"
    },
    "type": "message",
    "entry": [
        {
            "fullUrl": "urn:uuid:B447241A-CEBD-41DF-AC62-46FE8022876F",
            "resource": {
                "resourceType": "MessageHeader",
                "id": "B447241A-CEBD-41DF-AC62-46FE8022876F",
                "event": {
                    "system": "https://fhir.nhs.uk/STU3/CodeSystem/EventType-1",
                    "code": "referral-1",
                    "display": "Referral"
                },
                "destination": [
                    {
                        "endpoint": "urn:nhs-uk:addressing:ods:Y02837001:DOSServiceID:1340268940"
                    }
                ],
                "timestamp": "2021-08-03T13:04:53.000+00:00",
                "source": {
                    "name": "NHS 111 Adaptor",
                    "endpoint": "http://localhost:8080/report"
                },
                "reason": {
                    "coding": [
                        {
                            "system": "urn:nhs-itk:ns:201005:interaction",
                            "code": "urn:nhs-itk:interaction:primaryOutofHourRecipientNHS111CDADocument-v2-0"
                        }
                    ]
                }
            }
        },
        {
            "fullUrl": "urn:uuid:54188e86-c485-4a6d-8e51-d56bf7a8a1fe",
            "resource": {
                "resourceType": "Encounter",
                "id": "54188e86-c485-4a6d-8e51-d56bf7a8a1fe",
                "identifier": [
                    {
                        "system": "2.16.840.1.113883.2.1.3.2.4.18.49",
                        "value": "0163118D-0756-4A98-8F34-458721C6481F"
                    },
                    {
                        "system": "2.16.840.1.113883.2.1.3.2.4.18.34",
                        "value": "1766749"
                    },
                    {
                        "system": "2.16.840.1.113883.2.1.3.2.4.18.35",
                        "value": "1766749"
                    }
                ],
                "status": "finished",
                "type": [
                    {
                        "text": "111 Encounter Referral"
                    }
                ],
                "subject": {
                    "reference": "urn:uuid:e7823ace-7c32-4b99-93fb-0e63579d5cd5"
                },
                "participant": [
                    {
                        "type": [
                            {
                                "coding": [
                                    {
                                        "system": "http://hl7.org/fhir/ValueSet/encounter-participant-type",
                                        "code": "PPRF",
                                        "display": "Author"
                                    }
                                ]
                            }
                        ],
                        "individual": {
                            "reference": "urn:uuid:29005013-bbd4-4c9a-9008-46228a65876e"
                        }
                    }
                ],
                "period": {
                    "start": "2021-08-03T13:04:53+00:00"
                },
                "location": [
                    {
                        "location": {
                            "reference": "urn:uuid:7d174286-479d-48a4-94db-6bf68e4880ba"
                        },
                        "status": "completed"
                    }
                ],
                "serviceProvider": {
                    "reference": "urn:uuid:66915df8-0121-415d-beb1-894eac4d9dfd"
                }
            }
        },
        {
            "fullUrl": "urn:uuid:66915df8-0121-415d-beb1-894eac4d9dfd",
            "resource": {
                "resourceType": "Organization",
                "id": "66915df8-0121-415d-beb1-894eac4d9dfd",
                "active": true,
                "type": [
                    {
                        "text": "CST"
                    }
                ],
                "name": "NWAS 111"
            }
        },
        {
            "fullUrl": "urn:uuid:29005013-bbd4-4c9a-9008-46228a65876e",
            "resource": {
                "resourceType": "Practitioner",
                "id": "29005013-bbd4-4c9a-9008-46228a65876e",
                "active": true,
                "name": [
                    {
                        "text": "AndrewJ.Walford"
                    }
                ]
            }
        },
        {
            "fullUrl": "urn:uuid:7d174286-479d-48a4-94db-6bf68e4880ba",
            "resource": {
                "resourceType": "Location",
                "id": "7d174286-479d-48a4-94db-6bf68e4880ba",
                "address": {
                    "type": "physical",
                    "line": [
                        "Fleetwood Health & Wellbeing Centre",
                        "Dock Street",
                        "Fleetwood"
                    ],
                    "postalCode": "FY7 6HP"
                }
            }
        },
        {
            "fullUrl": "urn:uuid:e7823ace-7c32-4b99-93fb-0e63579d5cd5",
            "resource": {
                "resourceType": "Patient",
                "id": "e7823ace-7c32-4b99-93fb-0e63579d5cd5",
                "active": true,
                "name": [
                    {
                        "use": "official",
                        "family": "Please Disregard",
                        "given": [
                            "Dx10 Test"
                        ]
                    }
                ],
                "telecom": [
                    {
                        "system": "phone",
                        "value": "tel:07798501130",
                        "use": "mobile"
                    },
                    {
                        "system": "phone",
                        "value": "tel:07798501130"
                    }
                ],
                "gender": "male",
                "birthDate": "1980-01-01",
                "address": [
                    {
                        "use": "home",
                        "line": [
                            "Fleetwood Health & Wellbeing Centre",
                            "Dock Street",
                            "Fleetwood"
                        ],
                        "postalCode": "FY7 6HP"
                    },
                    {
                        "type": "physical",
                        "line": [
                            "Fleetwood Health & Wellbeing Centre",
                            "Dock Street",
                            "Fleetwood"
                        ],
                        "postalCode": "FY7 6HP"
                    }
                ]
            }
        },
        {
            "fullUrl": "urn:uuid:b46de858-050c-4fd5-86ab-ee62df95d570",
            "resource": {
                "resourceType": "HealthcareService",
                "id": "b46de858-050c-4fd5-86ab-ee62df95d570",
                "active": true,
                "providedBy": {
                    "reference": "urn:uuid:06f0cd89-ab9f-4216-aa34-1cade53667b2"
                },
                "location": [
                    {
                        "reference": "urn:uuid:d8017801-ce54-4bab-85bb-f1e775e8c8c8"
                    }
                ],
                "name": "Urgent Treatment Centre - Minor Injury Unit Same Day Health Cent",
                "telecom": [
                    {
                        "system": "phone",
                        "value": "tel:03001231144NP:01253955551",
                        "use": "work"
                    }
                ]
            }
        },
        {
            "fullUrl": "urn:uuid:d8017801-ce54-4bab-85bb-f1e775e8c8c8",
            "resource": {
                "resourceType": "Location",
                "id": "d8017801-ce54-4bab-85bb-f1e775e8c8c8",
                "telecom": [
                    {
                        "system": "phone",
                        "value": "tel:03001231144NP:01253955551",
                        "use": "work"
                    }
                ],
                "address": {
                    "use": "work",
                    "line": [
                        "x",
                        "x",
                        "x"
                    ],
                    "postalCode": "FY7 6HP"
                },
                "managingOrganization": {
                    "reference": "urn:uuid:06f0cd89-ab9f-4216-aa34-1cade53667b2"
                }
            }
        },
        {
            "fullUrl": "urn:uuid:06f0cd89-ab9f-4216-aa34-1cade53667b2",
            "resource": {
                "resourceType": "Organization",
                "id": "06f0cd89-ab9f-4216-aa34-1cade53667b2",
                "identifier": [
                    {
                        "value": "Y02837001"
                    }
                ],
                "type": [
                    {
                        "coding": [
                            {
                                "code": "PRCP",
                                "display": "Urgent Treatment Centre - Minor Injury Unit Same Day Health Cent"
                            }
                        ]
                    }
                ],
                "name": "Urgent Treatment Centre - Minor Injury Unit Same Day Health Cent"
            }
        },
        {
            "fullUrl": "urn:uuid:1281cff9-7bec-47bb-81b7-90711d8ccc72",
            "resource": {
                "resourceType": "ReferralRequest",
                "id": "1281cff9-7bec-47bb-81b7-90711d8ccc72",
                "status": "active",
                "intent": "plan",
                "priority": "routine",
                "subject": {
                    "reference": "urn:uuid:e7823ace-7c32-4b99-93fb-0e63579d5cd5"
                },
                "context": {
                    "reference": "urn:uuid:54188e86-c485-4a6d-8e51-d56bf7a8a1fe"
                },
                "occurrencePeriod": {
                    "start": "2021-09-10T15:50:09+00:00",
                    "end": "2021-09-10T16:50:09+00:00"
                },
                "authoredOn": "2021-08-03T12:35:22+00:00",
                "requester": {
                    "agent": {
                        "reference": "urn:uuid:3be5a7f9-7895-4e92-956e-3ab3ac0da442"
                    },
                    "onBehalfOf": {
                        "reference": "urn:uuid:66915df8-0121-415d-beb1-894eac4d9dfd"
                    }
                },
                "recipient": [
                    {
                        "reference": "urn:uuid:a8160a07-6b1c-4169-a426-4364ffab2cf8"
                    },
                    {
                        "reference": "urn:uuid:b46de858-050c-4fd5-86ab-ee62df95d570"
                    }
                ],
                "reasonReference": [
                    {
                        "reference": "urn:uuid:1aaaaf41-19c7-4ee4-b0f5-b3fc6a9aa5ff"
                    }
                ],
                "supportingInfo": [
                    {
                        "reference": "urn:uuid:3db69893-4814-4bf7-a859-2f54d83b1635"
                    }
                ]
            }
        },
        {
            "fullUrl": "urn:uuid:3db69893-4814-4bf7-a859-2f54d83b1635",
            "resource": {
                "resourceType": "ProcedureRequest",
                "id": "3db69893-4814-4bf7-a859-2f54d83b1635",
                "status": "active",
                "intent": "plan",
                "priority": "routine",
                "doNotPerform": false,
                "code": {
                    "coding": [
                        {
                            "system": "2.16.840.1.113883.2.1.3.2.4.17.325",
                            "code": "Dx10",
                            "display": "Must Contact A Local Service For A Non-urgent Appointment"
                        }
                    ]
                },
                "subject": {
                    "reference": "urn:uuid:e7823ace-7c32-4b99-93fb-0e63579d5cd5"
                },
                "occurrencePeriod": {
                    "start": "2021-09-10T15:50:09+00:00",
                    "end": "2021-09-10T16:50:09+00:00"
                },
                "reasonReference": [
                    {
                        "reference": "urn:uuid:1aaaaf41-19c7-4ee4-b0f5-b3fc6a9aa5ff"
                    }
                ]
            }
        },
        {
            "fullUrl": "urn:uuid:a8160a07-6b1c-4169-a426-4364ffab2cf8",
            "resource": {
                "resourceType": "Practitioner",
                "id": "a8160a07-6b1c-4169-a426-4364ffab2cf8",
                "active": true,
                "telecom": [
                    {
                        "system": "phone",
                        "value": "tel:03001231144NP:01253955551",
                        "use": "work"
                    }
                ],
                "address": [
                    {
                        "type": "physical",
                        "line": [
                            "x",
                            "x",
                            "x"
                        ],
                        "postalCode": "FY7 6HP"
                    }
                ]
            }
        },
        {
            "fullUrl": "urn:uuid:0b959802-6bdc-47a6-941f-d85babbb71bc",
            "resource": {
                "resourceType": "Composition",
                "id": "0b959802-6bdc-47a6-941f-d85babbb71bc",
                "identifier": {
                    "use": "usual",
                    "value": "DEF337D1-08BF-4631-B11E-28F64349A031"
                },
                "status": "final",
                "type": {
                    "coding": [
                        {
                            "system": "http://snomed.info/sct",
                            "code": "371531000",
                            "display": "Report of clinical encounter (record artifact)"
                        }
                    ]
                },
                "subject": {
                    "reference": "urn:uuid:e7823ace-7c32-4b99-93fb-0e63579d5cd5"
                },
                "encounter": {
                    "reference": "urn:uuid:54188e86-c485-4a6d-8e51-d56bf7a8a1fe"
                },
                "date": "2021-09-10T15:50:09+00:00",
                "author": [
                    {
                        "reference": "urn:uuid:29005013-bbd4-4c9a-9008-46228a65876e"
                    }
                ],
                "title": "111 Report",
                "confidentiality": "N",
                "section": [
                    {
                        "section": [
                            {
                                "title": "Patient's Reported Condition",
                                "text": {
                                    "status": "generated",
                                    "div": "<div xmlns=\"http://www.w3.org/1999/xhtml\">&lt;xml-fragment xmlns:npfitlc=&quot;NPFIT:HL7:Localisation&quot;&gt;**test From Nwas111 - No Action Required - Please Disregard Test&lt;/xml-fragment&gt;</div>"
                                }
                            },
                            {
                                "title": "Case Summary",
                                "text": {
                                    "status": "generated",
                                    "div": "<div xmlns=\"http://www.w3.org/1999/xhtml\">&lt;xml-fragment xmlns:npfitlc=&quot;NPFIT:HL7:Localisation&quot;&gt;\n                                                    &lt;urn:content styleCode=&quot;bold&quot; xmlns:urn=&quot;urn:hl7-org:v3&quot;&gt;Pathways Disposition: Dx10&lt;/urn:content&gt;\n                                                    &lt;urn:br xmlns:urn=&quot;urn:hl7-org:v3&quot;/&gt;\n                                                    &lt;urn:content xmlns:urn=&quot;urn:hl7-org:v3&quot;&gt;Must Contact A Local Service For A Non-urgent Appointment User comment - '**Test From NWAS111 - No Action required - Please Disregard Test case**'&lt;/urn:content&gt;\n                                                    &lt;urn:br xmlns:urn=&quot;urn:hl7-org:v3&quot;/&gt;\n                                                    &lt;urn:br xmlns:urn=&quot;urn:hl7-org:v3&quot;/&gt;\n                                                    &lt;urn:content styleCode=&quot;bold&quot; xmlns:urn=&quot;urn:hl7-org:v3&quot;&gt;Consultation Summary:&lt;/urn:content&gt;\n                                                    &lt;urn:br xmlns:urn=&quot;urn:hl7-org:v3&quot;/&gt;\n                                                    &lt;urn:content xmlns:urn=&quot;urn:hl7-org:v3&quot;&gt;Illness - '**Test From NWAS111 - No Action required - Please Disregard Test case**'&lt;/urn:content&gt;\n                                                    &lt;urn:br xmlns:urn=&quot;urn:hl7-org:v3&quot;/&gt;\n                                                    &lt;urn:content xmlns:urn=&quot;urn:hl7-org:v3&quot;&gt;Warm to touch&lt;/urn:content&gt;\n                                                    &lt;urn:br xmlns:urn=&quot;urn:hl7-org:v3&quot;/&gt;\n                                                    &lt;urn:br xmlns:urn=&quot;urn:hl7-org:v3&quot;/&gt;\n                                                    &lt;urn:content styleCode=&quot;bold&quot; xmlns:urn=&quot;urn:hl7-org:v3&quot;&gt;Pathways Assessment:&lt;/urn:content&gt;\n                                                    &lt;urn:br xmlns:urn=&quot;urn:hl7-org:v3&quot;/&gt;\n                                                    &lt;urn:content xmlns:urn=&quot;urn:hl7-org:v3&quot;&gt;An injury or health problem was the reason for the contact.&lt;/urn:content&gt;\n                                                    &lt;urn:br xmlns:urn=&quot;urn:hl7-org:v3&quot;/&gt;\n                                                    &lt;urn:content xmlns:urn=&quot;urn:hl7-org:v3&quot;&gt;User comment - '**Test From NWAS111 - No Action required - Please Disregard Test case**'&lt;/urn:content&gt;\n                                                    &lt;urn:br xmlns:urn=&quot;urn:hl7-org:v3&quot;/&gt;\n                                                    &lt;urn:content xmlns:urn=&quot;urn:hl7-org:v3&quot;&gt;Heavy bleeding had not occurred in the previous 2 hours.&lt;/urn:content&gt;\n                                                    &lt;urn:br xmlns:urn=&quot;urn:hl7-org:v3&quot;/&gt;\n                                                    &lt;urn:content xmlns:urn=&quot;urn:hl7-org:v3&quot;&gt;An illness or health problem was the main problem.&lt;/urn:content&gt;\n                                                    &lt;urn:br xmlns:urn=&quot;urn:hl7-org:v3&quot;/&gt;\n                                                    &lt;urn:content xmlns:urn=&quot;urn:hl7-org:v3&quot;&gt;User comment - '**Test From NWAS111 - No Action required - Please Disregard Test case**'&lt;/urn:content&gt;\n                                                    &lt;urn:br xmlns:urn=&quot;urn:hl7-org:v3&quot;/&gt;\n                                                    &lt;urn:content xmlns:urn=&quot;urn:hl7-org:v3&quot;&gt;The individual was not fighting for breath.&lt;/urn:content&gt;\n                                                    &lt;urn:br xmlns:urn=&quot;urn:hl7-org:v3&quot;/&gt;\n                                                    &lt;urn:content xmlns:urn=&quot;urn:hl7-org:v3&quot;&gt;The main reason for the assessment was not an allergic reaction, heart attack, chest/upper back pain, probable stroke, recent fit/seizure or suicide attempt.&lt;/urn:content&gt;\n                                                    &lt;urn:br xmlns:urn=&quot;urn:hl7-org:v3&quot;/&gt;\n                                                    &lt;urn:content xmlns:urn=&quot;urn:hl7-org:v3&quot;&gt;The main reason for contact was not new confusion, declared diabetic hypo/hyperglycaemia, or ICD shock.&lt;/urn:content&gt;\n                                                    &lt;urn:br xmlns:urn=&quot;urn:hl7-org:v3&quot;/&gt;\n                                                    &lt;urn:content xmlns:urn=&quot;urn:hl7-org:v3&quot;&gt;The skin on the torso felt normal, warm or hot.&lt;/urn:content&gt;\n                                                    &lt;urn:br xmlns:urn=&quot;urn:hl7-org:v3&quot;/&gt;\n                                                    &lt;urn:content xmlns:urn=&quot;urn:hl7-org:v3&quot;&gt;Pathway selected - Difficulty Passing Urine&lt;/urn:content&gt;\n                                                    &lt;urn:br xmlns:urn=&quot;urn:hl7-org:v3&quot;/&gt;\n                                                    &lt;urn:content xmlns:urn=&quot;urn:hl7-org:v3&quot;&gt;The individual was able to carry out most or all normal activities.&lt;/urn:content&gt;\n                                                    &lt;urn:br xmlns:urn=&quot;urn:hl7-org:v3&quot;/&gt;\n                                                    &lt;urn:content xmlns:urn=&quot;urn:hl7-org:v3&quot;&gt;There was no new loss of bowel control or leg movement and no saddle or lower limb paraesthesia.&lt;/urn:content&gt;\n                                                    &lt;urn:br xmlns:urn=&quot;urn:hl7-org:v3&quot;/&gt;\n                                                    &lt;urn:content xmlns:urn=&quot;urn:hl7-org:v3&quot;&gt;There was no inability to pass urine over the last 12 hours.&lt;/urn:content&gt;\n                                                    &lt;urn:br xmlns:urn=&quot;urn:hl7-org:v3&quot;/&gt;\n                                                    &lt;urn:content xmlns:urn=&quot;urn:hl7-org:v3&quot;&gt;There was no new or worsening confusion.&lt;/urn:content&gt;\n                                                    &lt;urn:br xmlns:urn=&quot;urn:hl7-org:v3&quot;/&gt;\n                                                    &lt;urn:content xmlns:urn=&quot;urn:hl7-org:v3&quot;&gt;Breathing harder or faster when doing nothing was not described.&lt;/urn:content&gt;\n                                                    &lt;urn:br xmlns:urn=&quot;urn:hl7-org:v3&quot;/&gt;\n                                                    &lt;urn:content xmlns:urn=&quot;urn:hl7-org:v3&quot;&gt;There was no spinal pain.&lt;/urn:content&gt;\n                                                    &lt;urn:br xmlns:urn=&quot;urn:hl7-org:v3&quot;/&gt;\n                                                    &lt;urn:content xmlns:urn=&quot;urn:hl7-org:v3&quot;&gt;The pain was not getting worse.&lt;/urn:content&gt;\n                                                    &lt;urn:br xmlns:urn=&quot;urn:hl7-org:v3&quot;/&gt;\n                                                    &lt;urn:content xmlns:urn=&quot;urn:hl7-org:v3&quot;&gt;There was no fever at the time of assessment or within the previous 12 hours.&lt;/urn:content&gt;\n                                                    &lt;urn:br xmlns:urn=&quot;urn:hl7-org:v3&quot;/&gt;\n                                                    &lt;urn:content xmlns:urn=&quot;urn:hl7-org:v3&quot;&gt;The individual had not experienced a back injury within the previous 4 weeks.&lt;/urn:content&gt;\n                                                    &lt;urn:br xmlns:urn=&quot;urn:hl7-org:v3&quot;/&gt;\n                                                    &lt;urn:content xmlns:urn=&quot;urn:hl7-org:v3&quot;&gt;Medication type or dosage had not changed within the previous 2 weeks.&lt;/urn:content&gt;\n                                                    &lt;urn:br xmlns:urn=&quot;urn:hl7-org:v3&quot;/&gt;\n                                                    &lt;urn:content xmlns:urn=&quot;urn:hl7-org:v3&quot;&gt;User comment - 'Urgent Treatment Centre - Same Day Health Centre - Fleetwood'&lt;/urn:content&gt;\n                                                    &lt;urn:br xmlns:urn=&quot;urn:hl7-org:v3&quot;/&gt;\n                                                    &lt;urn:br xmlns:urn=&quot;urn:hl7-org:v3&quot;/&gt;\n                                                    &lt;urn:content styleCode=&quot;bold&quot; xmlns:urn=&quot;urn:hl7-org:v3&quot;&gt;Advice Given:&lt;/urn:content&gt;\n                                                    &lt;urn:br xmlns:urn=&quot;urn:hl7-org:v3&quot;/&gt;\n                                                    &lt;urn:content xmlns:urn=&quot;urn:hl7-org:v3&quot;&gt;Unless advised not to, paracetamol may be used to relieve pain or fever. Follow the instructions in the pack. If in doubt ask a pharmacist.&lt;/urn:content&gt;\n                                                    &lt;urn:br xmlns:urn=&quot;urn:hl7-org:v3&quot;/&gt;\n                                                    &lt;urn:br xmlns:urn=&quot;urn:hl7-org:v3&quot;/&gt;\n                                                &lt;/xml-fragment&gt;</div>"
                                }
                            }
                        ]
                    },
                    {
                        "title": "ReferralRequest",
                        "entry": [
                            {
                                "reference": "urn:uuid:1281cff9-7bec-47bb-81b7-90711d8ccc72"
                            }
                        ]
                    },
                    {
                        "title": "QuestionnaireResponse",
                        "entry": [
                            {
                                "reference": "urn:uuid:6a852f4c-f2d2-4d8b-a7f3-b98fc6c08f45"
                            }
                        ]
                    },
                    {
                        "title": "QuestionnaireResponse",
                        "entry": [
                            {
                                "reference": "urn:uuid:4ee9e6d9-ab1c-4dd2-99a9-31a99058bbdd"
                            }
                        ]
                    },
                    {
                        "title": "QuestionnaireResponse",
                        "entry": [
                            {
                                "reference": "urn:uuid:11d658bd-d6bd-49dc-b604-f62df3e7bf1e"
                            }
                        ]
                    },
                    {
                        "title": "QuestionnaireResponse",
                        "entry": [
                            {
                                "reference": "urn:uuid:b77f3403-2462-4977-b79c-177f1cb6fba7"
                            }
                        ]
                    },
                    {
                        "title": "QuestionnaireResponse",
                        "entry": [
                            {
                                "reference": "urn:uuid:2bbbf24c-1ed6-4731-a585-536549e8fd7a"
                            }
                        ]
                    },
                    {
                        "title": "QuestionnaireResponse",
                        "entry": [
                            {
                                "reference": "urn:uuid:19997d62-7a6b-494b-9994-2593f9b3b20c"
                            }
                        ]
                    },
                    {
                        "title": "QuestionnaireResponse",
                        "entry": [
                            {
                                "reference": "urn:uuid:1d08df3f-9513-40fe-81bd-0b1eeb84dd2c"
                            }
                        ]
                    },
                    {
                        "title": "QuestionnaireResponse",
                        "entry": [
                            {
                                "reference": "urn:uuid:4723f45d-11a4-42f3-af98-2920b7f72f3a"
                            }
                        ]
                    },
                    {
                        "title": "QuestionnaireResponse",
                        "entry": [
                            {
                                "reference": "urn:uuid:b4444ecc-6a65-4315-9c0f-ab5e5df6fb3f"
                            }
                        ]
                    },
                    {
                        "title": "QuestionnaireResponse",
                        "entry": [
                            {
                                "reference": "urn:uuid:cb66764f-1dd1-4829-a548-c552141a130f"
                            }
                        ]
                    },
                    {
                        "title": "QuestionnaireResponse",
                        "entry": [
                            {
                                "reference": "urn:uuid:831a9ffe-1169-4887-9940-16984ac2ebeb"
                            }
                        ]
                    },
                    {
                        "title": "QuestionnaireResponse",
                        "entry": [
                            {
                                "reference": "urn:uuid:1c372925-a6a2-4e8d-85d2-2775287b7389"
                            }
                        ]
                    },
                    {
                        "title": "QuestionnaireResponse",
                        "entry": [
                            {
                                "reference": "urn:uuid:eefa8e9c-5a34-4944-8f78-6685897871ff"
                            }
                        ]
                    },
                    {
                        "title": "QuestionnaireResponse",
                        "entry": [
                            {
                                "reference": "urn:uuid:c0deaf43-9dbf-4a9d-8645-8a2d4d4eeedc"
                            }
                        ]
                    },
                    {
                        "title": "QuestionnaireResponse",
                        "entry": [
                            {
                                "reference": "urn:uuid:29fdeea6-d0a7-4aa7-a6bb-ad6c8cd10687"
                            }
                        ]
                    },
                    {
                        "title": "QuestionnaireResponse",
                        "entry": [
                            {
                                "reference": "urn:uuid:14ef989c-d5a1-40b2-9761-27a8e20d008d"
                            }
                        ]
                    },
                    {
                        "title": "QuestionnaireResponse",
                        "entry": [
                            {
                                "reference": "urn:uuid:be0df1a9-baa1-42b0-a089-2ed929728cf0"
                            }
                        ]
                    },
                    {
                        "title": "QuestionnaireResponse",
                        "entry": [
                            {
                                "reference": "urn:uuid:256b3ddb-3e57-4fb8-993e-1556cc47eff4"
                            }
                        ]
                    },
                    {
                        "title": "QuestionnaireResponse",
                        "entry": [
                            {
                                "reference": "urn:uuid:cbb5fd41-397c-4ec9-907f-dc7c6b1fdd0b"
                            }
                        ]
                    },
                    {
                        "title": "QuestionnaireResponse",
                        "entry": [
                            {
                                "reference": "urn:uuid:60c8095f-fc2b-415b-bf4d-eff5d690a122"
                            }
                        ]
                    },
                    {
                        "title": "QuestionnaireResponse",
                        "entry": [
                            {
                                "reference": "urn:uuid:1fd00f88-5c09-4cde-bdcd-120fd0a193d5"
                            }
                        ]
                    },
                    {
                        "title": "QuestionnaireResponse",
                        "entry": [
                            {
                                "reference": "urn:uuid:d6c116cc-493f-4ad5-8484-0122f8ff5633"
                            }
                        ]
                    },
                    {
                        "title": "QuestionnaireResponse",
                        "entry": [
                            {
                                "reference": "urn:uuid:ef59d0fb-4407-45c9-a15c-cd037bdd89ae"
                            }
                        ]
                    },
                    {
                        "title": "QuestionnaireResponse",
                        "entry": [
                            {
                                "reference": "urn:uuid:c561078e-e6dd-47cc-8a6f-c1c5f6b99719"
                            }
                        ]
                    },
                    {
                        "title": "QuestionnaireResponse",
                        "entry": [
                            {
                                "reference": "urn:uuid:d59b08a4-95bf-4495-8156-eb8acd3cb047"
                            }
                        ]
                    },
                    {
                        "title": "QuestionnaireResponse",
                        "entry": [
                            {
                                "reference": "urn:uuid:400c3f3f-b0b9-4327-b229-f1fc851de4ca"
                            }
                        ]
                    },
                    {
                        "title": "QuestionnaireResponse",
                        "entry": [
                            {
                                "reference": "urn:uuid:244cc823-0cfd-4a4c-9bb3-c3c80765f829"
                            }
                        ]
                    },
                    {
                        "title": "QuestionnaireResponse",
                        "entry": [
                            {
                                "reference": "urn:uuid:20e48e5d-82f2-4964-8313-b7fa4ad28bb0"
                            }
                        ]
                    },
                    {
                        "title": "QuestionnaireResponse",
                        "entry": [
                            {
                                "reference": "urn:uuid:6386f598-f14b-4aaa-b3d7-679a3377464c"
                            }
                        ]
                    },
                    {
                        "title": "QuestionnaireResponse",
                        "entry": [
                            {
                                "reference": "urn:uuid:9fdcf44c-767d-4471-a10d-fd36b534a07b"
                            }
                        ]
                    },
                    {
                        "title": "QuestionnaireResponse",
                        "entry": [
                            {
                                "reference": "urn:uuid:0d368fa5-1d80-441e-8882-0ee19a671c7e"
                            }
                        ]
                    },
                    {
                        "title": "QuestionnaireResponse",
                        "entry": [
                            {
                                "reference": "urn:uuid:dfecd441-fff5-4c56-8426-60a74ab9aaa3"
                            }
                        ]
                    }
                ]
            }
        },
        {
            "fullUrl": "urn:uuid:d85e1cc8-1917-43b6-982b-ee7dfd9428c9",
            "resource": {
                "resourceType": "Consent",
                "id": "d85e1cc8-1917-43b6-982b-ee7dfd9428c9",
                "identifier": {
                    "use": "usual",
                    "value": "DEF337D1-08BF-4631-B11E-28F64349A031"
                },
                "status": "active",
                "patient": {
                    "reference": "urn:uuid:e7823ace-7c32-4b99-93fb-0e63579d5cd5"
                },
                "period": {
                    "start": "2021-08-03T13:04:53+00:00"
                },
                "consentingParty": [
                    {
                        "reference": "urn:uuid:e7823ace-7c32-4b99-93fb-0e63579d5cd5"
                    }
                ],
                "action": [
                    {
                        "coding": [
                            {
                                "system": "http://snomed.info/sct",
                                "code": "425691002",
                                "display": "Consent given for electronic record sharing"
                            }
                        ],
                        "text": "Consent given for electronic record sharing"
                    }
                ],
                "organization": [
                    {
                        "reference": "urn:uuid:66915df8-0121-415d-beb1-894eac4d9dfd"
                    }
                ],
                "policyRule": "http://hl7.org/fhir/ConsentPolicy/opt-out",
                "data": [
                    {
                        "meaning": "related",
                        "reference": {
                            "reference": "urn:uuid:54188e86-c485-4a6d-8e51-d56bf7a8a1fe"
                        }
                    }
                ]
            }
        },
        {
            "fullUrl": "urn:uuid:1aaaaf41-19c7-4ee4-b0f5-b3fc6a9aa5ff",
            "resource": {
                "resourceType": "Condition",
                "id": "1aaaaf41-19c7-4ee4-b0f5-b3fc6a9aa5ff",
                "clinicalStatus": "active",
                "verificationStatus": "unknown",
                "subject": {
                    "reference": "urn:uuid:e7823ace-7c32-4b99-93fb-0e63579d5cd5"
                },
                "context": {
                    "reference": "urn:uuid:54188e86-c485-4a6d-8e51-d56bf7a8a1fe"
                },
                "evidence": [
                    {
                        "detail": [
                            {
                                "reference": "urn:uuid:6a852f4c-f2d2-4d8b-a7f3-b98fc6c08f45"
                            }
                        ]
                    },
                    {
                        "detail": [
                            {
                                "reference": "urn:uuid:4ee9e6d9-ab1c-4dd2-99a9-31a99058bbdd"
                            }
                        ]
                    },
                    {
                        "detail": [
                            {
                                "reference": "urn:uuid:11d658bd-d6bd-49dc-b604-f62df3e7bf1e"
                            }
                        ]
                    },
                    {
                        "detail": [
                            {
                                "reference": "urn:uuid:b77f3403-2462-4977-b79c-177f1cb6fba7"
                            }
                        ]
                    },
                    {
                        "detail": [
                            {
                                "reference": "urn:uuid:2bbbf24c-1ed6-4731-a585-536549e8fd7a"
                            }
                        ]
                    },
                    {
                        "detail": [
                            {
                                "reference": "urn:uuid:19997d62-7a6b-494b-9994-2593f9b3b20c"
                            }
                        ]
                    },
                    {
                        "detail": [
                            {
                                "reference": "urn:uuid:1d08df3f-9513-40fe-81bd-0b1eeb84dd2c"
                            }
                        ]
                    },
                    {
                        "detail": [
                            {
                                "reference": "urn:uuid:4723f45d-11a4-42f3-af98-2920b7f72f3a"
                            }
                        ]
                    },
                    {
                        "detail": [
                            {
                                "reference": "urn:uuid:b4444ecc-6a65-4315-9c0f-ab5e5df6fb3f"
                            }
                        ]
                    },
                    {
                        "detail": [
                            {
                                "reference": "urn:uuid:cb66764f-1dd1-4829-a548-c552141a130f"
                            }
                        ]
                    },
                    {
                        "detail": [
                            {
                                "reference": "urn:uuid:831a9ffe-1169-4887-9940-16984ac2ebeb"
                            }
                        ]
                    },
                    {
                        "detail": [
                            {
                                "reference": "urn:uuid:1c372925-a6a2-4e8d-85d2-2775287b7389"
                            }
                        ]
                    },
                    {
                        "detail": [
                            {
                                "reference": "urn:uuid:eefa8e9c-5a34-4944-8f78-6685897871ff"
                            }
                        ]
                    },
                    {
                        "detail": [
                            {
                                "reference": "urn:uuid:c0deaf43-9dbf-4a9d-8645-8a2d4d4eeedc"
                            }
                        ]
                    },
                    {
                        "detail": [
                            {
                                "reference": "urn:uuid:29fdeea6-d0a7-4aa7-a6bb-ad6c8cd10687"
                            }
                        ]
                    },
                    {
                        "detail": [
                            {
                                "reference": "urn:uuid:14ef989c-d5a1-40b2-9761-27a8e20d008d"
                            }
                        ]
                    },
                    {
                        "detail": [
                            {
                                "reference": "urn:uuid:be0df1a9-baa1-42b0-a089-2ed929728cf0"
                            }
                        ]
                    },
                    {
                        "detail": [
                            {
                                "reference": "urn:uuid:256b3ddb-3e57-4fb8-993e-1556cc47eff4"
                            }
                        ]
                    },
                    {
                        "detail": [
                            {
                                "reference": "urn:uuid:cbb5fd41-397c-4ec9-907f-dc7c6b1fdd0b"
                            }
                        ]
                    },
                    {
                        "detail": [
                            {
                                "reference": "urn:uuid:60c8095f-fc2b-415b-bf4d-eff5d690a122"
                            }
                        ]
                    },
                    {
                        "detail": [
                            {
                                "reference": "urn:uuid:1fd00f88-5c09-4cde-bdcd-120fd0a193d5"
                            }
                        ]
                    },
                    {
                        "detail": [
                            {
                                "reference": "urn:uuid:d6c116cc-493f-4ad5-8484-0122f8ff5633"
                            }
                        ]
                    },
                    {
                        "detail": [
                            {
                                "reference": "urn:uuid:ef59d0fb-4407-45c9-a15c-cd037bdd89ae"
                            }
                        ]
                    },
                    {
                        "detail": [
                            {
                                "reference": "urn:uuid:c561078e-e6dd-47cc-8a6f-c1c5f6b99719"
                            }
                        ]
                    },
                    {
                        "detail": [
                            {
                                "reference": "urn:uuid:d59b08a4-95bf-4495-8156-eb8acd3cb047"
                            }
                        ]
                    },
                    {
                        "detail": [
                            {
                                "reference": "urn:uuid:400c3f3f-b0b9-4327-b229-f1fc851de4ca"
                            }
                        ]
                    },
                    {
                        "detail": [
                            {
                                "reference": "urn:uuid:244cc823-0cfd-4a4c-9bb3-c3c80765f829"
                            }
                        ]
                    },
                    {
                        "detail": [
                            {
                                "reference": "urn:uuid:20e48e5d-82f2-4964-8313-b7fa4ad28bb0"
                            }
                        ]
                    },
                    {
                        "detail": [
                            {
                                "reference": "urn:uuid:6386f598-f14b-4aaa-b3d7-679a3377464c"
                            }
                        ]
                    },
                    {
                        "detail": [
                            {
                                "reference": "urn:uuid:9fdcf44c-767d-4471-a10d-fd36b534a07b"
                            }
                        ]
                    },
                    {
                        "detail": [
                            {
                                "reference": "urn:uuid:0d368fa5-1d80-441e-8882-0ee19a671c7e"
                            }
                        ]
                    },
                    {
                        "detail": [
                            {
                                "reference": "urn:uuid:dfecd441-fff5-4c56-8426-60a74ab9aaa3"
                            }
                        ]
                    }
                ]
            }
        },
        {
            "fullUrl": "urn:uuid:6a852f4c-f2d2-4d8b-a7f3-b98fc6c08f45",
            "resource": {
                "resourceType": "QuestionnaireResponse",
                "id": "6a852f4c-f2d2-4d8b-a7f3-b98fc6c08f45",
                "identifier": {
                    "value": "1766749"
                },
                "questionnaire": {
                    "reference": "urn:uuid:a3834f1a-ec44-45b6-917d-e04b01230f53"
                },
                "status": "completed",
                "subject": {
                    "reference": "urn:uuid:e7823ace-7c32-4b99-93fb-0e63579d5cd5"
                },
                "context": {
                    "reference": "urn:uuid:54188e86-c485-4a6d-8e51-d56bf7a8a1fe"
                },
                "authored": "2021-08-03T13:04:53+00:00",
                "item": [
                    {
                        "linkId": "Tx220109",
                        "text": "What is the reason for the contact?",
                        "answer": [
                            {
                                "valueString": "an injury or other health problem"
                            }
                        ]
                    }
                ]
            }
        },
        {
            "fullUrl": "urn:uuid:a3834f1a-ec44-45b6-917d-e04b01230f53",
            "resource": {
                "resourceType": "Questionnaire",
                "id": "a3834f1a-ec44-45b6-917d-e04b01230f53",
                "identifier": [
                    {
                        "value": "1766749"
                    }
                ],
                "version": "2021-08-03T13:04:53.000Z",
                "status": "active",
                "experimental": false,
                "date": "2021-08-03T13:04:53+00:00",
                "publisher": "User ID: '922' User name: 'AndrewJ.Walford' User skill set: 'T4'",
                "lastReviewDate": "2021-08-03",
                "contact": [
                    {
                        "telecom": [
                            {
                                "value": "07798501130"
                            }
                        ]
                    }
                ],
                "subjectType": [
                    "Patient"
                ],
                "item": [
                    {
                        "linkId": "1766749",
                        "prefix": "5",
                        "text": "What is the reason for the contact?",
                        "type": "choice",
                        "required": true,
                        "repeats": false,
                        "option": [
                            {
                                "valueString": "an injury or other health problem, Selected: true"
                            },
                            {
                                "valueString": "a need to access another healthcare service, Selected: false"
                            },
                            {
                                "valueString": "a healthcare professional requesting contact with another clinician, Selected: false"
                            },
                            {
                                "valueString": "a report of results or tests, Selected: false"
                            },
                            {
                                "valueString": "more, Selected: false"
                            }
                        ]
                    }
                ]
            }
        },
        {
            "fullUrl": "urn:uuid:4ee9e6d9-ab1c-4dd2-99a9-31a99058bbdd",
            "resource": {
                "resourceType": "QuestionnaireResponse",
                "id": "4ee9e6d9-ab1c-4dd2-99a9-31a99058bbdd",
                "identifier": {
                    "value": "1766749"
                },
                "questionnaire": {
                    "reference": "urn:uuid:36838170-00ee-4038-acaf-0f6d6cbb1ebb"
                },
                "status": "completed",
                "subject": {
                    "reference": "urn:uuid:e7823ace-7c32-4b99-93fb-0e63579d5cd5"
                },
                "context": {
                    "reference": "urn:uuid:54188e86-c485-4a6d-8e51-d56bf7a8a1fe"
                },
                "authored": "2021-08-03T13:04:53+00:00",
                "item": [
                    {
                        "linkId": "Tx221788",
                        "text": "STRING:to'ImmediateThreatsToLife(SPA/OOHversion)'-'ABC'menu",
                        "answer": [
                            {
                                "valueString": "\"\"present\"\""
                            }
                        ]
                    }
                ]
            }
        },
        {
            "fullUrl": "urn:uuid:36838170-00ee-4038-acaf-0f6d6cbb1ebb",
            "resource": {
                "resourceType": "Questionnaire",
                "id": "36838170-00ee-4038-acaf-0f6d6cbb1ebb",
                "identifier": [
                    {
                        "value": "1766749"
                    }
                ],
                "version": "2021-08-03T13:04:53.000Z",
                "status": "active",
                "experimental": false,
                "date": "2021-08-03T13:04:53+00:00",
                "publisher": "User ID: '922' User name: 'AndrewJ.Walford' User skill set: 'T4'",
                "lastReviewDate": "2021-08-03",
                "contact": [
                    {
                        "telecom": [
                            {
                                "value": "07798501130"
                            }
                        ]
                    }
                ],
                "subjectType": [
                    "Patient"
                ],
                "item": [
                    {
                        "linkId": "1766749",
                        "prefix": "500",
                        "text": "STRING:to'ImmediateThreatsToLife(SPA/OOHversion)'-'ABC'menu",
                        "type": "choice",
                        "required": true,
                        "repeats": false,
                        "option": [
                            {
                                "valueString": "\"\"present\"\", Selected: true"
                            }
                        ]
                    }
                ]
            }
        },
        {
            "fullUrl": "urn:uuid:11d658bd-d6bd-49dc-b604-f62df3e7bf1e",
            "resource": {
                "resourceType": "QuestionnaireResponse",
                "id": "11d658bd-d6bd-49dc-b604-f62df3e7bf1e",
                "identifier": {
                    "value": "1766749"
                },
                "questionnaire": {
                    "reference": "urn:uuid:34d5e985-e563-4400-a50f-83f61e53c18e"
                },
                "status": "completed",
                "subject": {
                    "reference": "urn:uuid:e7823ace-7c32-4b99-93fb-0e63579d5cd5"
                },
                "context": {
                    "reference": "urn:uuid:54188e86-c485-4a6d-8e51-d56bf7a8a1fe"
                },
                "authored": "2021-08-03T13:04:53+00:00",
                "item": [
                    {
                        "linkId": "Tx221814",
                        "text": "STRING:aninjuryorotherhealthproblemestablishedinEntryFlow",
                        "answer": [
                            {
                                "valueString": "\"\"present\"\""
                            }
                        ]
                    }
                ]
            }
        },
        {
            "fullUrl": "urn:uuid:34d5e985-e563-4400-a50f-83f61e53c18e",
            "resource": {
                "resourceType": "Questionnaire",
                "id": "34d5e985-e563-4400-a50f-83f61e53c18e",
                "identifier": [
                    {
                        "value": "1766749"
                    }
                ],
                "version": "2021-08-03T13:04:53.000Z",
                "status": "active",
                "experimental": false,
                "date": "2021-08-03T13:04:53+00:00",
                "publisher": "User ID: '922' User name: 'AndrewJ.Walford' User skill set: 'T4'",
                "lastReviewDate": "2021-08-03",
                "contact": [
                    {
                        "telecom": [
                            {
                                "value": "07798501130"
                            }
                        ]
                    }
                ],
                "subjectType": [
                    "Patient"
                ],
                "item": [
                    {
                        "linkId": "1766749",
                        "prefix": "0",
                        "text": "STRING:aninjuryorotherhealthproblemestablishedinEntryFlow",
                        "type": "choice",
                        "required": true,
                        "repeats": false,
                        "option": [
                            {
                                "valueString": "\"\"present\"\", Selected: true"
                            }
                        ]
                    }
                ]
            }
        },
        {
            "fullUrl": "urn:uuid:b77f3403-2462-4977-b79c-177f1cb6fba7",
            "resource": {
                "resourceType": "QuestionnaireResponse",
                "id": "b77f3403-2462-4977-b79c-177f1cb6fba7",
                "identifier": {
                    "value": "1766749"
                },
                "questionnaire": {
                    "reference": "urn:uuid:1c95c9e9-21d2-4290-a07e-d864952f4f04"
                },
                "status": "completed",
                "subject": {
                    "reference": "urn:uuid:e7823ace-7c32-4b99-93fb-0e63579d5cd5"
                },
                "context": {
                    "reference": "urn:uuid:54188e86-c485-4a6d-8e51-d56bf7a8a1fe"
                },
                "authored": "2021-08-03T13:04:53+00:00",
                "item": [
                    {
                        "linkId": "Tx224120",
                        "text": "Have you been bleeding RED BLOOD very heavily IN THE LAST 2 HOURS?",
                        "answer": [
                            {
                                "valueString": "no"
                            }
                        ]
                    }
                ]
            }
        },
        {
            "fullUrl": "urn:uuid:1c95c9e9-21d2-4290-a07e-d864952f4f04",
            "resource": {
                "resourceType": "Questionnaire",
                "id": "1c95c9e9-21d2-4290-a07e-d864952f4f04",
                "identifier": [
                    {
                        "value": "1766749"
                    }
                ],
                "version": "2021-08-03T13:04:53.000Z",
                "status": "active",
                "experimental": false,
                "date": "2021-08-03T13:04:53+00:00",
                "publisher": "User ID: '922' User name: 'AndrewJ.Walford' User skill set: 'T4'",
                "lastReviewDate": "2021-08-03",
                "contact": [
                    {
                        "telecom": [
                            {
                                "value": "07798501130"
                            }
                        ]
                    }
                ],
                "subjectType": [
                    "Patient"
                ],
                "item": [
                    {
                        "linkId": "1766749",
                        "prefix": "7000",
                        "text": "Have you been bleeding RED BLOOD very heavily IN THE LAST 2 HOURS?",
                        "type": "choice",
                        "required": true,
                        "repeats": false,
                        "option": [
                            {
                                "valueString": "yes, Selected: false"
                            },
                            {
                                "valueString": "not sure, Selected: false"
                            },
                            {
                                "valueString": "no, Selected: true"
                            }
                        ]
                    }
                ]
            }
        },
        {
            "fullUrl": "urn:uuid:2bbbf24c-1ed6-4731-a585-536549e8fd7a",
            "resource": {
                "resourceType": "QuestionnaireResponse",
                "id": "2bbbf24c-1ed6-4731-a585-536549e8fd7a",
                "identifier": {
                    "value": "1766749"
                },
                "questionnaire": {
                    "reference": "urn:uuid:fc7efe48-c10f-46a6-92f6-b00449758318"
                },
                "status": "completed",
                "subject": {
                    "reference": "urn:uuid:e7823ace-7c32-4b99-93fb-0e63579d5cd5"
                },
                "context": {
                    "reference": "urn:uuid:54188e86-c485-4a6d-8e51-d56bf7a8a1fe"
                },
                "authored": "2021-08-03T13:04:53+00:00",
                "item": [
                    {
                        "linkId": "Tx221343",
                        "text": "SocialConcernsExcluded",
                        "answer": [
                            {
                                "valueString": "*"
                            }
                        ]
                    }
                ]
            }
        },
        {
            "fullUrl": "urn:uuid:fc7efe48-c10f-46a6-92f6-b00449758318",
            "resource": {
                "resourceType": "Questionnaire",
                "id": "fc7efe48-c10f-46a6-92f6-b00449758318",
                "identifier": [
                    {
                        "value": "1766749"
                    }
                ],
                "version": "2021-08-03T13:04:53.000Z",
                "status": "active",
                "experimental": false,
                "date": "2021-08-03T13:04:53+00:00",
                "publisher": "User ID: '922' User name: 'AndrewJ.Walford' User skill set: 'T4'",
                "lastReviewDate": "2021-08-03",
                "contact": [
                    {
                        "telecom": [
                            {
                                "value": "07798501130"
                            }
                        ]
                    }
                ],
                "subjectType": [
                    "Patient"
                ],
                "item": [
                    {
                        "linkId": "1766749",
                        "prefix": "2700",
                        "text": "SocialConcernsExcluded",
                        "type": "choice",
                        "required": true,
                        "repeats": false,
                        "option": [
                            {
                                "valueString": "==\"\"present\"\", Selected: false"
                            },
                            {
                                "valueString": "*, Selected: true"
                            }
                        ]
                    }
                ]
            }
        },
        {
            "fullUrl": "urn:uuid:19997d62-7a6b-494b-9994-2593f9b3b20c",
            "resource": {
                "resourceType": "QuestionnaireResponse",
                "id": "19997d62-7a6b-494b-9994-2593f9b3b20c",
                "identifier": {
                    "value": "1766749"
                },
                "questionnaire": {
                    "reference": "urn:uuid:53b88f35-2ab1-462f-994d-b0d4e316213d"
                },
                "status": "completed",
                "subject": {
                    "reference": "urn:uuid:e7823ace-7c32-4b99-93fb-0e63579d5cd5"
                },
                "context": {
                    "reference": "urn:uuid:54188e86-c485-4a6d-8e51-d56bf7a8a1fe"
                },
                "authored": "2021-08-03T13:04:53+00:00",
                "item": [
                    {
                        "linkId": "Tx130011",
                        "text": "What is the main problem?",
                        "answer": [
                            {
                                "valueString": "illness or other health problem (specify)"
                            }
                        ]
                    }
                ]
            }
        },
        {
            "fullUrl": "urn:uuid:53b88f35-2ab1-462f-994d-b0d4e316213d",
            "resource": {
                "resourceType": "Questionnaire",
                "id": "53b88f35-2ab1-462f-994d-b0d4e316213d",
                "identifier": [
                    {
                        "value": "1766749"
                    }
                ],
                "version": "2021-08-03T13:04:53.000Z",
                "status": "active",
                "experimental": false,
                "date": "2021-08-03T13:04:53+00:00",
                "publisher": "User ID: '922' User name: 'AndrewJ.Walford' User skill set: 'T4'",
                "lastReviewDate": "2021-08-03",
                "contact": [
                    {
                        "telecom": [
                            {
                                "value": "07798501130"
                            }
                        ]
                    }
                ],
                "subjectType": [
                    "Patient"
                ],
                "item": [
                    {
                        "linkId": "1766749",
                        "prefix": "3400",
                        "text": "What is the main problem?",
                        "type": "choice",
                        "required": true,
                        "repeats": false,
                        "option": [
                            {
                                "valueString": "the individual has been told to follow a particular course of action (specify), Selected: false"
                            },
                            {
                                "valueString": "the individual is an identified frequent caller, Selected: false"
                            },
                            {
                                "valueString": "injury (specify), Selected: false"
                            },
                            {
                                "valueString": "illness or other health problem (specify), Selected: true"
                            },
                            {
                                "valueString": "child protection/vulnerable adult concern, Selected: false"
                            },
                            {
                                "valueString": "social or domestic emergency, Selected: false"
                            },
                            {
                                "valueString": "the environment potentially poses an immediate threat to life (specify), Selected: false"
                            }
                        ]
                    }
                ]
            }
        },
        {
            "fullUrl": "urn:uuid:1d08df3f-9513-40fe-81bd-0b1eeb84dd2c",
            "resource": {
                "resourceType": "QuestionnaireResponse",
                "id": "1d08df3f-9513-40fe-81bd-0b1eeb84dd2c",
                "identifier": {
                    "value": "1766749"
                },
                "questionnaire": {
                    "reference": "urn:uuid:ed032540-faf0-4917-95ea-ba00f8254ed1"
                },
                "status": "completed",
                "subject": {
                    "reference": "urn:uuid:e7823ace-7c32-4b99-93fb-0e63579d5cd5"
                },
                "context": {
                    "reference": "urn:uuid:54188e86-c485-4a6d-8e51-d56bf7a8a1fe"
                },
                "authored": "2021-08-03T13:04:53+00:00",
                "item": [
                    {
                        "linkId": "Tx61025",
                        "text": "Are you so breathless that speaking more than a few words is impossible?",
                        "answer": [
                            {
                                "valueString": "no"
                            }
                        ]
                    }
                ]
            }
        },
        {
            "fullUrl": "urn:uuid:ed032540-faf0-4917-95ea-ba00f8254ed1",
            "resource": {
                "resourceType": "Questionnaire",
                "id": "ed032540-faf0-4917-95ea-ba00f8254ed1",
                "identifier": [
                    {
                        "value": "1766749"
                    }
                ],
                "version": "2021-08-03T13:04:53.000Z",
                "status": "active",
                "experimental": false,
                "date": "2021-08-03T13:04:53+00:00",
                "publisher": "User ID: '922' User name: 'AndrewJ.Walford' User skill set: 'T4'",
                "lastReviewDate": "2021-08-03",
                "contact": [
                    {
                        "telecom": [
                            {
                                "value": "07798501130"
                            }
                        ]
                    }
                ],
                "subjectType": [
                    "Patient"
                ],
                "item": [
                    {
                        "linkId": "1766749",
                        "prefix": "0",
                        "text": "Are you so breathless that speaking more than a few words is impossible?",
                        "type": "choice",
                        "required": true,
                        "repeats": false,
                        "option": [
                            {
                                "valueString": "yes, Selected: false"
                            },
                            {
                                "valueString": "not sure, Selected: false"
                            },
                            {
                                "valueString": "no, Selected: true"
                            }
                        ]
                    }
                ]
            }
        },
        {
            "fullUrl": "urn:uuid:4723f45d-11a4-42f3-af98-2920b7f72f3a",
            "resource": {
                "resourceType": "QuestionnaireResponse",
                "id": "4723f45d-11a4-42f3-af98-2920b7f72f3a",
                "identifier": {
                    "value": "1766749"
                },
                "questionnaire": {
                    "reference": "urn:uuid:d7accc22-724b-4314-aea9-12f8e1d3f7ed"
                },
                "status": "completed",
                "subject": {
                    "reference": "urn:uuid:e7823ace-7c32-4b99-93fb-0e63579d5cd5"
                },
                "context": {
                    "reference": "urn:uuid:54188e86-c485-4a6d-8e51-d56bf7a8a1fe"
                },
                "authored": "2021-08-03T13:04:53+00:00",
                "item": [
                    {
                        "linkId": "Tx220845",
                        "text": "SYSTEM_FLUPANDEMIC",
                        "answer": [
                            {
                                "valueString": "*"
                            }
                        ]
                    }
                ]
            }
        },
        {
            "fullUrl": "urn:uuid:d7accc22-724b-4314-aea9-12f8e1d3f7ed",
            "resource": {
                "resourceType": "Questionnaire",
                "id": "d7accc22-724b-4314-aea9-12f8e1d3f7ed",
                "identifier": [
                    {
                        "value": "1766749"
                    }
                ],
                "version": "2021-08-03T13:04:53.000Z",
                "status": "active",
                "experimental": false,
                "date": "2021-08-03T13:04:53+00:00",
                "publisher": "User ID: '922' User name: 'AndrewJ.Walford' User skill set: 'T4'",
                "lastReviewDate": "2021-08-03",
                "contact": [
                    {
                        "telecom": [
                            {
                                "value": "07798501130"
                            }
                        ]
                    }
                ],
                "subjectType": [
                    "Patient"
                ],
                "item": [
                    {
                        "linkId": "1766749",
                        "prefix": "100",
                        "text": "SYSTEM_FLUPANDEMIC",
                        "type": "choice",
                        "required": true,
                        "repeats": false,
                        "option": [
                            {
                                "valueString": "==\"\"pandemic\"\", Selected: false"
                            },
                            {
                                "valueString": "*, Selected: true"
                            }
                        ]
                    }
                ]
            }
        },
        {
            "fullUrl": "urn:uuid:b4444ecc-6a65-4315-9c0f-ab5e5df6fb3f",
            "resource": {
                "resourceType": "QuestionnaireResponse",
                "id": "b4444ecc-6a65-4315-9c0f-ab5e5df6fb3f",
                "identifier": {
                    "value": "1766749"
                },
                "questionnaire": {
                    "reference": "urn:uuid:51eedc6b-a9ce-41a1-830e-c41a021b902e"
                },
                "status": "completed",
                "subject": {
                    "reference": "urn:uuid:e7823ace-7c32-4b99-93fb-0e63579d5cd5"
                },
                "context": {
                    "reference": "urn:uuid:54188e86-c485-4a6d-8e51-d56bf7a8a1fe"
                },
                "authored": "2021-08-03T13:04:53+00:00",
                "item": [
                    {
                        "linkId": "Tx223440",
                        "text": "WHAT IS SAID TO BE THE MAIN REASON FOR THIS CONTACT?",
                        "answer": [
                            {
                                "valueString": "more"
                            }
                        ]
                    }
                ]
            }
        },
        {
            "fullUrl": "urn:uuid:51eedc6b-a9ce-41a1-830e-c41a021b902e",
            "resource": {
                "resourceType": "Questionnaire",
                "id": "51eedc6b-a9ce-41a1-830e-c41a021b902e",
                "identifier": [
                    {
                        "value": "1766749"
                    }
                ],
                "version": "2021-08-03T13:04:53.000Z",
                "status": "active",
                "experimental": false,
                "date": "2021-08-03T13:04:53+00:00",
                "publisher": "User ID: '922' User name: 'AndrewJ.Walford' User skill set: 'T4'",
                "lastReviewDate": "2021-08-03",
                "contact": [
                    {
                        "telecom": [
                            {
                                "value": "07798501130"
                            }
                        ]
                    }
                ],
                "subjectType": [
                    "Patient"
                ],
                "item": [
                    {
                        "linkId": "1766749",
                        "prefix": "5000",
                        "text": "WHAT IS SAID TO BE THE MAIN REASON FOR THIS CONTACT?",
                        "type": "choice",
                        "required": true,
                        "repeats": false,
                        "option": [
                            {
                                "valueString": "a probable allergic reaction now, Selected: false"
                            },
                            {
                                "valueString": "a probable heart attack, Selected: false"
                            },
                            {
                                "valueString": "chest or upper back pain, Selected: false"
                            },
                            {
                                "valueString": "a probable stroke or mini-stroke, Selected: false"
                            },
                            {
                                "valueString": "a probable fit or seizure within the last 12 hours, Selected: false"
                            },
                            {
                                "valueString": "a suicide attempt, Selected: false"
                            },
                            {
                                "valueString": "more, Selected: true"
                            }
                        ]
                    }
                ]
            }
        },
        {
            "fullUrl": "urn:uuid:cb66764f-1dd1-4829-a548-c552141a130f",
            "resource": {
                "resourceType": "QuestionnaireResponse",
                "id": "cb66764f-1dd1-4829-a548-c552141a130f",
                "identifier": {
                    "value": "1766749"
                },
                "questionnaire": {
                    "reference": "urn:uuid:81abd177-0318-48df-9d34-6441c75d815c"
                },
                "status": "completed",
                "subject": {
                    "reference": "urn:uuid:e7823ace-7c32-4b99-93fb-0e63579d5cd5"
                },
                "context": {
                    "reference": "urn:uuid:54188e86-c485-4a6d-8e51-d56bf7a8a1fe"
                },
                "authored": "2021-08-03T13:04:53+00:00",
                "item": [
                    {
                        "linkId": "Tx220032",
                        "text": "WHAT IS SAID TO BE THE MAIN REASON FOR THIS CONTACT?",
                        "answer": [
                            {
                                "valueString": "none of the above"
                            }
                        ]
                    }
                ]
            }
        },
        {
            "fullUrl": "urn:uuid:81abd177-0318-48df-9d34-6441c75d815c",
            "resource": {
                "resourceType": "Questionnaire",
                "id": "81abd177-0318-48df-9d34-6441c75d815c",
                "identifier": [
                    {
                        "value": "1766749"
                    }
                ],
                "version": "2021-08-03T13:04:53.000Z",
                "status": "active",
                "experimental": false,
                "date": "2021-08-03T13:04:53+00:00",
                "publisher": "User ID: '922' User name: 'AndrewJ.Walford' User skill set: 'T4'",
                "lastReviewDate": "2021-08-03",
                "contact": [
                    {
                        "telecom": [
                            {
                                "value": "07798501130"
                            }
                        ]
                    }
                ],
                "subjectType": [
                    "Patient"
                ],
                "item": [
                    {
                        "linkId": "1766749",
                        "prefix": "1900",
                        "text": "WHAT IS SAID TO BE THE MAIN REASON FOR THIS CONTACT?",
                        "type": "choice",
                        "required": true,
                        "repeats": false,
                        "option": [
                            {
                                "valueString": "new confusion now, Selected: false"
                            },
                            {
                                "valueString": "a diabetic hypo (low blood sugar) or a diabetic hyper (high blood sugar), Selected: false"
                            },
                            {
                                "valueString": "recovery from an ICD (implanted cardioverter defibrillator) shock, Selected: false"
                            },
                            {
                                "valueString": "none of the above, Selected: true"
                            }
                        ]
                    }
                ]
            }
        },
        {
            "fullUrl": "urn:uuid:831a9ffe-1169-4887-9940-16984ac2ebeb",
            "resource": {
                "resourceType": "QuestionnaireResponse",
                "id": "831a9ffe-1169-4887-9940-16984ac2ebeb",
                "identifier": {
                    "value": "1766749"
                },
                "questionnaire": {
                    "reference": "urn:uuid:1b8a9907-6350-4cc9-8d70-2a042c4e863b"
                },
                "status": "completed",
                "subject": {
                    "reference": "urn:uuid:e7823ace-7c32-4b99-93fb-0e63579d5cd5"
                },
                "context": {
                    "reference": "urn:uuid:54188e86-c485-4a6d-8e51-d56bf7a8a1fe"
                },
                "authored": "2021-08-03T13:04:53+00:00",
                "item": [
                    {
                        "linkId": "Tx223142",
                        "text": "Does the skin on the chest, back or abdomen feel a normal temperature?",
                        "answer": [
                            {
                                "valueString": "yes - normal, warm or hot"
                            }
                        ]
                    }
                ]
            }
        },
        {
            "fullUrl": "urn:uuid:1b8a9907-6350-4cc9-8d70-2a042c4e863b",
            "resource": {
                "resourceType": "Questionnaire",
                "id": "1b8a9907-6350-4cc9-8d70-2a042c4e863b",
                "identifier": [
                    {
                        "value": "1766749"
                    }
                ],
                "version": "2021-08-03T13:04:53.000Z",
                "status": "active",
                "experimental": false,
                "date": "2021-08-03T13:04:53+00:00",
                "publisher": "User ID: '922' User name: 'AndrewJ.Walford' User skill set: 'T4'",
                "lastReviewDate": "2021-08-03",
                "contact": [
                    {
                        "telecom": [
                            {
                                "value": "07798501130"
                            }
                        ]
                    }
                ],
                "subjectType": [
                    "Patient"
                ],
                "item": [
                    {
                        "linkId": "1766749",
                        "prefix": "4000",
                        "text": "Does the skin on the chest, back or abdomen feel a normal temperature?",
                        "type": "choice",
                        "required": true,
                        "repeats": false,
                        "option": [
                            {
                                "valueString": "yes - normal, warm or hot, Selected: true"
                            },
                            {
                                "valueString": "not sure, Selected: false"
                            },
                            {
                                "valueString": "no - cool OR cold, Selected: false"
                            },
                            {
                                "valueString": "not safe to touch, Selected: false"
                            }
                        ]
                    }
                ]
            }
        },
        {
            "fullUrl": "urn:uuid:1c372925-a6a2-4e8d-85d2-2775287b7389",
            "resource": {
                "resourceType": "QuestionnaireResponse",
                "id": "1c372925-a6a2-4e8d-85d2-2775287b7389",
                "identifier": {
                    "value": "1766749"
                },
                "questionnaire": {
                    "reference": "urn:uuid:2ec7dcad-8060-465f-ad0b-8b4676f8b15d"
                },
                "status": "completed",
                "subject": {
                    "reference": "urn:uuid:e7823ace-7c32-4b99-93fb-0e63579d5cd5"
                },
                "context": {
                    "reference": "urn:uuid:54188e86-c485-4a6d-8e51-d56bf7a8a1fe"
                },
                "authored": "2021-08-03T13:04:53+00:00",
                "item": [
                    {
                        "linkId": "Tx221724",
                        "text": "STRING:ShockAsked",
                        "answer": [
                            {
                                "valueString": "\"\"present\"\""
                            }
                        ]
                    }
                ]
            }
        },
        {
            "fullUrl": "urn:uuid:2ec7dcad-8060-465f-ad0b-8b4676f8b15d",
            "resource": {
                "resourceType": "Questionnaire",
                "id": "2ec7dcad-8060-465f-ad0b-8b4676f8b15d",
                "identifier": [
                    {
                        "value": "1766749"
                    }
                ],
                "version": "2021-08-03T13:04:53.000Z",
                "status": "active",
                "experimental": false,
                "date": "2021-08-03T13:04:53+00:00",
                "publisher": "User ID: '922' User name: 'AndrewJ.Walford' User skill set: 'T4'",
                "lastReviewDate": "2021-08-03",
                "contact": [
                    {
                        "telecom": [
                            {
                                "value": "07798501130"
                            }
                        ]
                    }
                ],
                "subjectType": [
                    "Patient"
                ],
                "item": [
                    {
                        "linkId": "1766749",
                        "prefix": "3300",
                        "text": "STRING:ShockAsked",
                        "type": "choice",
                        "required": true,
                        "repeats": false,
                        "option": [
                            {
                                "valueString": "\"\"present\"\", Selected: true"
                            }
                        ]
                    }
                ]
            }
        },
        {
            "fullUrl": "urn:uuid:eefa8e9c-5a34-4944-8f78-6685897871ff",
            "resource": {
                "resourceType": "QuestionnaireResponse",
                "id": "eefa8e9c-5a34-4944-8f78-6685897871ff",
                "identifier": {
                    "value": "1766749"
                },
                "questionnaire": {
                    "reference": "urn:uuid:21229d0d-ea9b-4a02-9a61-03b331feedaa"
                },
                "status": "completed",
                "subject": {
                    "reference": "urn:uuid:e7823ace-7c32-4b99-93fb-0e63579d5cd5"
                },
                "context": {
                    "reference": "urn:uuid:54188e86-c485-4a6d-8e51-d56bf7a8a1fe"
                },
                "authored": "2021-08-03T13:04:53+00:00"
            }
        },
        {
            "fullUrl": "urn:uuid:21229d0d-ea9b-4a02-9a61-03b331feedaa",
            "resource": {
                "resourceType": "Questionnaire",
                "id": "21229d0d-ea9b-4a02-9a61-03b331feedaa",
                "identifier": [
                    {
                        "value": "1766749"
                    }
                ],
                "version": "2021-08-03T13:04:53.000Z",
                "status": "active",
                "experimental": false,
                "date": "2021-08-03T13:04:53+00:00",
                "publisher": "User ID: '922' User name: 'AndrewJ.Walford' User skill set: 'T4'",
                "lastReviewDate": "2021-08-03",
                "contact": [
                    {
                        "telecom": [
                            {
                                "value": "07798501130"
                            }
                        ]
                    }
                ],
                "subjectType": [
                    "Patient"
                ]
            }
        },
        {
            "fullUrl": "urn:uuid:c0deaf43-9dbf-4a9d-8645-8a2d4d4eeedc",
            "resource": {
                "resourceType": "QuestionnaireResponse",
                "id": "c0deaf43-9dbf-4a9d-8645-8a2d4d4eeedc",
                "identifier": {
                    "value": "1766749"
                },
                "questionnaire": {
                    "reference": "urn:uuid:972c30c6-0e32-44b7-82c2-72a34a9fe0d2"
                },
                "status": "completed",
                "subject": {
                    "reference": "urn:uuid:e7823ace-7c32-4b99-93fb-0e63579d5cd5"
                },
                "context": {
                    "reference": "urn:uuid:54188e86-c485-4a6d-8e51-d56bf7a8a1fe"
                },
                "authored": "2021-08-03T13:04:53+00:00"
            }
        },
        {
            "fullUrl": "urn:uuid:972c30c6-0e32-44b7-82c2-72a34a9fe0d2",
            "resource": {
                "resourceType": "Questionnaire",
                "id": "972c30c6-0e32-44b7-82c2-72a34a9fe0d2",
                "identifier": [
                    {
                        "value": "1766749"
                    }
                ],
                "version": "2021-08-03T13:04:53.000Z",
                "status": "active",
                "experimental": false,
                "date": "2021-08-03T13:04:53+00:00",
                "publisher": "User ID: '922' User name: 'AndrewJ.Walford' User skill set: 'T4'",
                "lastReviewDate": "2021-08-03",
                "contact": [
                    {
                        "telecom": [
                            {
                                "value": "07798501130"
                            }
                        ]
                    }
                ],
                "subjectType": [
                    "Patient"
                ]
            }
        },
        {
            "fullUrl": "urn:uuid:29fdeea6-d0a7-4aa7-a6bb-ad6c8cd10687",
            "resource": {
                "resourceType": "QuestionnaireResponse",
                "id": "29fdeea6-d0a7-4aa7-a6bb-ad6c8cd10687",
                "identifier": {
                    "value": "1766749"
                },
                "questionnaire": {
                    "reference": "urn:uuid:4d7970e9-5ce9-4882-98d5-a7cb2bb7e3b1"
                },
                "status": "completed",
                "subject": {
                    "reference": "urn:uuid:e7823ace-7c32-4b99-93fb-0e63579d5cd5"
                },
                "context": {
                    "reference": "urn:uuid:54188e86-c485-4a6d-8e51-d56bf7a8a1fe"
                },
                "authored": "2021-08-03T13:04:53+00:00",
                "item": [
                    {
                        "linkId": "Tx224190",
                        "text": "Does the problem stop you from doing ALL of your normal activities?",
                        "answer": [
                            {
                                "valueString": "no - able to do most or all of their activities"
                            }
                        ]
                    }
                ]
            }
        },
        {
            "fullUrl": "urn:uuid:4d7970e9-5ce9-4882-98d5-a7cb2bb7e3b1",
            "resource": {
                "resourceType": "Questionnaire",
                "id": "4d7970e9-5ce9-4882-98d5-a7cb2bb7e3b1",
                "identifier": [
                    {
                        "value": "1766749"
                    }
                ],
                "version": "2021-08-03T13:04:53.000Z",
                "status": "active",
                "experimental": false,
                "date": "2021-08-03T13:04:53+00:00",
                "publisher": "User ID: '922' User name: 'AndrewJ.Walford' User skill set: 'T4'",
                "lastReviewDate": "2021-08-03",
                "contact": [
                    {
                        "telecom": [
                            {
                                "value": "07798501130"
                            }
                        ]
                    }
                ],
                "subjectType": [
                    "Patient"
                ],
                "item": [
                    {
                        "linkId": "1766749",
                        "prefix": "4900",
                        "text": "Does the problem stop you from doing ALL of your normal activities?",
                        "type": "choice",
                        "required": true,
                        "repeats": false,
                        "option": [
                            {
                                "valueString": "yes - unable to do all of their normal activities, Selected: false"
                            },
                            {
                                "valueString": "no - able to do some of their normal activities, Selected: false"
                            },
                            {
                                "valueString": "no - able to do most or all of their activities, Selected: true"
                            }
                        ]
                    }
                ]
            }
        },
        {
            "fullUrl": "urn:uuid:14ef989c-d5a1-40b2-9761-27a8e20d008d",
            "resource": {
                "resourceType": "QuestionnaireResponse",
                "id": "14ef989c-d5a1-40b2-9761-27a8e20d008d",
                "identifier": {
                    "value": "1766749"
                },
                "questionnaire": {
                    "reference": "urn:uuid:877c604d-e731-49fc-9bdb-393c1bdbc108"
                },
                "status": "completed",
                "subject": {
                    "reference": "urn:uuid:e7823ace-7c32-4b99-93fb-0e63579d5cd5"
                },
                "context": {
                    "reference": "urn:uuid:54188e86-c485-4a6d-8e51-d56bf7a8a1fe"
                },
                "authored": "2021-08-03T13:04:53+00:00",
                "item": [
                    {
                        "linkId": "Tx220244",
                        "text": "Have you got any of the following new symptoms?",
                        "answer": [
                            {
                                "valueString": "no"
                            }
                        ]
                    }
                ]
            }
        },
        {
            "fullUrl": "urn:uuid:877c604d-e731-49fc-9bdb-393c1bdbc108",
            "resource": {
                "resourceType": "Questionnaire",
                "id": "877c604d-e731-49fc-9bdb-393c1bdbc108",
                "identifier": [
                    {
                        "value": "1766749"
                    }
                ],
                "version": "2021-08-03T13:04:53.000Z",
                "status": "active",
                "experimental": false,
                "date": "2021-08-03T13:04:53+00:00",
                "publisher": "User ID: '922' User name: 'AndrewJ.Walford' User skill set: 'T4'",
                "lastReviewDate": "2021-08-03",
                "contact": [
                    {
                        "telecom": [
                            {
                                "value": "07798501130"
                            }
                        ]
                    }
                ],
                "subjectType": [
                    "Patient"
                ],
                "item": [
                    {
                        "linkId": "1766749",
                        "prefix": "17",
                        "text": "Have you got any of the following new symptoms?",
                        "type": "choice",
                        "required": true,
                        "repeats": false,
                        "option": [
                            {
                                "valueString": "unable to control the bowels, Selected: false"
                            },
                            {
                                "valueString": "unable to move one or both legs, Selected: false"
                            },
                            {
                                "valueString": "numbness or pins and needles in both legs or around the back passage, Selected: false"
                            },
                            {
                                "valueString": "not sure, Selected: false"
                            },
                            {
                                "valueString": "no, Selected: true"
                            }
                        ]
                    }
                ]
            }
        },
        {
            "fullUrl": "urn:uuid:be0df1a9-baa1-42b0-a089-2ed929728cf0",
            "resource": {
                "resourceType": "QuestionnaireResponse",
                "id": "be0df1a9-baa1-42b0-a089-2ed929728cf0",
                "identifier": {
                    "value": "1766749"
                },
                "questionnaire": {
                    "reference": "urn:uuid:cac4c143-29f6-453a-990f-cd3039f5f40f"
                },
                "status": "completed",
                "subject": {
                    "reference": "urn:uuid:e7823ace-7c32-4b99-93fb-0e63579d5cd5"
                },
                "context": {
                    "reference": "urn:uuid:54188e86-c485-4a6d-8e51-d56bf7a8a1fe"
                },
                "authored": "2021-08-03T13:04:53+00:00",
                "item": [
                    {
                        "linkId": "Tx221119",
                        "text": "FunctionallyImpaired",
                        "answer": [
                            {
                                "valueString": "*"
                            }
                        ]
                    }
                ]
            }
        },
        {
            "fullUrl": "urn:uuid:cac4c143-29f6-453a-990f-cd3039f5f40f",
            "resource": {
                "resourceType": "Questionnaire",
                "id": "cac4c143-29f6-453a-990f-cd3039f5f40f",
                "identifier": [
                    {
                        "value": "1766749"
                    }
                ],
                "version": "2021-08-03T13:04:53.000Z",
                "status": "active",
                "experimental": false,
                "date": "2021-08-03T13:04:53+00:00",
                "publisher": "User ID: '922' User name: 'AndrewJ.Walford' User skill set: 'T4'",
                "lastReviewDate": "2021-08-03",
                "contact": [
                    {
                        "telecom": [
                            {
                                "value": "07798501130"
                            }
                        ]
                    }
                ],
                "subjectType": [
                    "Patient"
                ],
                "item": [
                    {
                        "linkId": "1766749",
                        "prefix": "5400",
                        "text": "FunctionallyImpaired",
                        "type": "choice",
                        "required": true,
                        "repeats": false,
                        "option": [
                            {
                                "valueString": "==\"\"present\"\", Selected: false"
                            },
                            {
                                "valueString": "*, Selected: true"
                            }
                        ]
                    }
                ]
            }
        },
        {
            "fullUrl": "urn:uuid:256b3ddb-3e57-4fb8-993e-1556cc47eff4",
            "resource": {
                "resourceType": "QuestionnaireResponse",
                "id": "256b3ddb-3e57-4fb8-993e-1556cc47eff4",
                "identifier": {
                    "value": "1766749"
                },
                "questionnaire": {
                    "reference": "urn:uuid:e93946fc-8a29-40cf-bfcd-3c29ae05a853"
                },
                "status": "completed",
                "subject": {
                    "reference": "urn:uuid:e7823ace-7c32-4b99-93fb-0e63579d5cd5"
                },
                "context": {
                    "reference": "urn:uuid:54188e86-c485-4a6d-8e51-d56bf7a8a1fe"
                },
                "authored": "2021-08-03T13:04:53+00:00",
                "item": [
                    {
                        "linkId": "Tx221639",
                        "text": "Have you been unable to pass urine for the last 12 hours, except for a few drops?",
                        "answer": [
                            {
                                "valueString": "no (ABLE TO pass urine)"
                            }
                        ]
                    }
                ]
            }
        },
        {
            "fullUrl": "urn:uuid:e93946fc-8a29-40cf-bfcd-3c29ae05a853",
            "resource": {
                "resourceType": "Questionnaire",
                "id": "e93946fc-8a29-40cf-bfcd-3c29ae05a853",
                "identifier": [
                    {
                        "value": "1766749"
                    }
                ],
                "version": "2021-08-03T13:04:53.000Z",
                "status": "active",
                "experimental": false,
                "date": "2021-08-03T13:04:53+00:00",
                "publisher": "User ID: '922' User name: 'AndrewJ.Walford' User skill set: 'T4'",
                "lastReviewDate": "2021-08-03",
                "contact": [
                    {
                        "telecom": [
                            {
                                "value": "07798501130"
                            }
                        ]
                    }
                ],
                "subjectType": [
                    "Patient"
                ],
                "item": [
                    {
                        "linkId": "1766749",
                        "prefix": "6100",
                        "text": "Have you been unable to pass urine for the last 12 hours, except for a few drops?",
                        "type": "choice",
                        "required": true,
                        "repeats": false,
                        "option": [
                            {
                                "valueString": "yes (UNABLE TO pass urine), Selected: false"
                            },
                            {
                                "valueString": "not sure, Selected: false"
                            },
                            {
                                "valueString": "no (ABLE TO pass urine), Selected: true"
                            }
                        ]
                    }
                ]
            }
        },
        {
            "fullUrl": "urn:uuid:cbb5fd41-397c-4ec9-907f-dc7c6b1fdd0b",
            "resource": {
                "resourceType": "QuestionnaireResponse",
                "id": "cbb5fd41-397c-4ec9-907f-dc7c6b1fdd0b",
                "identifier": {
                    "value": "1766749"
                },
                "questionnaire": {
                    "reference": "urn:uuid:c7a006f0-ce75-4a1d-af14-1302e2bd9ec9"
                },
                "status": "completed",
                "subject": {
                    "reference": "urn:uuid:e7823ace-7c32-4b99-93fb-0e63579d5cd5"
                },
                "context": {
                    "reference": "urn:uuid:54188e86-c485-4a6d-8e51-d56bf7a8a1fe"
                },
                "authored": "2021-08-03T13:04:53+00:00",
                "item": [
                    {
                        "linkId": "Tx221119",
                        "text": "FunctionallyImpaired",
                        "answer": [
                            {
                                "valueString": "*"
                            }
                        ]
                    }
                ]
            }
        },
        {
            "fullUrl": "urn:uuid:c7a006f0-ce75-4a1d-af14-1302e2bd9ec9",
            "resource": {
                "resourceType": "Questionnaire",
                "id": "c7a006f0-ce75-4a1d-af14-1302e2bd9ec9",
                "identifier": [
                    {
                        "value": "1766749"
                    }
                ],
                "version": "2021-08-03T13:04:53.000Z",
                "status": "active",
                "experimental": false,
                "date": "2021-08-03T13:04:53+00:00",
                "publisher": "User ID: '922' User name: 'AndrewJ.Walford' User skill set: 'T4'",
                "lastReviewDate": "2021-08-03",
                "contact": [
                    {
                        "telecom": [
                            {
                                "value": "07798501130"
                            }
                        ]
                    }
                ],
                "subjectType": [
                    "Patient"
                ],
                "item": [
                    {
                        "linkId": "1766749",
                        "prefix": "7200",
                        "text": "FunctionallyImpaired",
                        "type": "choice",
                        "required": true,
                        "repeats": false,
                        "option": [
                            {
                                "valueString": "==\"\"present\"\", Selected: false"
                            },
                            {
                                "valueString": "*, Selected: true"
                            }
                        ]
                    }
                ]
            }
        },
        {
            "fullUrl": "urn:uuid:60c8095f-fc2b-415b-bf4d-eff5d690a122",
            "resource": {
                "resourceType": "QuestionnaireResponse",
                "id": "60c8095f-fc2b-415b-bf4d-eff5d690a122",
                "identifier": {
                    "value": "1766749"
                },
                "questionnaire": {
                    "reference": "urn:uuid:4a0e300a-81a6-4b1c-a055-4c5de755f856"
                },
                "status": "completed",
                "subject": {
                    "reference": "urn:uuid:e7823ace-7c32-4b99-93fb-0e63579d5cd5"
                },
                "context": {
                    "reference": "urn:uuid:54188e86-c485-4a6d-8e51-d56bf7a8a1fe"
                },
                "authored": "2021-08-03T13:04:53+00:00",
                "item": [
                    {
                        "linkId": "Tx223485",
                        "text": "ConfusionDeclared",
                        "answer": [
                            {
                                "valueString": "*"
                            }
                        ]
                    }
                ]
            }
        },
        {
            "fullUrl": "urn:uuid:4a0e300a-81a6-4b1c-a055-4c5de755f856",
            "resource": {
                "resourceType": "Questionnaire",
                "id": "4a0e300a-81a6-4b1c-a055-4c5de755f856",
                "identifier": [
                    {
                        "value": "1766749"
                    }
                ],
                "version": "2021-08-03T13:04:53.000Z",
                "status": "active",
                "experimental": false,
                "date": "2021-08-03T13:04:53+00:00",
                "publisher": "User ID: '922' User name: 'AndrewJ.Walford' User skill set: 'T4'",
                "lastReviewDate": "2021-08-03",
                "contact": [
                    {
                        "telecom": [
                            {
                                "value": "07798501130"
                            }
                        ]
                    }
                ],
                "subjectType": [
                    "Patient"
                ],
                "item": [
                    {
                        "linkId": "1766749",
                        "prefix": "2900",
                        "text": "ConfusionDeclared",
                        "type": "choice",
                        "required": true,
                        "repeats": false,
                        "option": [
                            {
                                "valueString": "==\"\"present\"\", Selected: false"
                            },
                            {
                                "valueString": "*, Selected: true"
                            }
                        ]
                    }
                ]
            }
        },
        {
            "fullUrl": "urn:uuid:1fd00f88-5c09-4cde-bdcd-120fd0a193d5",
            "resource": {
                "resourceType": "QuestionnaireResponse",
                "id": "1fd00f88-5c09-4cde-bdcd-120fd0a193d5",
                "identifier": {
                    "value": "1766749"
                },
                "questionnaire": {
                    "reference": "urn:uuid:850413e5-82af-4318-a2d1-bbf89f3f16b3"
                },
                "status": "completed",
                "subject": {
                    "reference": "urn:uuid:e7823ace-7c32-4b99-93fb-0e63579d5cd5"
                },
                "context": {
                    "reference": "urn:uuid:54188e86-c485-4a6d-8e51-d56bf7a8a1fe"
                },
                "authored": "2021-08-03T13:04:53+00:00",
                "item": [
                    {
                        "linkId": "Tx1213",
                        "text": "Have you suddenly become confused OR more confused than usual?",
                        "answer": [
                            {
                                "valueString": "no"
                            }
                        ]
                    }
                ]
            }
        },
        {
            "fullUrl": "urn:uuid:850413e5-82af-4318-a2d1-bbf89f3f16b3",
            "resource": {
                "resourceType": "Questionnaire",
                "id": "850413e5-82af-4318-a2d1-bbf89f3f16b3",
                "identifier": [
                    {
                        "value": "1766749"
                    }
                ],
                "version": "2021-08-03T13:04:53.000Z",
                "status": "active",
                "experimental": false,
                "date": "2021-08-03T13:04:53+00:00",
                "publisher": "User ID: '922' User name: 'AndrewJ.Walford' User skill set: 'T4'",
                "lastReviewDate": "2021-08-03",
                "contact": [
                    {
                        "telecom": [
                            {
                                "value": "07798501130"
                            }
                        ]
                    }
                ],
                "subjectType": [
                    "Patient"
                ],
                "item": [
                    {
                        "linkId": "1766749",
                        "prefix": "7700",
                        "text": "Have you suddenly become confused OR more confused than usual?",
                        "type": "choice",
                        "required": true,
                        "repeats": false,
                        "option": [
                            {
                                "valueString": "yes, Selected: false"
                            },
                            {
                                "valueString": "not sure, Selected: false"
                            },
                            {
                                "valueString": "no, Selected: true"
                            }
                        ]
                    }
                ]
            }
        },
        {
            "fullUrl": "urn:uuid:d6c116cc-493f-4ad5-8484-0122f8ff5633",
            "resource": {
                "resourceType": "QuestionnaireResponse",
                "id": "d6c116cc-493f-4ad5-8484-0122f8ff5633",
                "identifier": {
                    "value": "1766749"
                },
                "questionnaire": {
                    "reference": "urn:uuid:35b6d730-fa6e-424b-95bd-e941fdcea75f"
                },
                "status": "completed",
                "subject": {
                    "reference": "urn:uuid:e7823ace-7c32-4b99-93fb-0e63579d5cd5"
                },
                "context": {
                    "reference": "urn:uuid:54188e86-c485-4a6d-8e51-d56bf7a8a1fe"
                },
                "authored": "2021-08-03T13:04:53+00:00",
                "item": [
                    {
                        "linkId": "Tx220164",
                        "text": "Are you breathing faster or harder when doing nothing at all?",
                        "answer": [
                            {
                                "valueString": "no"
                            }
                        ]
                    }
                ]
            }
        },
        {
            "fullUrl": "urn:uuid:35b6d730-fa6e-424b-95bd-e941fdcea75f",
            "resource": {
                "resourceType": "Questionnaire",
                "id": "35b6d730-fa6e-424b-95bd-e941fdcea75f",
                "identifier": [
                    {
                        "value": "1766749"
                    }
                ],
                "version": "2021-08-03T13:04:53.000Z",
                "status": "active",
                "experimental": false,
                "date": "2021-08-03T13:04:53+00:00",
                "publisher": "User ID: '922' User name: 'AndrewJ.Walford' User skill set: 'T4'",
                "lastReviewDate": "2021-08-03",
                "contact": [
                    {
                        "telecom": [
                            {
                                "value": "07798501130"
                            }
                        ]
                    }
                ],
                "subjectType": [
                    "Patient"
                ],
                "item": [
                    {
                        "linkId": "1766749",
                        "prefix": "3400",
                        "text": "Are you breathing faster or harder when doing nothing at all?",
                        "type": "choice",
                        "required": true,
                        "repeats": false,
                        "option": [
                            {
                                "valueString": "yes, Selected: false"
                            },
                            {
                                "valueString": "not sure, Selected: false"
                            },
                            {
                                "valueString": "no, Selected: true"
                            }
                        ]
                    }
                ]
            }
        },
        {
            "fullUrl": "urn:uuid:ef59d0fb-4407-45c9-a15c-cd037bdd89ae",
            "resource": {
                "resourceType": "QuestionnaireResponse",
                "id": "ef59d0fb-4407-45c9-a15c-cd037bdd89ae",
                "identifier": {
                    "value": "1766749"
                },
                "questionnaire": {
                    "reference": "urn:uuid:f80af0d6-2b2d-4cb8-91fe-5e0e07a462a2"
                },
                "status": "completed",
                "subject": {
                    "reference": "urn:uuid:e7823ace-7c32-4b99-93fb-0e63579d5cd5"
                },
                "context": {
                    "reference": "urn:uuid:54188e86-c485-4a6d-8e51-d56bf7a8a1fe"
                },
                "authored": "2021-08-03T13:04:53+00:00",
                "item": [
                    {
                        "linkId": "Tx224506",
                        "text": "UnableToPassUrine",
                        "answer": [
                            {
                                "valueString": "*"
                            }
                        ]
                    }
                ]
            }
        },
        {
            "fullUrl": "urn:uuid:f80af0d6-2b2d-4cb8-91fe-5e0e07a462a2",
            "resource": {
                "resourceType": "Questionnaire",
                "id": "f80af0d6-2b2d-4cb8-91fe-5e0e07a462a2",
                "identifier": [
                    {
                        "value": "1766749"
                    }
                ],
                "version": "2021-08-03T13:04:53.000Z",
                "status": "active",
                "experimental": false,
                "date": "2021-08-03T13:04:53+00:00",
                "publisher": "User ID: '922' User name: 'AndrewJ.Walford' User skill set: 'T4'",
                "lastReviewDate": "2021-08-03",
                "contact": [
                    {
                        "telecom": [
                            {
                                "value": "07798501130"
                            }
                        ]
                    }
                ],
                "subjectType": [
                    "Patient"
                ],
                "item": [
                    {
                        "linkId": "1766749",
                        "prefix": "8300",
                        "text": "UnableToPassUrine",
                        "type": "choice",
                        "required": true,
                        "repeats": false,
                        "option": [
                            {
                                "valueString": "==\"\"present\"\", Selected: false"
                            },
                            {
                                "valueString": "*, Selected: true"
                            }
                        ]
                    }
                ]
            }
        },
        {
            "fullUrl": "urn:uuid:c561078e-e6dd-47cc-8a6f-c1c5f6b99719",
            "resource": {
                "resourceType": "QuestionnaireResponse",
                "id": "c561078e-e6dd-47cc-8a6f-c1c5f6b99719",
                "identifier": {
                    "value": "1766749"
                },
                "questionnaire": {
                    "reference": "urn:uuid:081350d5-35b2-457d-a61b-4e4c4e7a491f"
                },
                "status": "completed",
                "subject": {
                    "reference": "urn:uuid:e7823ace-7c32-4b99-93fb-0e63579d5cd5"
                },
                "context": {
                    "reference": "urn:uuid:54188e86-c485-4a6d-8e51-d56bf7a8a1fe"
                },
                "authored": "2021-08-03T13:04:53+00:00",
                "item": [
                    {
                        "linkId": "Tx222078",
                        "text": "Have you got pain in the spine?",
                        "answer": [
                            {
                                "valueString": "no"
                            }
                        ]
                    }
                ]
            }
        },
        {
            "fullUrl": "urn:uuid:081350d5-35b2-457d-a61b-4e4c4e7a491f",
            "resource": {
                "resourceType": "Questionnaire",
                "id": "081350d5-35b2-457d-a61b-4e4c4e7a491f",
                "identifier": [
                    {
                        "value": "1766749"
                    }
                ],
                "version": "2021-08-03T13:04:53.000Z",
                "status": "active",
                "experimental": false,
                "date": "2021-08-03T13:04:53+00:00",
                "publisher": "User ID: '922' User name: 'AndrewJ.Walford' User skill set: 'T4'",
                "lastReviewDate": "2021-08-03",
                "contact": [
                    {
                        "telecom": [
                            {
                                "value": "07798501130"
                            }
                        ]
                    }
                ],
                "subjectType": [
                    "Patient"
                ],
                "item": [
                    {
                        "linkId": "1766749",
                        "prefix": "400",
                        "text": "Have you got pain in the spine?",
                        "type": "choice",
                        "required": true,
                        "repeats": false,
                        "option": [
                            {
                                "valueString": "yes, Selected: false"
                            },
                            {
                                "valueString": "not sure, Selected: false"
                            },
                            {
                                "valueString": "no, Selected: true"
                            }
                        ]
                    }
                ]
            }
        },
        {
            "fullUrl": "urn:uuid:d59b08a4-95bf-4495-8156-eb8acd3cb047",
            "resource": {
                "resourceType": "QuestionnaireResponse",
                "id": "d59b08a4-95bf-4495-8156-eb8acd3cb047",
                "identifier": {
                    "value": "1766749"
                },
                "questionnaire": {
                    "reference": "urn:uuid:7a5bb5c1-6d6a-4c21-bae5-a5017ca6e676"
                },
                "status": "completed",
                "subject": {
                    "reference": "urn:uuid:e7823ace-7c32-4b99-93fb-0e63579d5cd5"
                },
                "context": {
                    "reference": "urn:uuid:54188e86-c485-4a6d-8e51-d56bf7a8a1fe"
                },
                "authored": "2021-08-03T13:04:53+00:00",
                "item": [
                    {
                        "linkId": "Tx220168",
                        "text": "Have you got pain that is getting worse?",
                        "answer": [
                            {
                                "valueString": "no"
                            }
                        ]
                    }
                ]
            }
        },
        {
            "fullUrl": "urn:uuid:7a5bb5c1-6d6a-4c21-bae5-a5017ca6e676",
            "resource": {
                "resourceType": "Questionnaire",
                "id": "7a5bb5c1-6d6a-4c21-bae5-a5017ca6e676",
                "identifier": [
                    {
                        "value": "1766749"
                    }
                ],
                "version": "2021-08-03T13:04:53.000Z",
                "status": "active",
                "experimental": false,
                "date": "2021-08-03T13:04:53+00:00",
                "publisher": "User ID: '922' User name: 'AndrewJ.Walford' User skill set: 'T4'",
                "lastReviewDate": "2021-08-03",
                "contact": [
                    {
                        "telecom": [
                            {
                                "value": "07798501130"
                            }
                        ]
                    }
                ],
                "subjectType": [
                    "Patient"
                ],
                "item": [
                    {
                        "linkId": "1766749",
                        "prefix": "300",
                        "text": "Have you got pain that is getting worse?",
                        "type": "choice",
                        "required": true,
                        "repeats": false,
                        "option": [
                            {
                                "valueString": "yes, Selected: false"
                            },
                            {
                                "valueString": "not sure, Selected: false"
                            },
                            {
                                "valueString": "no, Selected: true"
                            }
                        ]
                    }
                ]
            }
        },
        {
            "fullUrl": "urn:uuid:400c3f3f-b0b9-4327-b229-f1fc851de4ca",
            "resource": {
                "resourceType": "QuestionnaireResponse",
                "id": "400c3f3f-b0b9-4327-b229-f1fc851de4ca",
                "identifier": {
                    "value": "1766749"
                },
                "questionnaire": {
                    "reference": "urn:uuid:6a6cb7e2-77f4-4e47-91d9-ad64d3117f88"
                },
                "status": "completed",
                "subject": {
                    "reference": "urn:uuid:e7823ace-7c32-4b99-93fb-0e63579d5cd5"
                },
                "context": {
                    "reference": "urn:uuid:54188e86-c485-4a6d-8e51-d56bf7a8a1fe"
                },
                "authored": "2021-08-03T13:04:53+00:00",
                "item": [
                    {
                        "linkId": "Tx1122",
                        "text": "Have you felt hot or feverish at any time in the last 12 hours?",
                        "answer": [
                            {
                                "valueString": "no"
                            }
                        ]
                    }
                ]
            }
        },
        {
            "fullUrl": "urn:uuid:6a6cb7e2-77f4-4e47-91d9-ad64d3117f88",
            "resource": {
                "resourceType": "Questionnaire",
                "id": "6a6cb7e2-77f4-4e47-91d9-ad64d3117f88",
                "identifier": [
                    {
                        "value": "1766749"
                    }
                ],
                "version": "2021-08-03T13:04:53.000Z",
                "status": "active",
                "experimental": false,
                "date": "2021-08-03T13:04:53+00:00",
                "publisher": "User ID: '922' User name: 'AndrewJ.Walford' User skill set: 'T4'",
                "lastReviewDate": "2021-08-03",
                "contact": [
                    {
                        "telecom": [
                            {
                                "value": "07798501130"
                            }
                        ]
                    }
                ],
                "subjectType": [
                    "Patient"
                ],
                "item": [
                    {
                        "linkId": "1766749",
                        "prefix": "500",
                        "text": "Have you felt hot or feverish at any time in the last 12 hours?",
                        "type": "choice",
                        "required": true,
                        "repeats": false,
                        "option": [
                            {
                                "valueString": "yes - temperature not taken, Selected: false"
                            },
                            {
                                "valueString": "yes - temperature taken (specify), Selected: false"
                            },
                            {
                                "valueString": "not sure, Selected: false"
                            },
                            {
                                "valueString": "no, Selected: true"
                            }
                        ]
                    }
                ]
            }
        },
        {
            "fullUrl": "urn:uuid:244cc823-0cfd-4a4c-9bb3-c3c80765f829",
            "resource": {
                "resourceType": "QuestionnaireResponse",
                "id": "244cc823-0cfd-4a4c-9bb3-c3c80765f829",
                "identifier": {
                    "value": "1766749"
                },
                "questionnaire": {
                    "reference": "urn:uuid:6fe4ab65-261d-4766-8f06-3f00d4d74a86"
                },
                "status": "completed",
                "subject": {
                    "reference": "urn:uuid:e7823ace-7c32-4b99-93fb-0e63579d5cd5"
                },
                "context": {
                    "reference": "urn:uuid:54188e86-c485-4a6d-8e51-d56bf7a8a1fe"
                },
                "authored": "2021-08-03T13:04:53+00:00",
                "item": [
                    {
                        "linkId": "Tx1233",
                        "text": "Have you had a back injury IN THE LAST 4 WEEKS?",
                        "answer": [
                            {
                                "valueString": "no"
                            }
                        ]
                    }
                ]
            }
        },
        {
            "fullUrl": "urn:uuid:6fe4ab65-261d-4766-8f06-3f00d4d74a86",
            "resource": {
                "resourceType": "Questionnaire",
                "id": "6fe4ab65-261d-4766-8f06-3f00d4d74a86",
                "identifier": [
                    {
                        "value": "1766749"
                    }
                ],
                "version": "2021-08-03T13:04:53.000Z",
                "status": "active",
                "experimental": false,
                "date": "2021-08-03T13:04:53+00:00",
                "publisher": "User ID: '922' User name: 'AndrewJ.Walford' User skill set: 'T4'",
                "lastReviewDate": "2021-08-03",
                "contact": [
                    {
                        "telecom": [
                            {
                                "value": "07798501130"
                            }
                        ]
                    }
                ],
                "subjectType": [
                    "Patient"
                ],
                "item": [
                    {
                        "linkId": "1766749",
                        "prefix": "900",
                        "text": "Have you had a back injury IN THE LAST 4 WEEKS?",
                        "type": "choice",
                        "required": true,
                        "repeats": false,
                        "option": [
                            {
                                "valueString": "yes, Selected: false"
                            },
                            {
                                "valueString": "not sure, Selected: false"
                            },
                            {
                                "valueString": "no, Selected: true"
                            }
                        ]
                    }
                ]
            }
        },
        {
            "fullUrl": "urn:uuid:20e48e5d-82f2-4964-8313-b7fa4ad28bb0",
            "resource": {
                "resourceType": "QuestionnaireResponse",
                "id": "20e48e5d-82f2-4964-8313-b7fa4ad28bb0",
                "identifier": {
                    "value": "1766749"
                },
                "questionnaire": {
                    "reference": "urn:uuid:4766b9b6-7d87-40d5-b0e0-c11624deb0aa"
                },
                "status": "completed",
                "subject": {
                    "reference": "urn:uuid:e7823ace-7c32-4b99-93fb-0e63579d5cd5"
                },
                "context": {
                    "reference": "urn:uuid:54188e86-c485-4a6d-8e51-d56bf7a8a1fe"
                },
                "authored": "2021-08-03T13:04:53+00:00",
                "item": [
                    {
                        "linkId": "Tx2947",
                        "text": "Have you had any change of medication IN THE LAST 2 WEEKS?",
                        "answer": [
                            {
                                "valueString": "no"
                            }
                        ]
                    }
                ]
            }
        },
        {
            "fullUrl": "urn:uuid:4766b9b6-7d87-40d5-b0e0-c11624deb0aa",
            "resource": {
                "resourceType": "Questionnaire",
                "id": "4766b9b6-7d87-40d5-b0e0-c11624deb0aa",
                "identifier": [
                    {
                        "value": "1766749"
                    }
                ],
                "version": "2021-08-03T13:04:53.000Z",
                "status": "active",
                "experimental": false,
                "date": "2021-08-03T13:04:53+00:00",
                "publisher": "User ID: '922' User name: 'AndrewJ.Walford' User skill set: 'T4'",
                "lastReviewDate": "2021-08-03",
                "contact": [
                    {
                        "telecom": [
                            {
                                "value": "07798501130"
                            }
                        ]
                    }
                ],
                "subjectType": [
                    "Patient"
                ],
                "item": [
                    {
                        "linkId": "1766749",
                        "prefix": "1000",
                        "text": "Have you had any change of medication IN THE LAST 2 WEEKS?",
                        "type": "choice",
                        "required": true,
                        "repeats": false,
                        "option": [
                            {
                                "valueString": "started new medication, Selected: false"
                            },
                            {
                                "valueString": "changed the dose of medication, Selected: false"
                            },
                            {
                                "valueString": "stopped medication, Selected: false"
                            },
                            {
                                "valueString": "not sure, Selected: false"
                            },
                            {
                                "valueString": "no, Selected: true"
                            }
                        ]
                    }
                ]
            }
        },
        {
            "fullUrl": "urn:uuid:6386f598-f14b-4aaa-b3d7-679a3377464c",
            "resource": {
                "resourceType": "QuestionnaireResponse",
                "id": "6386f598-f14b-4aaa-b3d7-679a3377464c",
                "identifier": {
                    "value": "1766749"
                },
                "questionnaire": {
                    "reference": "urn:uuid:06b43b7a-6880-4008-ab4f-b7c184b0f6c2"
                },
                "status": "completed",
                "subject": {
                    "reference": "urn:uuid:e7823ace-7c32-4b99-93fb-0e63579d5cd5"
                },
                "context": {
                    "reference": "urn:uuid:54188e86-c485-4a6d-8e51-d56bf7a8a1fe"
                },
                "authored": "2021-08-03T13:04:53+00:00",
                "item": [
                    {
                        "linkId": "Tx221449",
                        "text": "STRING:SDPCFullPrimaryCareassessmentandprescribingcapability",
                        "answer": [
                            {
                                "valueString": "\"\"PC full Primary Care assessment and prescribing capability\"\""
                            }
                        ]
                    }
                ]
            }
        },
        {
            "fullUrl": "urn:uuid:06b43b7a-6880-4008-ab4f-b7c184b0f6c2",
            "resource": {
                "resourceType": "Questionnaire",
                "id": "06b43b7a-6880-4008-ab4f-b7c184b0f6c2",
                "identifier": [
                    {
                        "value": "1766749"
                    }
                ],
                "version": "2021-08-03T13:04:53.000Z",
                "status": "active",
                "experimental": false,
                "date": "2021-08-03T13:04:53+00:00",
                "publisher": "User ID: '922' User name: 'AndrewJ.Walford' User skill set: 'T4'",
                "lastReviewDate": "2021-08-03",
                "contact": [
                    {
                        "telecom": [
                            {
                                "value": "07798501130"
                            }
                        ]
                    }
                ],
                "subjectType": [
                    "Patient"
                ],
                "item": [
                    {
                        "linkId": "1766749",
                        "prefix": "1200",
                        "text": "STRING:SDPCFullPrimaryCareassessmentandprescribingcapability",
                        "type": "choice",
                        "required": true,
                        "repeats": false,
                        "option": [
                            {
                                "valueString": "\"\"PC full Primary Care assessment and prescribing capability\"\", Selected: true"
                            }
                        ]
                    }
                ]
            }
        },
        {
            "fullUrl": "urn:uuid:9fdcf44c-767d-4471-a10d-fd36b534a07b",
            "resource": {
                "resourceType": "QuestionnaireResponse",
                "id": "9fdcf44c-767d-4471-a10d-fd36b534a07b",
                "identifier": {
                    "value": "1766749"
                },
                "questionnaire": {
                    "reference": "urn:uuid:e4af686e-7616-40df-a17b-eaaf351fb58a"
                },
                "status": "completed",
                "subject": {
                    "reference": "urn:uuid:e7823ace-7c32-4b99-93fb-0e63579d5cd5"
                },
                "context": {
                    "reference": "urn:uuid:54188e86-c485-4a6d-8e51-d56bf7a8a1fe"
                },
                "authored": "2021-08-03T13:04:53+00:00"
            }
        },
        {
            "fullUrl": "urn:uuid:e4af686e-7616-40df-a17b-eaaf351fb58a",
            "resource": {
                "resourceType": "Questionnaire",
                "id": "e4af686e-7616-40df-a17b-eaaf351fb58a",
                "identifier": [
                    {
                        "value": "1766749"
                    }
                ],
                "version": "2021-08-03T13:04:53.000Z",
                "status": "active",
                "experimental": false,
                "date": "2021-08-03T13:04:53+00:00",
                "publisher": "User ID: '922' User name: 'AndrewJ.Walford' User skill set: 'T4'",
                "lastReviewDate": "2021-08-03",
                "contact": [
                    {
                        "telecom": [
                            {
                                "value": "07798501130"
                            }
                        ]
                    }
                ],
                "subjectType": [
                    "Patient"
                ]
            }
        },
        {
            "fullUrl": "urn:uuid:0d368fa5-1d80-441e-8882-0ee19a671c7e",
            "resource": {
                "resourceType": "QuestionnaireResponse",
                "id": "0d368fa5-1d80-441e-8882-0ee19a671c7e",
                "identifier": {
                    "value": "1766749"
                },
                "questionnaire": {
                    "reference": "urn:uuid:1129ec90-f2dc-48b9-8e59-ea4f69244ba2"
                },
                "status": "completed",
                "subject": {
                    "reference": "urn:uuid:e7823ace-7c32-4b99-93fb-0e63579d5cd5"
                },
                "context": {
                    "reference": "urn:uuid:54188e86-c485-4a6d-8e51-d56bf7a8a1fe"
                },
                "authored": "2021-08-03T13:04:53+00:00",
                "item": [
                    {
                        "linkId": "N/A"
                    }
                ]
            }
        },
        {
            "fullUrl": "urn:uuid:1129ec90-f2dc-48b9-8e59-ea4f69244ba2",
            "resource": {
                "resourceType": "Questionnaire",
                "id": "1129ec90-f2dc-48b9-8e59-ea4f69244ba2",
                "identifier": [
                    {
                        "value": "1766749"
                    }
                ],
                "version": "2021-08-03T13:04:53.000Z",
                "status": "active",
                "experimental": false,
                "date": "2021-08-03T13:04:53+00:00",
                "publisher": "User ID: '922' User name: 'AndrewJ.Walford' User skill set: 'T4'",
                "lastReviewDate": "2021-08-03",
                "contact": [
                    {
                        "telecom": [
                            {
                                "value": "07798501130"
                            }
                        ]
                    }
                ],
                "subjectType": [
                    "Patient"
                ],
                "item": [
                    {
                        "linkId": "1766749",
                        "type": "choice",
                        "required": true,
                        "repeats": false,
                        "option": [
                            {
                                "valueString": ", Selected: false"
                            }
                        ]
                    }
                ]
            }
        },
        {
            "fullUrl": "urn:uuid:dfecd441-fff5-4c56-8426-60a74ab9aaa3",
            "resource": {
                "resourceType": "QuestionnaireResponse",
                "id": "dfecd441-fff5-4c56-8426-60a74ab9aaa3",
                "identifier": {
                    "value": "1766749"
                },
                "questionnaire": {
                    "reference": "urn:uuid:b213d597-5558-4875-a5e5-b4414ae4c7b7"
                },
                "status": "completed",
                "subject": {
                    "reference": "urn:uuid:e7823ace-7c32-4b99-93fb-0e63579d5cd5"
                },
                "context": {
                    "reference": "urn:uuid:54188e86-c485-4a6d-8e51-d56bf7a8a1fe"
                },
                "authored": "2021-08-03T13:04:53+00:00"
            }
        },
        {
            "fullUrl": "urn:uuid:b213d597-5558-4875-a5e5-b4414ae4c7b7",
            "resource": {
                "resourceType": "Questionnaire",
                "id": "b213d597-5558-4875-a5e5-b4414ae4c7b7",
                "identifier": [
                    {
                        "value": "1766749"
                    }
                ],
                "version": "2021-08-03T13:04:53.000Z",
                "status": "active",
                "experimental": false,
                "date": "2021-08-03T13:04:53+00:00",
                "publisher": "User ID: '922' User name: 'AndrewJ.Walford' User skill set: 'T4'",
                "lastReviewDate": "2021-08-03",
                "contact": [
                    {
                        "telecom": [
                            {
                                "value": "07798501130"
                            }
                        ]
                    }
                ],
                "subjectType": [
                    "Patient"
                ]
            }
        },
        {
            "fullUrl": "urn:uuid:c6a5a72a-dbf3-4aff-9fb8-299ba6b207d8",
            "resource": {
                "resourceType": "Observation",
                "id": "c6a5a72a-dbf3-4aff-9fb8-299ba6b207d8",
                "status": "final",
                "code": {
                    "coding": [
                        {
                            "system": "http://snomed.info/sct",
                            "code": "33962009",
                            "display": "Presenting complaint"
                        }
                    ]
                },
                "subject": {
                    "reference": "urn:uuid:e7823ace-7c32-4b99-93fb-0e63579d5cd5"
                },
                "context": {
                    "reference": "urn:uuid:54188e86-c485-4a6d-8e51-d56bf7a8a1fe"
                }
            }
        },
        {
            "fullUrl": "urn:uuid:15cf2b21-9fca-4983-ad0a-c4a9b0629cf8",
            "resource": {
                "resourceType": "PractitionerRole",
                "id": "15cf2b21-9fca-4983-ad0a-c4a9b0629cf8",
                "practitioner": {
                    "reference": "urn:uuid:29005013-bbd4-4c9a-9008-46228a65876e"
                },
                "organization": {
                    "reference": "urn:uuid:879a41b3-c704-43f2-96e2-9389c2bbea01"
                },
                "code": [
                    {
                        "coding": [
                            {
                                "system": "2.16.840.1.113883.2.1.3.2.4.17.339",
                                "code": "NP",
                                "display": "Nurse Practitioner"
                            }
                        ]
                    }
                ]
            }
        },
        {
            "fullUrl": "urn:uuid:879a41b3-c704-43f2-96e2-9389c2bbea01",
            "resource": {
                "resourceType": "Organization",
                "id": "879a41b3-c704-43f2-96e2-9389c2bbea01",
                "identifier": [
                    {
                        "value": "RX7"
                    }
                ],
                "name": "NWAS 111"
            }
        },
        {
            "fullUrl": "urn:uuid:51276811-525f-417b-9ce2-4bc4fd68e7c0",
            "resource": {
                "resourceType": "RelatedPerson",
                "id": "51276811-525f-417b-9ce2-4bc4fd68e7c0",
                "patient": {
                    "reference": "urn:uuid:e7823ace-7c32-4b99-93fb-0e63579d5cd5"
                },
                "relationship": {
                    "coding": [
                        {
                            "system": "http://hl7.org/fhir/v2/0131",
                            "code": "C",
                            "display": "Emergency Contact"
                        }
                    ]
                },
                "telecom": [
                    {
                        "system": "phone",
                        "value": "tel:07798501130"
                    }
                ]
            }
        },
        {
            "fullUrl": "urn:uuid:3be5a7f9-7895-4e92-956e-3ab3ac0da442",
            "resource": {
                "resourceType": "Device",
                "id": "3be5a7f9-7895-4e92-956e-3ab3ac0da442",
                "model": "111 Adaptor",
                "version": "0.9.0"
            }
        },
        {
            "fullUrl": "urn:uuid:bd0d3544-dfaf-47af-af8b-57213073e9e4",
            "resource": {
                "resourceType": "List",
                "id": "bd0d3544-dfaf-47af-af8b-57213073e9e4",
                "status": "current",
                "mode": "working",
                "title": "111 Report List",
                "code": {
                    "coding": [
                        {
                            "system": "http://snomed.info/sct",
                            "code": "225390008",
                            "display": "Triage"
                        }
                    ]
                },
                "subject": {
                    "reference": "urn:uuid:e7823ace-7c32-4b99-93fb-0e63579d5cd5"
                },
                "encounter": {
                    "reference": "urn:uuid:54188e86-c485-4a6d-8e51-d56bf7a8a1fe"
                },
                "date": "2021-09-10T15:50:09+00:00",
                "source": {
                    "reference": "urn:uuid:3be5a7f9-7895-4e92-956e-3ab3ac0da442"
                },
                "orderedBy": {
                    "coding": [
                        {
                            "system": "http://hl7.org/fhir/list-order",
                            "code": "event-date",
                            "display": "Sorted by Event Date"
                        }
                    ]
                },
                "entry": [
                    {
                        "item": {
                            "reference": "urn:uuid:a8160a07-6b1c-4169-a426-4364ffab2cf8"
                        }
                    },
                    {
                        "item": {
                            "reference": "urn:uuid:c6a5a72a-dbf3-4aff-9fb8-299ba6b207d8"
                        }
                    },
                    {
                        "item": {
                            "reference": "urn:uuid:51276811-525f-417b-9ce2-4bc4fd68e7c0"
                        }
                    },
                    {
                        "item": {
                            "reference": "urn:uuid:66915df8-0121-415d-beb1-894eac4d9dfd"
                        }
                    },
                    {
                        "item": {
                            "reference": "urn:uuid:29005013-bbd4-4c9a-9008-46228a65876e"
                        }
                    },
                    {
                        "item": {
                            "reference": "urn:uuid:1aaaaf41-19c7-4ee4-b0f5-b3fc6a9aa5ff"
                        }
                    },
                    {
                        "item": {
                            "reference": "urn:uuid:879a41b3-c704-43f2-96e2-9389c2bbea01"
                        }
                    },
                    {
                        "item": {
                            "reference": "urn:uuid:06f0cd89-ab9f-4216-aa34-1cade53667b2"
                        }
                    },
                    {
                        "item": {
                            "reference": "urn:uuid:cbb5fd41-397c-4ec9-907f-dc7c6b1fdd0b"
                        }
                    },
                    {
                        "item": {
                            "reference": "urn:uuid:1129ec90-f2dc-48b9-8e59-ea4f69244ba2"
                        }
                    },
                    {
                        "item": {
                            "reference": "urn:uuid:1d08df3f-9513-40fe-81bd-0b1eeb84dd2c"
                        }
                    },
                    {
                        "item": {
                            "reference": "urn:uuid:4ee9e6d9-ab1c-4dd2-99a9-31a99058bbdd"
                        }
                    },
                    {
                        "item": {
                            "reference": "urn:uuid:ed032540-faf0-4917-95ea-ba00f8254ed1"
                        }
                    },
                    {
                        "item": {
                            "reference": "urn:uuid:34d5e985-e563-4400-a50f-83f61e53c18e"
                        }
                    },
                    {
                        "item": {
                            "reference": "urn:uuid:4d7970e9-5ce9-4882-98d5-a7cb2bb7e3b1"
                        }
                    },
                    {
                        "item": {
                            "reference": "urn:uuid:ef59d0fb-4407-45c9-a15c-cd037bdd89ae"
                        }
                    },
                    {
                        "item": {
                            "reference": "urn:uuid:b4444ecc-6a65-4315-9c0f-ab5e5df6fb3f"
                        }
                    },
                    {
                        "item": {
                            "reference": "urn:uuid:081350d5-35b2-457d-a61b-4e4c4e7a491f"
                        }
                    },
                    {
                        "item": {
                            "reference": "urn:uuid:2ec7dcad-8060-465f-ad0b-8b4676f8b15d"
                        }
                    },
                    {
                        "item": {
                            "reference": "urn:uuid:1fd00f88-5c09-4cde-bdcd-120fd0a193d5"
                        }
                    },
                    {
                        "item": {
                            "reference": "urn:uuid:e4af686e-7616-40df-a17b-eaaf351fb58a"
                        }
                    },
                    {
                        "item": {
                            "reference": "urn:uuid:19997d62-7a6b-494b-9994-2593f9b3b20c"
                        }
                    },
                    {
                        "item": {
                            "reference": "urn:uuid:6a852f4c-f2d2-4d8b-a7f3-b98fc6c08f45"
                        }
                    },
                    {
                        "item": {
                            "reference": "urn:uuid:2bbbf24c-1ed6-4731-a585-536549e8fd7a"
                        }
                    },
                    {
                        "item": {
                            "reference": "urn:uuid:877c604d-e731-49fc-9bdb-393c1bdbc108"
                        }
                    },
                    {
                        "item": {
                            "reference": "urn:uuid:244cc823-0cfd-4a4c-9bb3-c3c80765f829"
                        }
                    },
                    {
                        "item": {
                            "reference": "urn:uuid:14ef989c-d5a1-40b2-9761-27a8e20d008d"
                        }
                    },
                    {
                        "item": {
                            "reference": "urn:uuid:6fe4ab65-261d-4766-8f06-3f00d4d74a86"
                        }
                    },
                    {
                        "item": {
                            "reference": "urn:uuid:1b8a9907-6350-4cc9-8d70-2a042c4e863b"
                        }
                    },
                    {
                        "item": {
                            "reference": "urn:uuid:4723f45d-11a4-42f3-af98-2920b7f72f3a"
                        }
                    },
                    {
                        "item": {
                            "reference": "urn:uuid:29fdeea6-d0a7-4aa7-a6bb-ad6c8cd10687"
                        }
                    },
                    {
                        "item": {
                            "reference": "urn:uuid:b213d597-5558-4875-a5e5-b4414ae4c7b7"
                        }
                    },
                    {
                        "item": {
                            "reference": "urn:uuid:9fdcf44c-767d-4471-a10d-fd36b534a07b"
                        }
                    },
                    {
                        "item": {
                            "reference": "urn:uuid:1c372925-a6a2-4e8d-85d2-2775287b7389"
                        }
                    },
                    {
                        "item": {
                            "reference": "urn:uuid:fc7efe48-c10f-46a6-92f6-b00449758318"
                        }
                    },
                    {
                        "item": {
                            "reference": "urn:uuid:be0df1a9-baa1-42b0-a089-2ed929728cf0"
                        }
                    },
                    {
                        "item": {
                            "reference": "urn:uuid:60c8095f-fc2b-415b-bf4d-eff5d690a122"
                        }
                    },
                    {
                        "item": {
                            "reference": "urn:uuid:cac4c143-29f6-453a-990f-cd3039f5f40f"
                        }
                    },
                    {
                        "item": {
                            "reference": "urn:uuid:dfecd441-fff5-4c56-8426-60a74ab9aaa3"
                        }
                    },
                    {
                        "item": {
                            "reference": "urn:uuid:11d658bd-d6bd-49dc-b604-f62df3e7bf1e"
                        }
                    },
                    {
                        "item": {
                            "reference": "urn:uuid:4766b9b6-7d87-40d5-b0e0-c11624deb0aa"
                        }
                    },
                    {
                        "item": {
                            "reference": "urn:uuid:6a6cb7e2-77f4-4e47-91d9-ad64d3117f88"
                        }
                    },
                    {
                        "item": {
                            "reference": "urn:uuid:20e48e5d-82f2-4964-8313-b7fa4ad28bb0"
                        }
                    },
                    {
                        "item": {
                            "reference": "urn:uuid:36838170-00ee-4038-acaf-0f6d6cbb1ebb"
                        }
                    },
                    {
                        "item": {
                            "reference": "urn:uuid:4a0e300a-81a6-4b1c-a055-4c5de755f856"
                        }
                    },
                    {
                        "item": {
                            "reference": "urn:uuid:e93946fc-8a29-40cf-bfcd-3c29ae05a853"
                        }
                    },
                    {
                        "item": {
                            "reference": "urn:uuid:eefa8e9c-5a34-4944-8f78-6685897871ff"
                        }
                    },
                    {
                        "item": {
                            "reference": "urn:uuid:850413e5-82af-4318-a2d1-bbf89f3f16b3"
                        }
                    },
                    {
                        "item": {
                            "reference": "urn:uuid:81abd177-0318-48df-9d34-6441c75d815c"
                        }
                    },
                    {
                        "item": {
                            "reference": "urn:uuid:831a9ffe-1169-4887-9940-16984ac2ebeb"
                        }
                    },
                    {
                        "item": {
                            "reference": "urn:uuid:35b6d730-fa6e-424b-95bd-e941fdcea75f"
                        }
                    },
                    {
                        "item": {
                            "reference": "urn:uuid:f80af0d6-2b2d-4cb8-91fe-5e0e07a462a2"
                        }
                    },
                    {
                        "item": {
                            "reference": "urn:uuid:c561078e-e6dd-47cc-8a6f-c1c5f6b99719"
                        }
                    },
                    {
                        "item": {
                            "reference": "urn:uuid:6386f598-f14b-4aaa-b3d7-679a3377464c"
                        }
                    },
                    {
                        "item": {
                            "reference": "urn:uuid:53b88f35-2ab1-462f-994d-b0d4e316213d"
                        }
                    },
                    {
                        "item": {
                            "reference": "urn:uuid:a3834f1a-ec44-45b6-917d-e04b01230f53"
                        }
                    },
                    {
                        "item": {
                            "reference": "urn:uuid:51eedc6b-a9ce-41a1-830e-c41a021b902e"
                        }
                    },
                    {
                        "item": {
                            "reference": "urn:uuid:c0deaf43-9dbf-4a9d-8645-8a2d4d4eeedc"
                        }
                    },
                    {
                        "item": {
                            "reference": "urn:uuid:1c95c9e9-21d2-4290-a07e-d864952f4f04"
                        }
                    },
                    {
                        "item": {
                            "reference": "urn:uuid:06b43b7a-6880-4008-ab4f-b7c184b0f6c2"
                        }
                    },
                    {
                        "item": {
                            "reference": "urn:uuid:c7a006f0-ce75-4a1d-af14-1302e2bd9ec9"
                        }
                    },
                    {
                        "item": {
                            "reference": "urn:uuid:d6c116cc-493f-4ad5-8484-0122f8ff5633"
                        }
                    },
                    {
                        "item": {
                            "reference": "urn:uuid:d7accc22-724b-4314-aea9-12f8e1d3f7ed"
                        }
                    },
                    {
                        "item": {
                            "reference": "urn:uuid:cb66764f-1dd1-4829-a548-c552141a130f"
                        }
                    },
                    {
                        "item": {
                            "reference": "urn:uuid:7a5bb5c1-6d6a-4c21-bae5-a5017ca6e676"
                        }
                    },
                    {
                        "item": {
                            "reference": "urn:uuid:b77f3403-2462-4977-b79c-177f1cb6fba7"
                        }
                    },
                    {
                        "item": {
                            "reference": "urn:uuid:400c3f3f-b0b9-4327-b229-f1fc851de4ca"
                        }
                    },
                    {
                        "item": {
                            "reference": "urn:uuid:972c30c6-0e32-44b7-82c2-72a34a9fe0d2"
                        }
                    },
                    {
                        "item": {
                            "reference": "urn:uuid:d59b08a4-95bf-4495-8156-eb8acd3cb047"
                        }
                    },
                    {
                        "item": {
                            "reference": "urn:uuid:256b3ddb-3e57-4fb8-993e-1556cc47eff4"
                        }
                    },
                    {
                        "item": {
                            "reference": "urn:uuid:0d368fa5-1d80-441e-8882-0ee19a671c7e"
                        }
                    },
                    {
                        "item": {
                            "reference": "urn:uuid:21229d0d-ea9b-4a02-9a61-03b331feedaa"
                        }
                    },
                    {
                        "item": {
                            "reference": "urn:uuid:1281cff9-7bec-47bb-81b7-90711d8ccc72"
                        }
                    }
                ]
            }
        }
    ]
}
