{
  "resourceType": "Bundle",
  "identifier": {
    "type": {
      "text": "ClinicalDocument VersionNumber"
    },
    "value": "1"
  },
  "type": "message",
  "entry": [ {
    "fullUrl": "urn:uuid:B447241A-CEBD-41DF-AC62-46FE8022876F",
    "resource": {
      "resourceType": "MessageHeader",
      "id": "B447241A-CEBD-41DF-AC62-46FE8022876F",
      "event": {
        "system": "https://fhir.nhs.uk/STU3/CodeSystem/EventType-1",
        "code": "referral-1",
        "display": "Referral"
      },
      "destination": [ {
        "endpoint": "urn:nhs-uk:addressing:ods:Y02837001:DOSServiceID:1340268940"
      } ],
      "timestamp": "2021-08-03T13:04:53.000+00:00",
      "source": {
        "name": "NHS 111 Adaptor",
        "endpoint": "http://localhost:8080/report"
      },
      "reason": {
        "coding": [ {
          "system": "urn:nhs-itk:ns:201005:interaction",
          "code": "urn:nhs-itk:interaction:primaryOutofHourRecipientNHS111CDADocument-v2-0"
        } ]
      }
    }
  }, {
    "fullUrl": "urn:uuid:66b133e0-ad2f-48ce-ac9b-4af25b7d76dc",
    "resource": {
      "resourceType": "Encounter",
      "id": "66b133e0-ad2f-48ce-ac9b-4af25b7d76dc",
      "identifier": [ {
        "system": "2.16.840.1.113883.2.1.3.2.4.18.49",
        "value": "0163118D-0756-4A98-8F34-458721C6481F"
      }, {
        "system": "2.16.840.1.113883.2.1.3.2.4.18.34",
        "value": "1766749"
      }, {
        "system": "2.16.840.1.113883.2.1.3.2.4.18.35",
        "value": "1766749"
      } ],
      "status": "finished",
      "type": [ {
        "text": "111 Encounter Referral"
      } ],
      "subject": {
        "reference": "urn:uuid:4090ef7c-25e5-4c57-a147-490170f188f1"
      },
      "participant": [ {
        "type": [ {
          "coding": [ {
            "system": "http://hl7.org/fhir/ValueSet/encounter-participant-type",
            "code": "PPRF",
            "display": "Author"
          } ]
        } ],
        "individual": {
          "reference": "urn:uuid:bbd518d7-89bd-451b-b9ea-90e4a745826c"
        }
      } ],
      "period": {
        "start": "2021-08-03T13:04:53+00:00"
      },
      "location": [ {
        "location": {
          "reference": "urn:uuid:eef0d2f1-e952-4475-ae76-50dada0ada8d"
        },
        "status": "completed"
      } ],
      "serviceProvider": {
        "reference": "urn:uuid:ea25b23b-f88b-4ec5-9f99-9df28d9114f7"
      }
    }
  }, {
    "fullUrl": "urn:uuid:ea25b23b-f88b-4ec5-9f99-9df28d9114f7",
    "resource": {
      "resourceType": "Organization",
      "id": "ea25b23b-f88b-4ec5-9f99-9df28d9114f7",
      "active": true,
      "type": [ {
        "text": "CST"
      } ],
      "name": "NWAS 111"
    }
  }, {
    "fullUrl": "urn:uuid:bbd518d7-89bd-451b-b9ea-90e4a745826c",
    "resource": {
      "resourceType": "Practitioner",
      "id": "bbd518d7-89bd-451b-b9ea-90e4a745826c",
      "active": true,
      "name": [ {
        "text": "AndrewJ.Walford"
      } ]
    }
  }, {
    "fullUrl": "urn:uuid:eef0d2f1-e952-4475-ae76-50dada0ada8d",
    "resource": {
      "resourceType": "Location",
      "id": "eef0d2f1-e952-4475-ae76-50dada0ada8d",
      "address": {
        "type": "physical",
        "line": [ "Fleetwood Health & Wellbeing Centre", "Dock Street", "Fleetwood" ],
        "postalCode": "FY7 6HP"
      }
    }
  }, {
    "fullUrl": "urn:uuid:4090ef7c-25e5-4c57-a147-490170f188f1",
    "resource": {
      "resourceType": "Patient",
      "id": "4090ef7c-25e5-4c57-a147-490170f188f1",
      "active": true,
      "name": [ {
        "use": "official",
        "family": "Please Disregard",
        "given": [ "Dx10 Test" ]
      } ],
      "telecom": [ {
        "system": "phone",
        "value": "tel:07798501130",
        "use": "mobile"
      }, {
        "system": "phone",
        "value": "tel:07798501130"
      } ],
      "gender": "male",
      "birthDate": "1980-01-01",
      "address": [ {
        "use": "home",
        "line": [ "Fleetwood Health & Wellbeing Centre", "Dock Street", "Fleetwood" ],
        "postalCode": "FY7 6HP"
      }, {
        "type": "physical",
        "line": [ "Fleetwood Health & Wellbeing Centre", "Dock Street", "Fleetwood" ],
        "postalCode": "FY7 6HP"
      } ]
    }
  }, {
    "fullUrl": "urn:uuid:0359b59f-c3e7-436b-b081-68f6e3142301",
    "resource": {
      "resourceType": "HealthcareService",
      "id": "0359b59f-c3e7-436b-b081-68f6e3142301",
      "active": true,
      "providedBy": {
        "reference": "urn:uuid:57086c6b-1820-4a9c-902d-3ee3d6d7f265"
      },
      "location": [ {
        "reference": "urn:uuid:ce049307-9f46-48d1-9a9a-f9b1355da328"
      } ],
      "name": "Urgent Treatment Centre - Minor Injury Unit Same Day Health Cent",
      "telecom": [ {
        "system": "phone",
        "value": "tel:03001231144NP:01253955551",
        "use": "work"
      } ]
    }
  }, {
    "fullUrl": "urn:uuid:ce049307-9f46-48d1-9a9a-f9b1355da328",
    "resource": {
      "resourceType": "Location",
      "id": "ce049307-9f46-48d1-9a9a-f9b1355da328",
      "telecom": [ {
        "system": "phone",
        "value": "tel:03001231144NP:01253955551",
        "use": "work"
      } ],
      "address": {
        "use": "work",
        "line": [ "x", "x", "x" ],
        "postalCode": "FY7 6HP"
      },
      "managingOrganization": {
        "reference": "urn:uuid:57086c6b-1820-4a9c-902d-3ee3d6d7f265"
      }
    }
  }, {
    "fullUrl": "urn:uuid:57086c6b-1820-4a9c-902d-3ee3d6d7f265",
    "resource": {
      "resourceType": "Organization",
      "id": "57086c6b-1820-4a9c-902d-3ee3d6d7f265",
      "identifier": [ {
        "value": "Y02837001"
      } ],
      "type": [ {
        "coding": [ {
          "code": "PRCP",
          "display": "Urgent Treatment Centre - Minor Injury Unit Same Day Health Cent"
        } ]
      } ],
      "name": "Urgent Treatment Centre - Minor Injury Unit Same Day Health Cent"
    }
  }, {
    "fullUrl": "urn:uuid:2b6d7ae8-9f4a-41a7-bdc8-ae9ebad0d727",
    "resource": {
      "resourceType": "ReferralRequest",
      "id": "2b6d7ae8-9f4a-41a7-bdc8-ae9ebad0d727",
      "status": "active",
      "intent": "plan",
      "priority": "routine",
      "subject": {
        "reference": "urn:uuid:4090ef7c-25e5-4c57-a147-490170f188f1"
      },
      "context": {
        "reference": "urn:uuid:66b133e0-ad2f-48ce-ac9b-4af25b7d76dc"
      },
      "occurrencePeriod": {
        "start": "2022-05-05T07:31:36+00:00",
        "end": "2022-05-05T08:31:36+00:00"
      },
      "authoredOn": "2021-08-03T12:35:22+00:00",
      "requester": {
        "agent": {
          "reference": "urn:uuid:cf1f9404-9060-4bc0-90cb-a0bbabc3ed03"
        },
        "onBehalfOf": {
          "reference": "urn:uuid:ea25b23b-f88b-4ec5-9f99-9df28d9114f7"
        }
      },
      "recipient": [ {
        "reference": "urn:uuid:f096f6a4-7764-4a02-a86b-9ac53583ba12"
      }, {
        "reference": "urn:uuid:0359b59f-c3e7-436b-b081-68f6e3142301"
      } ],
      "reasonReference": [ {
        "reference": "urn:uuid:87ebad90-e3c3-4a6e-8722-e266076e9894"
      } ],
      "supportingInfo": [ {
        "reference": "urn:uuid:72135987-bbd5-4bac-b7fe-e2ff83bf45b0"
      } ]
    }
  }, {
    "fullUrl": "urn:uuid:72135987-bbd5-4bac-b7fe-e2ff83bf45b0",
    "resource": {
      "resourceType": "ProcedureRequest",
      "id": "72135987-bbd5-4bac-b7fe-e2ff83bf45b0",
      "status": "active",
      "intent": "plan",
      "priority": "routine",
      "doNotPerform": false,
      "code": {
        "coding": [ {
          "system": "2.16.840.1.113883.2.1.3.2.4.17.325",
          "code": "Dx10",
          "display": "Must Contact A Local Service For A Non-urgent Appointment"
        } ]
      },
      "subject": {
        "reference": "urn:uuid:4090ef7c-25e5-4c57-a147-490170f188f1"
      },
      "occurrencePeriod": {
        "start": "2022-05-05T07:31:36+00:00",
        "end": "2022-05-05T08:31:36+00:00"
      },
      "reasonReference": [ {
        "reference": "urn:uuid:87ebad90-e3c3-4a6e-8722-e266076e9894"
      } ]
    }
  }, {
    "fullUrl": "urn:uuid:f096f6a4-7764-4a02-a86b-9ac53583ba12",
    "resource": {
      "resourceType": "Practitioner",
      "id": "f096f6a4-7764-4a02-a86b-9ac53583ba12",
      "active": true,
      "telecom": [ {
        "system": "phone",
        "value": "tel:03001231144NP:01253955551",
        "use": "work"
      } ],
      "address": [ {
        "type": "physical",
        "line": [ "x", "x", "x" ],
        "postalCode": "FY7 6HP"
      } ]
    }
  }, {
    "fullUrl": "urn:uuid:17d9835e-ce09-47d0-a1b1-05c3e50c860e",
    "resource": {
      "resourceType": "Composition",
      "id": "17d9835e-ce09-47d0-a1b1-05c3e50c860e",
      "identifier": {
        "use": "usual",
        "value": "DEF337D1-08BF-4631-B11E-28F64349A031"
      },
      "status": "final",
      "type": {
        "coding": [ {
          "system": "http://snomed.info/sct",
          "code": "371531000",
          "display": "Report of clinical encounter (record artifact)"
        } ]
      },
      "subject": {
        "reference": "urn:uuid:4090ef7c-25e5-4c57-a147-490170f188f1"
      },
      "encounter": {
        "reference": "urn:uuid:66b133e0-ad2f-48ce-ac9b-4af25b7d76dc"
      },
      "date": "2021-08-03T13:04:53+00:00",
      "author": [ {
        "reference": "urn:uuid:bbd518d7-89bd-451b-b9ea-90e4a745826c"
      } ],
      "title": "111 Report",
      "confidentiality": "N",
      "section": [ {
        "section": [ {
          "title": "Patient's Reported Condition",
          "text": {
            "status": "generated",
            "div": "<div xmlns=\"http://www.w3.org/1999/xhtml\">**test From Nwas111 - No Action Required - Please Disregard Test</div>"
          }
        }, {
          "title": "Case Summary",
          "text": {
            "status": "generated",
            "div": "<div xmlns=\"http://www.w3.org/1999/xhtml\">&lt;content styleCode=&quot;bold&quot;&gt;Pathways Disposition: Dx10&lt;/content&gt;\n                                                    &lt;br/&gt;\n                                                    &lt;content&gt;Must Contact A Local Service For A Non-urgent Appointment User comment - '**Test From NWAS111 - No Action required - Please Disregard Test case**'&lt;/content&gt;\n                                                    &lt;br/&gt;\n                                                    &lt;br/&gt;\n                                                    &lt;content styleCode=&quot;bold&quot;&gt;Consultation Summary:&lt;/content&gt;\n                                                    &lt;br/&gt;\n                                                    &lt;content&gt;Illness - '**Test From NWAS111 - No Action required - Please Disregard Test case**'&lt;/content&gt;\n                                                    &lt;br/&gt;\n                                                    &lt;content&gt;Warm to touch&lt;/content&gt;\n                                                    &lt;br/&gt;\n                                                    &lt;br/&gt;\n                                                    &lt;content styleCode=&quot;bold&quot;&gt;Pathways Assessment:&lt;/content&gt;\n                                                    &lt;br/&gt;\n                                                    &lt;content&gt;An injury or health problem was the reason for the contact.&lt;/content&gt;\n                                                    &lt;br/&gt;\n                                                    &lt;content&gt;User comment - '**Test From NWAS111 - No Action required - Please Disregard Test case**'&lt;/content&gt;\n                                                    &lt;br/&gt;\n                                                    &lt;content&gt;Heavy bleeding had not occurred in the previous 2 hours.&lt;/content&gt;\n                                                    &lt;br/&gt;\n                                                    &lt;content&gt;An illness or health problem was the main problem.&lt;/content&gt;\n                                                    &lt;br/&gt;\n                                                    &lt;content&gt;User comment - '**Test From NWAS111 - No Action required - Please Disregard Test case**'&lt;/content&gt;\n                                                    &lt;br/&gt;\n                                                    &lt;content&gt;The individual was not fighting for breath.&lt;/content&gt;\n                                                    &lt;br/&gt;\n                                                    &lt;content&gt;The main reason for the assessment was not an allergic reaction, heart attack, chest/upper back pain, probable stroke, recent fit/seizure or suicide attempt.&lt;/content&gt;\n                                                    &lt;br/&gt;\n                                                    &lt;content&gt;The main reason for contact was not new confusion, declared diabetic hypo/hyperglycaemia, or ICD shock.&lt;/content&gt;\n                                                    &lt;br/&gt;\n                                                    &lt;content&gt;The skin on the torso felt normal, warm or hot.&lt;/content&gt;\n                                                    &lt;br/&gt;\n                                                    &lt;content&gt;Pathway selected - Difficulty Passing Urine&lt;/content&gt;\n                                                    &lt;br/&gt;\n                                                    &lt;content&gt;The individual was able to carry out most or all normal activities.&lt;/content&gt;\n                                                    &lt;br/&gt;\n                                                    &lt;content&gt;There was no new loss of bowel control or leg movement and no saddle or lower limb paraesthesia.&lt;/content&gt;\n                                                    &lt;br/&gt;\n                                                    &lt;content&gt;There was no inability to pass urine over the last 12 hours.&lt;/content&gt;\n                                                    &lt;br/&gt;\n                                                    &lt;content&gt;There was no new or worsening confusion.&lt;/content&gt;\n                                                    &lt;br/&gt;\n                                                    &lt;content&gt;Breathing harder or faster when doing nothing was not described.&lt;/content&gt;\n                                                    &lt;br/&gt;\n                                                    &lt;content&gt;There was no spinal pain.&lt;/content&gt;\n                                                    &lt;br/&gt;\n                                                    &lt;content&gt;The pain was not getting worse.&lt;/content&gt;\n                                                    &lt;br/&gt;\n                                                    &lt;content&gt;There was no fever at the time of assessment or within the previous 12 hours.&lt;/content&gt;\n                                                    &lt;br/&gt;\n                                                    &lt;content&gt;The individual had not experienced a back injury within the previous 4 weeks.&lt;/content&gt;\n                                                    &lt;br/&gt;\n                                                    &lt;content&gt;Medication type or dosage had not changed within the previous 2 weeks.&lt;/content&gt;\n                                                    &lt;br/&gt;\n                                                    &lt;content&gt;User comment - 'Urgent Treatment Centre - Same Day Health Centre - Fleetwood'&lt;/content&gt;\n                                                    &lt;br/&gt;\n                                                    &lt;br/&gt;\n                                                    &lt;content styleCode=&quot;bold&quot;&gt;Advice Given:&lt;/content&gt;\n                                                    &lt;br/&gt;\n                                                    &lt;content&gt;Unless advised not to, paracetamol may be used to relieve pain or fever. Follow the instructions in the pack. If in doubt ask a pharmacist.&lt;/content&gt;\n                                                    &lt;br/&gt;\n                                                    &lt;br/&gt;</div>"
          }
        } ]
      }, {
        "title": "ReferralRequest",
        "entry": [ {
          "reference": "urn:uuid:2b6d7ae8-9f4a-41a7-bdc8-ae9ebad0d727"
        } ]
      }, {
        "title": "QuestionnaireResponse",
        "entry": [ {
          "reference": "urn:uuid:8d9bd8ca-3b8c-4b34-a2b6-eb1299ac9d46"
        } ]
      }, {
        "title": "QuestionnaireResponse",
        "entry": [ {
          "reference": "urn:uuid:b6fc7c24-9418-4b20-b756-499f871e8e97"
        } ]
      }, {
        "title": "QuestionnaireResponse",
        "entry": [ {
          "reference": "urn:uuid:53bd6c8f-2fb8-4d10-bb87-520ebcbd928c"
        } ]
      }, {
        "title": "QuestionnaireResponse",
        "entry": [ {
          "reference": "urn:uuid:d9420e3b-187f-4fa4-8676-64eb13a2bc1e"
        } ]
      }, {
        "title": "QuestionnaireResponse",
        "entry": [ {
          "reference": "urn:uuid:c140a2ef-2602-4017-b39c-2e4b18584e80"
        } ]
      }, {
        "title": "QuestionnaireResponse",
        "entry": [ {
          "reference": "urn:uuid:b4bf53fe-4901-4835-8fa9-519eadec7f4c"
        } ]
      }, {
        "title": "QuestionnaireResponse",
        "entry": [ {
          "reference": "urn:uuid:f94f69d1-2121-47f7-bdbc-68d8654ed3bd"
        } ]
      }, {
        "title": "QuestionnaireResponse",
        "entry": [ {
          "reference": "urn:uuid:dc32c49f-e32d-4ca6-a01f-a7704d489396"
        } ]
      }, {
        "title": "QuestionnaireResponse",
        "entry": [ {
          "reference": "urn:uuid:77f3c4ad-f9f0-45aa-b897-bcd01646f5b9"
        } ]
      }, {
        "title": "QuestionnaireResponse",
        "entry": [ {
          "reference": "urn:uuid:3422ccad-1191-475d-996b-4af9c757ac9d"
        } ]
      }, {
        "title": "QuestionnaireResponse",
        "entry": [ {
          "reference": "urn:uuid:0ccdb865-3e66-4f31-9bda-fe19b4d9b272"
        } ]
      }, {
        "title": "QuestionnaireResponse",
        "entry": [ {
          "reference": "urn:uuid:c4103d74-8a42-4d76-8efb-863a3cc6a56a"
        } ]
      }, {
        "title": "QuestionnaireResponse",
        "entry": [ {
          "reference": "urn:uuid:92498f97-0697-4fc9-9ec3-093690d7b30d"
        } ]
      }, {
        "title": "QuestionnaireResponse",
        "entry": [ {
          "reference": "urn:uuid:2d9aeebb-dfa7-41e0-bf5c-4048e1dfa558"
        } ]
      }, {
        "title": "QuestionnaireResponse",
        "entry": [ {
          "reference": "urn:uuid:295c242a-4291-4d57-a5b7-2a084e61bb94"
        } ]
      }, {
        "title": "QuestionnaireResponse",
        "entry": [ {
          "reference": "urn:uuid:b06b8b26-6cc4-4a72-b9a7-4299fe7ba63d"
        } ]
      }, {
        "title": "QuestionnaireResponse",
        "entry": [ {
          "reference": "urn:uuid:79d8c705-d22a-41d6-8e43-68662a049f36"
        } ]
      }, {
        "title": "QuestionnaireResponse",
        "entry": [ {
          "reference": "urn:uuid:1b108e31-2ba2-4359-85bc-851ced34b87f"
        } ]
      }, {
        "title": "QuestionnaireResponse",
        "entry": [ {
          "reference": "urn:uuid:4ce2730b-7591-4993-9437-b66d1723efe8"
        } ]
      }, {
        "title": "QuestionnaireResponse",
        "entry": [ {
          "reference": "urn:uuid:148612d2-69ec-4969-946d-c14aa747efd6"
        } ]
      }, {
        "title": "QuestionnaireResponse",
        "entry": [ {
          "reference": "urn:uuid:73d50c49-6cfb-4663-82bb-3a5ec3b5dacd"
        } ]
      }, {
        "title": "QuestionnaireResponse",
        "entry": [ {
          "reference": "urn:uuid:30884276-7bf8-4981-982a-66fac6ad37be"
        } ]
      }, {
        "title": "QuestionnaireResponse",
        "entry": [ {
          "reference": "urn:uuid:db78c758-c64d-4caa-b8cc-a39bfa502f4e"
        } ]
      }, {
        "title": "QuestionnaireResponse",
        "entry": [ {
          "reference": "urn:uuid:04702abb-b0cb-4cc3-bcce-713e9e2711f1"
        } ]
      }, {
        "title": "QuestionnaireResponse",
        "entry": [ {
          "reference": "urn:uuid:1633d05f-0ead-4757-9db2-3d90f0fb32ec"
        } ]
      }, {
        "title": "QuestionnaireResponse",
        "entry": [ {
          "reference": "urn:uuid:6ab9751e-d7ef-432d-b9d0-cdf684e5d79d"
        } ]
      }, {
        "title": "QuestionnaireResponse",
        "entry": [ {
          "reference": "urn:uuid:9148731e-027c-44c9-bce8-34fa4b32d302"
        } ]
      }, {
        "title": "QuestionnaireResponse",
        "entry": [ {
          "reference": "urn:uuid:d25b6b28-fb50-4b5a-b521-f2bb52be11ba"
        } ]
      }, {
        "title": "QuestionnaireResponse",
        "entry": [ {
          "reference": "urn:uuid:f44a7feb-2d99-4a93-a7b2-c23109d4ab1b"
        } ]
      }, {
        "title": "QuestionnaireResponse",
        "entry": [ {
          "reference": "urn:uuid:5be9522c-0ada-4efc-8913-046e91dbf9f8"
        } ]
      }, {
        "title": "QuestionnaireResponse",
        "entry": [ {
          "reference": "urn:uuid:3a0988db-ef72-44cb-b142-b137242ffbc9"
        } ]
      }, {
        "title": "QuestionnaireResponse",
        "entry": [ {
          "reference": "urn:uuid:eba36039-24a6-4a10-add4-d1e7749b053d"
        } ]
      } ]
    }
  }, {
    "fullUrl": "urn:uuid:8d3acfcf-8aa7-4c61-b916-c09e6a2d37d1",
    "resource": {
      "resourceType": "Consent",
      "id": "8d3acfcf-8aa7-4c61-b916-c09e6a2d37d1",
      "identifier": {
        "use": "usual",
        "value": "DEF337D1-08BF-4631-B11E-28F64349A031"
      },
      "status": "active",
      "patient": {
        "reference": "urn:uuid:4090ef7c-25e5-4c57-a147-490170f188f1"
      },
      "period": {
        "start": "2021-08-03T13:04:53+00:00"
      },
      "consentingParty": [ {
        "reference": "urn:uuid:4090ef7c-25e5-4c57-a147-490170f188f1"
      } ],
      "action": [ {
        "coding": [ {
          "system": "http://snomed.info/sct",
          "code": "425691002",
          "display": "Consent given for electronic record sharing"
        } ],
        "text": "Consent given for electronic record sharing"
      } ],
      "organization": [ {
        "reference": "urn:uuid:ea25b23b-f88b-4ec5-9f99-9df28d9114f7"
      } ],
      "policyRule": "http://hl7.org/fhir/ConsentPolicy/opt-out",
      "data": [ {
        "meaning": "related",
        "reference": {
          "reference": "urn:uuid:66b133e0-ad2f-48ce-ac9b-4af25b7d76dc"
        }
      } ]
    }
  }, {
    "fullUrl": "urn:uuid:87ebad90-e3c3-4a6e-8722-e266076e9894",
    "resource": {
      "resourceType": "Condition",
      "id": "87ebad90-e3c3-4a6e-8722-e266076e9894",
      "clinicalStatus": "active",
      "verificationStatus": "unknown",
      "subject": {
        "reference": "urn:uuid:4090ef7c-25e5-4c57-a147-490170f188f1"
      },
      "context": {
        "reference": "urn:uuid:66b133e0-ad2f-48ce-ac9b-4af25b7d76dc"
      },
      "evidence": [ {
        "detail": [ {
          "reference": "urn:uuid:8d9bd8ca-3b8c-4b34-a2b6-eb1299ac9d46"
        } ]
      }, {
        "detail": [ {
          "reference": "urn:uuid:b6fc7c24-9418-4b20-b756-499f871e8e97"
        } ]
      }, {
        "detail": [ {
          "reference": "urn:uuid:53bd6c8f-2fb8-4d10-bb87-520ebcbd928c"
        } ]
      }, {
        "detail": [ {
          "reference": "urn:uuid:d9420e3b-187f-4fa4-8676-64eb13a2bc1e"
        } ]
      }, {
        "detail": [ {
          "reference": "urn:uuid:c140a2ef-2602-4017-b39c-2e4b18584e80"
        } ]
      }, {
        "detail": [ {
          "reference": "urn:uuid:b4bf53fe-4901-4835-8fa9-519eadec7f4c"
        } ]
      }, {
        "detail": [ {
          "reference": "urn:uuid:f94f69d1-2121-47f7-bdbc-68d8654ed3bd"
        } ]
      }, {
        "detail": [ {
          "reference": "urn:uuid:dc32c49f-e32d-4ca6-a01f-a7704d489396"
        } ]
      }, {
        "detail": [ {
          "reference": "urn:uuid:77f3c4ad-f9f0-45aa-b897-bcd01646f5b9"
        } ]
      }, {
        "detail": [ {
          "reference": "urn:uuid:3422ccad-1191-475d-996b-4af9c757ac9d"
        } ]
      }, {
        "detail": [ {
          "reference": "urn:uuid:0ccdb865-3e66-4f31-9bda-fe19b4d9b272"
        } ]
      }, {
        "detail": [ {
          "reference": "urn:uuid:c4103d74-8a42-4d76-8efb-863a3cc6a56a"
        } ]
      }, {
        "detail": [ {
          "reference": "urn:uuid:92498f97-0697-4fc9-9ec3-093690d7b30d"
        } ]
      }, {
        "detail": [ {
          "reference": "urn:uuid:2d9aeebb-dfa7-41e0-bf5c-4048e1dfa558"
        } ]
      }, {
        "detail": [ {
          "reference": "urn:uuid:295c242a-4291-4d57-a5b7-2a084e61bb94"
        } ]
      }, {
        "detail": [ {
          "reference": "urn:uuid:b06b8b26-6cc4-4a72-b9a7-4299fe7ba63d"
        } ]
      }, {
        "detail": [ {
          "reference": "urn:uuid:79d8c705-d22a-41d6-8e43-68662a049f36"
        } ]
      }, {
        "detail": [ {
          "reference": "urn:uuid:1b108e31-2ba2-4359-85bc-851ced34b87f"
        } ]
      }, {
        "detail": [ {
          "reference": "urn:uuid:4ce2730b-7591-4993-9437-b66d1723efe8"
        } ]
      }, {
        "detail": [ {
          "reference": "urn:uuid:148612d2-69ec-4969-946d-c14aa747efd6"
        } ]
      }, {
        "detail": [ {
          "reference": "urn:uuid:73d50c49-6cfb-4663-82bb-3a5ec3b5dacd"
        } ]
      }, {
        "detail": [ {
          "reference": "urn:uuid:30884276-7bf8-4981-982a-66fac6ad37be"
        } ]
      }, {
        "detail": [ {
          "reference": "urn:uuid:db78c758-c64d-4caa-b8cc-a39bfa502f4e"
        } ]
      }, {
        "detail": [ {
          "reference": "urn:uuid:04702abb-b0cb-4cc3-bcce-713e9e2711f1"
        } ]
      }, {
        "detail": [ {
          "reference": "urn:uuid:1633d05f-0ead-4757-9db2-3d90f0fb32ec"
        } ]
      }, {
        "detail": [ {
          "reference": "urn:uuid:6ab9751e-d7ef-432d-b9d0-cdf684e5d79d"
        } ]
      }, {
        "detail": [ {
          "reference": "urn:uuid:9148731e-027c-44c9-bce8-34fa4b32d302"
        } ]
      }, {
        "detail": [ {
          "reference": "urn:uuid:d25b6b28-fb50-4b5a-b521-f2bb52be11ba"
        } ]
      }, {
        "detail": [ {
          "reference": "urn:uuid:f44a7feb-2d99-4a93-a7b2-c23109d4ab1b"
        } ]
      }, {
        "detail": [ {
          "reference": "urn:uuid:5be9522c-0ada-4efc-8913-046e91dbf9f8"
        } ]
      }, {
        "detail": [ {
          "reference": "urn:uuid:3a0988db-ef72-44cb-b142-b137242ffbc9"
        } ]
      }, {
        "detail": [ {
          "reference": "urn:uuid:eba36039-24a6-4a10-add4-d1e7749b053d"
        } ]
      } ]
    }
  }, {
    "fullUrl": "urn:uuid:8d9bd8ca-3b8c-4b34-a2b6-eb1299ac9d46",
    "resource": {
      "resourceType": "QuestionnaireResponse",
      "id": "8d9bd8ca-3b8c-4b34-a2b6-eb1299ac9d46",
      "identifier": {
        "value": "1766749"
      },
      "questionnaire": {
        "reference": "urn:uuid:ce7fae20-e067-4fc3-8dd0-20cbb8c981c8"
      },
      "status": "completed",
      "subject": {
        "reference": "urn:uuid:4090ef7c-25e5-4c57-a147-490170f188f1"
      },
      "context": {
        "reference": "urn:uuid:66b133e0-ad2f-48ce-ac9b-4af25b7d76dc"
      },
      "authored": "2021-08-03T13:04:53+00:00",
      "item": [ {
        "linkId": "Tx220109",
        "text": "What is the reason for the contact?",
        "answer": [ {
          "valueString": "an injury or other health problem"
        } ]
      } ]
    }
  }, {
    "fullUrl": "urn:uuid:ce7fae20-e067-4fc3-8dd0-20cbb8c981c8",
    "resource": {
      "resourceType": "Questionnaire",
      "id": "ce7fae20-e067-4fc3-8dd0-20cbb8c981c8",
      "identifier": [ {
        "value": "1766749"
      } ],
      "version": "2021-08-03T13:04:53.000Z",
      "status": "active",
      "experimental": false,
      "date": "2021-08-03T13:04:53+00:00",
      "publisher": "User ID: '922' User name: 'AndrewJ.Walford' User skill set: 'T4'",
      "lastReviewDate": "2021-08-03",
      "contact": [ {
        "telecom": [ {
          "system": "phone",
          "value": "07798501130"
        } ]
      } ],
      "subjectType": [ "Patient" ],
      "item": [ {
        "linkId": "1766749",
        "prefix": "5",
        "text": "What is the reason for the contact?",
        "type": "choice",
        "required": true,
        "repeats": false,
        "option": [ {
          "valueString": "an injury or other health problem, Selected: true"
        }, {
          "valueString": "a need to access another healthcare service, Selected: false"
        }, {
          "valueString": "a healthcare professional requesting contact with another clinician, Selected: false"
        }, {
          "valueString": "a report of results or tests, Selected: false"
        }, {
          "valueString": "more, Selected: false"
        } ]
      } ]
    }
  }, {
    "fullUrl": "urn:uuid:b6fc7c24-9418-4b20-b756-499f871e8e97",
    "resource": {
      "resourceType": "QuestionnaireResponse",
      "id": "b6fc7c24-9418-4b20-b756-499f871e8e97",
      "identifier": {
        "value": "1766749"
      },
      "questionnaire": {
        "reference": "urn:uuid:bf5e5b2b-ad9a-4fe6-a122-683213f04195"
      },
      "status": "completed",
      "subject": {
        "reference": "urn:uuid:4090ef7c-25e5-4c57-a147-490170f188f1"
      },
      "context": {
        "reference": "urn:uuid:66b133e0-ad2f-48ce-ac9b-4af25b7d76dc"
      },
      "authored": "2021-08-03T13:04:53+00:00",
      "item": [ {
        "linkId": "Tx221788",
        "text": "STRING:to'ImmediateThreatsToLife(SPA/OOHversion)'-'ABC'menu",
        "answer": [ {
          "valueString": "\"\"present\"\""
        } ]
      } ]
    }
  }, {
    "fullUrl": "urn:uuid:bf5e5b2b-ad9a-4fe6-a122-683213f04195",
    "resource": {
      "resourceType": "Questionnaire",
      "id": "bf5e5b2b-ad9a-4fe6-a122-683213f04195",
      "identifier": [ {
        "value": "1766749"
      } ],
      "version": "2021-08-03T13:04:53.000Z",
      "status": "active",
      "experimental": false,
      "date": "2021-08-03T13:04:53+00:00",
      "publisher": "User ID: '922' User name: 'AndrewJ.Walford' User skill set: 'T4'",
      "lastReviewDate": "2021-08-03",
      "contact": [ {
        "telecom": [ {
          "system": "phone",
          "value": "07798501130"
        } ]
      } ],
      "subjectType": [ "Patient" ],
      "item": [ {
        "linkId": "1766749",
        "prefix": "500",
        "text": "STRING:to'ImmediateThreatsToLife(SPA/OOHversion)'-'ABC'menu",
        "type": "choice",
        "required": true,
        "repeats": false,
        "option": [ {
          "valueString": "\"\"present\"\", Selected: true"
        } ]
      } ]
    }
  }, {
    "fullUrl": "urn:uuid:53bd6c8f-2fb8-4d10-bb87-520ebcbd928c",
    "resource": {
      "resourceType": "QuestionnaireResponse",
      "id": "53bd6c8f-2fb8-4d10-bb87-520ebcbd928c",
      "identifier": {
        "value": "1766749"
      },
      "questionnaire": {
        "reference": "urn:uuid:a045b074-06fe-4c5f-9ab9-dfd3c83f98eb"
      },
      "status": "completed",
      "subject": {
        "reference": "urn:uuid:4090ef7c-25e5-4c57-a147-490170f188f1"
      },
      "context": {
        "reference": "urn:uuid:66b133e0-ad2f-48ce-ac9b-4af25b7d76dc"
      },
      "authored": "2021-08-03T13:04:53+00:00",
      "item": [ {
        "linkId": "Tx221814",
        "text": "STRING:aninjuryorotherhealthproblemestablishedinEntryFlow",
        "answer": [ {
          "valueString": "\"\"present\"\""
        } ]
      } ]
    }
  }, {
    "fullUrl": "urn:uuid:a045b074-06fe-4c5f-9ab9-dfd3c83f98eb",
    "resource": {
      "resourceType": "Questionnaire",
      "id": "a045b074-06fe-4c5f-9ab9-dfd3c83f98eb",
      "identifier": [ {
        "value": "1766749"
      } ],
      "version": "2021-08-03T13:04:53.000Z",
      "status": "active",
      "experimental": false,
      "date": "2021-08-03T13:04:53+00:00",
      "publisher": "User ID: '922' User name: 'AndrewJ.Walford' User skill set: 'T4'",
      "lastReviewDate": "2021-08-03",
      "contact": [ {
        "telecom": [ {
          "system": "phone",
          "value": "07798501130"
        } ]
      } ],
      "subjectType": [ "Patient" ],
      "item": [ {
        "linkId": "1766749",
        "prefix": "0",
        "text": "STRING:aninjuryorotherhealthproblemestablishedinEntryFlow",
        "type": "choice",
        "required": true,
        "repeats": false,
        "option": [ {
          "valueString": "\"\"present\"\", Selected: true"
        } ]
      } ]
    }
  }, {
    "fullUrl": "urn:uuid:d9420e3b-187f-4fa4-8676-64eb13a2bc1e",
    "resource": {
      "resourceType": "QuestionnaireResponse",
      "id": "d9420e3b-187f-4fa4-8676-64eb13a2bc1e",
      "identifier": {
        "value": "1766749"
      },
      "questionnaire": {
        "reference": "urn:uuid:19e8b619-2cf2-4703-8ba5-3c7353851ef2"
      },
      "status": "completed",
      "subject": {
        "reference": "urn:uuid:4090ef7c-25e5-4c57-a147-490170f188f1"
      },
      "context": {
        "reference": "urn:uuid:66b133e0-ad2f-48ce-ac9b-4af25b7d76dc"
      },
      "authored": "2021-08-03T13:04:53+00:00",
      "item": [ {
        "linkId": "Tx224120",
        "text": "Have you been bleeding RED BLOOD very heavily IN THE LAST 2 HOURS?",
        "answer": [ {
          "valueString": "no"
        } ]
      } ]
    }
  }, {
    "fullUrl": "urn:uuid:19e8b619-2cf2-4703-8ba5-3c7353851ef2",
    "resource": {
      "resourceType": "Questionnaire",
      "id": "19e8b619-2cf2-4703-8ba5-3c7353851ef2",
      "identifier": [ {
        "value": "1766749"
      } ],
      "version": "2021-08-03T13:04:53.000Z",
      "status": "active",
      "experimental": false,
      "date": "2021-08-03T13:04:53+00:00",
      "publisher": "User ID: '922' User name: 'AndrewJ.Walford' User skill set: 'T4'",
      "lastReviewDate": "2021-08-03",
      "contact": [ {
        "telecom": [ {
          "system": "phone",
          "value": "07798501130"
        } ]
      } ],
      "subjectType": [ "Patient" ],
      "item": [ {
        "linkId": "1766749",
        "prefix": "7000",
        "text": "Have you been bleeding RED BLOOD very heavily IN THE LAST 2 HOURS?",
        "type": "choice",
        "required": true,
        "repeats": false,
        "option": [ {
          "valueString": "yes, Selected: false"
        }, {
          "valueString": "not sure, Selected: false"
        }, {
          "valueString": "no, Selected: true"
        } ]
      } ]
    }
  }, {
    "fullUrl": "urn:uuid:c140a2ef-2602-4017-b39c-2e4b18584e80",
    "resource": {
      "resourceType": "QuestionnaireResponse",
      "id": "c140a2ef-2602-4017-b39c-2e4b18584e80",
      "identifier": {
        "value": "1766749"
      },
      "questionnaire": {
        "reference": "urn:uuid:ea299ee5-6046-4a8b-8cad-493f17400c53"
      },
      "status": "completed",
      "subject": {
        "reference": "urn:uuid:4090ef7c-25e5-4c57-a147-490170f188f1"
      },
      "context": {
        "reference": "urn:uuid:66b133e0-ad2f-48ce-ac9b-4af25b7d76dc"
      },
      "authored": "2021-08-03T13:04:53+00:00",
      "item": [ {
        "linkId": "Tx221343",
        "text": "SocialConcernsExcluded",
        "answer": [ {
          "valueString": "*"
        } ]
      } ]
    }
  }, {
    "fullUrl": "urn:uuid:ea299ee5-6046-4a8b-8cad-493f17400c53",
    "resource": {
      "resourceType": "Questionnaire",
      "id": "ea299ee5-6046-4a8b-8cad-493f17400c53",
      "identifier": [ {
        "value": "1766749"
      } ],
      "version": "2021-08-03T13:04:53.000Z",
      "status": "active",
      "experimental": false,
      "date": "2021-08-03T13:04:53+00:00",
      "publisher": "User ID: '922' User name: 'AndrewJ.Walford' User skill set: 'T4'",
      "lastReviewDate": "2021-08-03",
      "contact": [ {
        "telecom": [ {
          "system": "phone",
          "value": "07798501130"
        } ]
      } ],
      "subjectType": [ "Patient" ],
      "item": [ {
        "linkId": "1766749",
        "prefix": "2700",
        "text": "SocialConcernsExcluded",
        "type": "choice",
        "required": true,
        "repeats": false,
        "option": [ {
          "valueString": "==\"\"present\"\", Selected: false"
        }, {
          "valueString": "*, Selected: true"
        } ]
      } ]
    }
  }, {
    "fullUrl": "urn:uuid:b4bf53fe-4901-4835-8fa9-519eadec7f4c",
    "resource": {
      "resourceType": "QuestionnaireResponse",
      "id": "b4bf53fe-4901-4835-8fa9-519eadec7f4c",
      "identifier": {
        "value": "1766749"
      },
      "questionnaire": {
        "reference": "urn:uuid:b974c950-72e3-4b4b-a7ad-c3eac926f448"
      },
      "status": "completed",
      "subject": {
        "reference": "urn:uuid:4090ef7c-25e5-4c57-a147-490170f188f1"
      },
      "context": {
        "reference": "urn:uuid:66b133e0-ad2f-48ce-ac9b-4af25b7d76dc"
      },
      "authored": "2021-08-03T13:04:53+00:00",
      "item": [ {
        "linkId": "Tx130011",
        "text": "What is the main problem?",
        "answer": [ {
          "valueString": "illness or other health problem (specify)"
        } ]
      } ]
    }
  }, {
    "fullUrl": "urn:uuid:b974c950-72e3-4b4b-a7ad-c3eac926f448",
    "resource": {
      "resourceType": "Questionnaire",
      "id": "b974c950-72e3-4b4b-a7ad-c3eac926f448",
      "identifier": [ {
        "value": "1766749"
      } ],
      "version": "2021-08-03T13:04:53.000Z",
      "status": "active",
      "experimental": false,
      "date": "2021-08-03T13:04:53+00:00",
      "publisher": "User ID: '922' User name: 'AndrewJ.Walford' User skill set: 'T4'",
      "lastReviewDate": "2021-08-03",
      "contact": [ {
        "telecom": [ {
          "system": "phone",
          "value": "07798501130"
        } ]
      } ],
      "subjectType": [ "Patient" ],
      "item": [ {
        "linkId": "1766749",
        "prefix": "3400",
        "text": "What is the main problem?",
        "type": "choice",
        "required": true,
        "repeats": false,
        "option": [ {
          "valueString": "the individual has been told to follow a particular course of action (specify), Selected: false"
        }, {
          "valueString": "the individual is an identified frequent caller, Selected: false"
        }, {
          "valueString": "injury (specify), Selected: false"
        }, {
          "valueString": "illness or other health problem (specify), Selected: true"
        }, {
          "valueString": "child protection/vulnerable adult concern, Selected: false"
        }, {
          "valueString": "social or domestic emergency, Selected: false"
        }, {
          "valueString": "the environment potentially poses an immediate threat to life (specify), Selected: false"
        } ]
      } ]
    }
  }, {
    "fullUrl": "urn:uuid:f94f69d1-2121-47f7-bdbc-68d8654ed3bd",
    "resource": {
      "resourceType": "QuestionnaireResponse",
      "id": "f94f69d1-2121-47f7-bdbc-68d8654ed3bd",
      "identifier": {
        "value": "1766749"
      },
      "questionnaire": {
        "reference": "urn:uuid:197ad54f-5d81-47d0-bed4-faeee885b1e1"
      },
      "status": "completed",
      "subject": {
        "reference": "urn:uuid:4090ef7c-25e5-4c57-a147-490170f188f1"
      },
      "context": {
        "reference": "urn:uuid:66b133e0-ad2f-48ce-ac9b-4af25b7d76dc"
      },
      "authored": "2021-08-03T13:04:53+00:00",
      "item": [ {
        "linkId": "Tx61025",
        "text": "Are you so breathless that speaking more than a few words is impossible?",
        "answer": [ {
          "valueString": "no"
        } ]
      } ]
    }
  }, {
    "fullUrl": "urn:uuid:197ad54f-5d81-47d0-bed4-faeee885b1e1",
    "resource": {
      "resourceType": "Questionnaire",
      "id": "197ad54f-5d81-47d0-bed4-faeee885b1e1",
      "identifier": [ {
        "value": "1766749"
      } ],
      "version": "2021-08-03T13:04:53.000Z",
      "status": "active",
      "experimental": false,
      "date": "2021-08-03T13:04:53+00:00",
      "publisher": "User ID: '922' User name: 'AndrewJ.Walford' User skill set: 'T4'",
      "lastReviewDate": "2021-08-03",
      "contact": [ {
        "telecom": [ {
          "system": "phone",
          "value": "07798501130"
        } ]
      } ],
      "subjectType": [ "Patient" ],
      "item": [ {
        "linkId": "1766749",
        "prefix": "0",
        "text": "Are you so breathless that speaking more than a few words is impossible?",
        "type": "choice",
        "required": true,
        "repeats": false,
        "option": [ {
          "valueString": "yes, Selected: false"
        }, {
          "valueString": "not sure, Selected: false"
        }, {
          "valueString": "no, Selected: true"
        } ]
      } ]
    }
  }, {
    "fullUrl": "urn:uuid:dc32c49f-e32d-4ca6-a01f-a7704d489396",
    "resource": {
      "resourceType": "QuestionnaireResponse",
      "id": "dc32c49f-e32d-4ca6-a01f-a7704d489396",
      "identifier": {
        "value": "1766749"
      },
      "questionnaire": {
        "reference": "urn:uuid:18be7cca-aa75-4080-a3bb-5967c3499d10"
      },
      "status": "completed",
      "subject": {
        "reference": "urn:uuid:4090ef7c-25e5-4c57-a147-490170f188f1"
      },
      "context": {
        "reference": "urn:uuid:66b133e0-ad2f-48ce-ac9b-4af25b7d76dc"
      },
      "authored": "2021-08-03T13:04:53+00:00",
      "item": [ {
        "linkId": "Tx220845",
        "text": "SYSTEM_FLUPANDEMIC",
        "answer": [ {
          "valueString": "*"
        } ]
      } ]
    }
  }, {
    "fullUrl": "urn:uuid:18be7cca-aa75-4080-a3bb-5967c3499d10",
    "resource": {
      "resourceType": "Questionnaire",
      "id": "18be7cca-aa75-4080-a3bb-5967c3499d10",
      "identifier": [ {
        "value": "1766749"
      } ],
      "version": "2021-08-03T13:04:53.000Z",
      "status": "active",
      "experimental": false,
      "date": "2021-08-03T13:04:53+00:00",
      "publisher": "User ID: '922' User name: 'AndrewJ.Walford' User skill set: 'T4'",
      "lastReviewDate": "2021-08-03",
      "contact": [ {
        "telecom": [ {
          "system": "phone",
          "value": "07798501130"
        } ]
      } ],
      "subjectType": [ "Patient" ],
      "item": [ {
        "linkId": "1766749",
        "prefix": "100",
        "text": "SYSTEM_FLUPANDEMIC",
        "type": "choice",
        "required": true,
        "repeats": false,
        "option": [ {
          "valueString": "==\"\"pandemic\"\", Selected: false"
        }, {
          "valueString": "*, Selected: true"
        } ]
      } ]
    }
  }, {
    "fullUrl": "urn:uuid:77f3c4ad-f9f0-45aa-b897-bcd01646f5b9",
    "resource": {
      "resourceType": "QuestionnaireResponse",
      "id": "77f3c4ad-f9f0-45aa-b897-bcd01646f5b9",
      "identifier": {
        "value": "1766749"
      },
      "questionnaire": {
        "reference": "urn:uuid:e3cc753a-d186-4a6b-99ca-f8396d3d5b79"
      },
      "status": "completed",
      "subject": {
        "reference": "urn:uuid:4090ef7c-25e5-4c57-a147-490170f188f1"
      },
      "context": {
        "reference": "urn:uuid:66b133e0-ad2f-48ce-ac9b-4af25b7d76dc"
      },
      "authored": "2021-08-03T13:04:53+00:00",
      "item": [ {
        "linkId": "Tx223440",
        "text": "WHAT IS SAID TO BE THE MAIN REASON FOR THIS CONTACT?",
        "answer": [ {
          "valueString": "more"
        } ]
      } ]
    }
  }, {
    "fullUrl": "urn:uuid:e3cc753a-d186-4a6b-99ca-f8396d3d5b79",
    "resource": {
      "resourceType": "Questionnaire",
      "id": "e3cc753a-d186-4a6b-99ca-f8396d3d5b79",
      "identifier": [ {
        "value": "1766749"
      } ],
      "version": "2021-08-03T13:04:53.000Z",
      "status": "active",
      "experimental": false,
      "date": "2021-08-03T13:04:53+00:00",
      "publisher": "User ID: '922' User name: 'AndrewJ.Walford' User skill set: 'T4'",
      "lastReviewDate": "2021-08-03",
      "contact": [ {
        "telecom": [ {
          "system": "phone",
          "value": "07798501130"
        } ]
      } ],
      "subjectType": [ "Patient" ],
      "item": [ {
        "linkId": "1766749",
        "prefix": "5000",
        "text": "WHAT IS SAID TO BE THE MAIN REASON FOR THIS CONTACT?",
        "type": "choice",
        "required": true,
        "repeats": false,
        "option": [ {
          "valueString": "a probable allergic reaction now, Selected: false"
        }, {
          "valueString": "a probable heart attack, Selected: false"
        }, {
          "valueString": "chest or upper back pain, Selected: false"
        }, {
          "valueString": "a probable stroke or mini-stroke, Selected: false"
        }, {
          "valueString": "a probable fit or seizure within the last 12 hours, Selected: false"
        }, {
          "valueString": "a suicide attempt, Selected: false"
        }, {
          "valueString": "more, Selected: true"
        } ]
      } ]
    }
  }, {
    "fullUrl": "urn:uuid:3422ccad-1191-475d-996b-4af9c757ac9d",
    "resource": {
      "resourceType": "QuestionnaireResponse",
      "id": "3422ccad-1191-475d-996b-4af9c757ac9d",
      "identifier": {
        "value": "1766749"
      },
      "questionnaire": {
        "reference": "urn:uuid:5501ea80-15d5-4f8e-910b-5689305bb3cd"
      },
      "status": "completed",
      "subject": {
        "reference": "urn:uuid:4090ef7c-25e5-4c57-a147-490170f188f1"
      },
      "context": {
        "reference": "urn:uuid:66b133e0-ad2f-48ce-ac9b-4af25b7d76dc"
      },
      "authored": "2021-08-03T13:04:53+00:00",
      "item": [ {
        "linkId": "Tx220032",
        "text": "WHAT IS SAID TO BE THE MAIN REASON FOR THIS CONTACT?",
        "answer": [ {
          "valueString": "none of the above"
        } ]
      } ]
    }
  }, {
    "fullUrl": "urn:uuid:5501ea80-15d5-4f8e-910b-5689305bb3cd",
    "resource": {
      "resourceType": "Questionnaire",
      "id": "5501ea80-15d5-4f8e-910b-5689305bb3cd",
      "identifier": [ {
        "value": "1766749"
      } ],
      "version": "2021-08-03T13:04:53.000Z",
      "status": "active",
      "experimental": false,
      "date": "2021-08-03T13:04:53+00:00",
      "publisher": "User ID: '922' User name: 'AndrewJ.Walford' User skill set: 'T4'",
      "lastReviewDate": "2021-08-03",
      "contact": [ {
        "telecom": [ {
          "system": "phone",
          "value": "07798501130"
        } ]
      } ],
      "subjectType": [ "Patient" ],
      "item": [ {
        "linkId": "1766749",
        "prefix": "1900",
        "text": "WHAT IS SAID TO BE THE MAIN REASON FOR THIS CONTACT?",
        "type": "choice",
        "required": true,
        "repeats": false,
        "option": [ {
          "valueString": "new confusion now, Selected: false"
        }, {
          "valueString": "a diabetic hypo (low blood sugar) or a diabetic hyper (high blood sugar), Selected: false"
        }, {
          "valueString": "recovery from an ICD (implanted cardioverter defibrillator) shock, Selected: false"
        }, {
          "valueString": "none of the above, Selected: true"
        } ]
      } ]
    }
  }, {
    "fullUrl": "urn:uuid:0ccdb865-3e66-4f31-9bda-fe19b4d9b272",
    "resource": {
      "resourceType": "QuestionnaireResponse",
      "id": "0ccdb865-3e66-4f31-9bda-fe19b4d9b272",
      "identifier": {
        "value": "1766749"
      },
      "questionnaire": {
        "reference": "urn:uuid:0ab9b6da-da3c-478d-bbd7-ffcbe8b01829"
      },
      "status": "completed",
      "subject": {
        "reference": "urn:uuid:4090ef7c-25e5-4c57-a147-490170f188f1"
      },
      "context": {
        "reference": "urn:uuid:66b133e0-ad2f-48ce-ac9b-4af25b7d76dc"
      },
      "authored": "2021-08-03T13:04:53+00:00",
      "item": [ {
        "linkId": "Tx223142",
        "text": "Does the skin on the chest, back or abdomen feel a normal temperature?",
        "answer": [ {
          "valueString": "yes - normal, warm or hot"
        } ]
      } ]
    }
  }, {
    "fullUrl": "urn:uuid:0ab9b6da-da3c-478d-bbd7-ffcbe8b01829",
    "resource": {
      "resourceType": "Questionnaire",
      "id": "0ab9b6da-da3c-478d-bbd7-ffcbe8b01829",
      "identifier": [ {
        "value": "1766749"
      } ],
      "version": "2021-08-03T13:04:53.000Z",
      "status": "active",
      "experimental": false,
      "date": "2021-08-03T13:04:53+00:00",
      "publisher": "User ID: '922' User name: 'AndrewJ.Walford' User skill set: 'T4'",
      "lastReviewDate": "2021-08-03",
      "contact": [ {
        "telecom": [ {
          "system": "phone",
          "value": "07798501130"
        } ]
      } ],
      "subjectType": [ "Patient" ],
      "item": [ {
        "linkId": "1766749",
        "prefix": "4000",
        "text": "Does the skin on the chest, back or abdomen feel a normal temperature?",
        "type": "choice",
        "required": true,
        "repeats": false,
        "option": [ {
          "valueString": "yes - normal, warm or hot, Selected: true"
        }, {
          "valueString": "not sure, Selected: false"
        }, {
          "valueString": "no - cool OR cold, Selected: false"
        }, {
          "valueString": "not safe to touch, Selected: false"
        } ]
      } ]
    }
  }, {
    "fullUrl": "urn:uuid:c4103d74-8a42-4d76-8efb-863a3cc6a56a",
    "resource": {
      "resourceType": "QuestionnaireResponse",
      "id": "c4103d74-8a42-4d76-8efb-863a3cc6a56a",
      "identifier": {
        "value": "1766749"
      },
      "questionnaire": {
        "reference": "urn:uuid:6033636f-1fdf-4a39-b2dc-5dc13915a4f3"
      },
      "status": "completed",
      "subject": {
        "reference": "urn:uuid:4090ef7c-25e5-4c57-a147-490170f188f1"
      },
      "context": {
        "reference": "urn:uuid:66b133e0-ad2f-48ce-ac9b-4af25b7d76dc"
      },
      "authored": "2021-08-03T13:04:53+00:00",
      "item": [ {
        "linkId": "Tx221724",
        "text": "STRING:ShockAsked",
        "answer": [ {
          "valueString": "\"\"present\"\""
        } ]
      } ]
    }
  }, {
    "fullUrl": "urn:uuid:6033636f-1fdf-4a39-b2dc-5dc13915a4f3",
    "resource": {
      "resourceType": "Questionnaire",
      "id": "6033636f-1fdf-4a39-b2dc-5dc13915a4f3",
      "identifier": [ {
        "value": "1766749"
      } ],
      "version": "2021-08-03T13:04:53.000Z",
      "status": "active",
      "experimental": false,
      "date": "2021-08-03T13:04:53+00:00",
      "publisher": "User ID: '922' User name: 'AndrewJ.Walford' User skill set: 'T4'",
      "lastReviewDate": "2021-08-03",
      "contact": [ {
        "telecom": [ {
          "system": "phone",
          "value": "07798501130"
        } ]
      } ],
      "subjectType": [ "Patient" ],
      "item": [ {
        "linkId": "1766749",
        "prefix": "3300",
        "text": "STRING:ShockAsked",
        "type": "choice",
        "required": true,
        "repeats": false,
        "option": [ {
          "valueString": "\"\"present\"\", Selected: true"
        } ]
      } ]
    }
  }, {
    "fullUrl": "urn:uuid:92498f97-0697-4fc9-9ec3-093690d7b30d",
    "resource": {
      "resourceType": "QuestionnaireResponse",
      "id": "92498f97-0697-4fc9-9ec3-093690d7b30d",
      "identifier": {
        "value": "1766749"
      },
      "questionnaire": {
        "reference": "urn:uuid:4a212b15-89d9-430d-9fa0-6d5f5ab62d68"
      },
      "status": "completed",
      "subject": {
        "reference": "urn:uuid:4090ef7c-25e5-4c57-a147-490170f188f1"
      },
      "context": {
        "reference": "urn:uuid:66b133e0-ad2f-48ce-ac9b-4af25b7d76dc"
      },
      "authored": "2021-08-03T13:04:53+00:00"
    }
  }, {
    "fullUrl": "urn:uuid:4a212b15-89d9-430d-9fa0-6d5f5ab62d68",
    "resource": {
      "resourceType": "Questionnaire",
      "id": "4a212b15-89d9-430d-9fa0-6d5f5ab62d68",
      "identifier": [ {
        "value": "1766749"
      } ],
      "version": "2021-08-03T13:04:53.000Z",
      "status": "active",
      "experimental": false,
      "date": "2021-08-03T13:04:53+00:00",
      "publisher": "User ID: '922' User name: 'AndrewJ.Walford' User skill set: 'T4'",
      "lastReviewDate": "2021-08-03",
      "contact": [ {
        "telecom": [ {
          "system": "phone",
          "value": "07798501130"
        } ]
      } ],
      "subjectType": [ "Patient" ]
    }
  }, {
    "fullUrl": "urn:uuid:2d9aeebb-dfa7-41e0-bf5c-4048e1dfa558",
    "resource": {
      "resourceType": "QuestionnaireResponse",
      "id": "2d9aeebb-dfa7-41e0-bf5c-4048e1dfa558",
      "identifier": {
        "value": "1766749"
      },
      "questionnaire": {
        "reference": "urn:uuid:f7c4b6e8-26b6-41b1-b165-3e0e63408840"
      },
      "status": "completed",
      "subject": {
        "reference": "urn:uuid:4090ef7c-25e5-4c57-a147-490170f188f1"
      },
      "context": {
        "reference": "urn:uuid:66b133e0-ad2f-48ce-ac9b-4af25b7d76dc"
      },
      "authored": "2021-08-03T13:04:53+00:00"
    }
  }, {
    "fullUrl": "urn:uuid:f7c4b6e8-26b6-41b1-b165-3e0e63408840",
    "resource": {
      "resourceType": "Questionnaire",
      "id": "f7c4b6e8-26b6-41b1-b165-3e0e63408840",
      "identifier": [ {
        "value": "1766749"
      } ],
      "version": "2021-08-03T13:04:53.000Z",
      "status": "active",
      "experimental": false,
      "date": "2021-08-03T13:04:53+00:00",
      "publisher": "User ID: '922' User name: 'AndrewJ.Walford' User skill set: 'T4'",
      "lastReviewDate": "2021-08-03",
      "contact": [ {
        "telecom": [ {
          "system": "phone",
          "value": "07798501130"
        } ]
      } ],
      "subjectType": [ "Patient" ]
    }
  }, {
    "fullUrl": "urn:uuid:295c242a-4291-4d57-a5b7-2a084e61bb94",
    "resource": {
      "resourceType": "QuestionnaireResponse",
      "id": "295c242a-4291-4d57-a5b7-2a084e61bb94",
      "identifier": {
        "value": "1766749"
      },
      "questionnaire": {
        "reference": "urn:uuid:530cd981-9811-4404-8599-e735e6f263a8"
      },
      "status": "completed",
      "subject": {
        "reference": "urn:uuid:4090ef7c-25e5-4c57-a147-490170f188f1"
      },
      "context": {
        "reference": "urn:uuid:66b133e0-ad2f-48ce-ac9b-4af25b7d76dc"
      },
      "authored": "2021-08-03T13:04:53+00:00",
      "item": [ {
        "linkId": "Tx224190",
        "text": "Does the problem stop you from doing ALL of your normal activities?",
        "answer": [ {
          "valueString": "no - able to do most or all of their activities"
        } ]
      } ]
    }
  }, {
    "fullUrl": "urn:uuid:530cd981-9811-4404-8599-e735e6f263a8",
    "resource": {
      "resourceType": "Questionnaire",
      "id": "530cd981-9811-4404-8599-e735e6f263a8",
      "identifier": [ {
        "value": "1766749"
      } ],
      "version": "2021-08-03T13:04:53.000Z",
      "status": "active",
      "experimental": false,
      "date": "2021-08-03T13:04:53+00:00",
      "publisher": "User ID: '922' User name: 'AndrewJ.Walford' User skill set: 'T4'",
      "lastReviewDate": "2021-08-03",
      "contact": [ {
        "telecom": [ {
          "system": "phone",
          "value": "07798501130"
        } ]
      } ],
      "subjectType": [ "Patient" ],
      "item": [ {
        "linkId": "1766749",
        "prefix": "4900",
        "text": "Does the problem stop you from doing ALL of your normal activities?",
        "type": "choice",
        "required": true,
        "repeats": false,
        "option": [ {
          "valueString": "yes - unable to do all of their normal activities, Selected: false"
        }, {
          "valueString": "no - able to do some of their normal activities, Selected: false"
        }, {
          "valueString": "no - able to do most or all of their activities, Selected: true"
        } ]
      } ]
    }
  }, {
    "fullUrl": "urn:uuid:b06b8b26-6cc4-4a72-b9a7-4299fe7ba63d",
    "resource": {
      "resourceType": "QuestionnaireResponse",
      "id": "b06b8b26-6cc4-4a72-b9a7-4299fe7ba63d",
      "identifier": {
        "value": "1766749"
      },
      "questionnaire": {
        "reference": "urn:uuid:3e170a86-f200-4688-9742-821bc8910044"
      },
      "status": "completed",
      "subject": {
        "reference": "urn:uuid:4090ef7c-25e5-4c57-a147-490170f188f1"
      },
      "context": {
        "reference": "urn:uuid:66b133e0-ad2f-48ce-ac9b-4af25b7d76dc"
      },
      "authored": "2021-08-03T13:04:53+00:00",
      "item": [ {
        "linkId": "Tx220244",
        "text": "Have you got any of the following new symptoms?",
        "answer": [ {
          "valueString": "no"
        } ]
      } ]
    }
  }, {
    "fullUrl": "urn:uuid:3e170a86-f200-4688-9742-821bc8910044",
    "resource": {
      "resourceType": "Questionnaire",
      "id": "3e170a86-f200-4688-9742-821bc8910044",
      "identifier": [ {
        "value": "1766749"
      } ],
      "version": "2021-08-03T13:04:53.000Z",
      "status": "active",
      "experimental": false,
      "date": "2021-08-03T13:04:53+00:00",
      "publisher": "User ID: '922' User name: 'AndrewJ.Walford' User skill set: 'T4'",
      "lastReviewDate": "2021-08-03",
      "contact": [ {
        "telecom": [ {
          "system": "phone",
          "value": "07798501130"
        } ]
      } ],
      "subjectType": [ "Patient" ],
      "item": [ {
        "linkId": "1766749",
        "prefix": "17",
        "text": "Have you got any of the following new symptoms?",
        "type": "choice",
        "required": true,
        "repeats": false,
        "option": [ {
          "valueString": "unable to control the bowels, Selected: false"
        }, {
          "valueString": "unable to move one or both legs, Selected: false"
        }, {
          "valueString": "numbness or pins and needles in both legs or around the back passage, Selected: false"
        }, {
          "valueString": "not sure, Selected: false"
        }, {
          "valueString": "no, Selected: true"
        } ]
      } ]
    }
  }, {
    "fullUrl": "urn:uuid:79d8c705-d22a-41d6-8e43-68662a049f36",
    "resource": {
      "resourceType": "QuestionnaireResponse",
      "id": "79d8c705-d22a-41d6-8e43-68662a049f36",
      "identifier": {
        "value": "1766749"
      },
      "questionnaire": {
        "reference": "urn:uuid:ae0a784f-b41b-448a-bed7-534d31731f9c"
      },
      "status": "completed",
      "subject": {
        "reference": "urn:uuid:4090ef7c-25e5-4c57-a147-490170f188f1"
      },
      "context": {
        "reference": "urn:uuid:66b133e0-ad2f-48ce-ac9b-4af25b7d76dc"
      },
      "authored": "2021-08-03T13:04:53+00:00",
      "item": [ {
        "linkId": "Tx221119",
        "text": "FunctionallyImpaired",
        "answer": [ {
          "valueString": "*"
        } ]
      } ]
    }
  }, {
    "fullUrl": "urn:uuid:ae0a784f-b41b-448a-bed7-534d31731f9c",
    "resource": {
      "resourceType": "Questionnaire",
      "id": "ae0a784f-b41b-448a-bed7-534d31731f9c",
      "identifier": [ {
        "value": "1766749"
      } ],
      "version": "2021-08-03T13:04:53.000Z",
      "status": "active",
      "experimental": false,
      "date": "2021-08-03T13:04:53+00:00",
      "publisher": "User ID: '922' User name: 'AndrewJ.Walford' User skill set: 'T4'",
      "lastReviewDate": "2021-08-03",
      "contact": [ {
        "telecom": [ {
          "system": "phone",
          "value": "07798501130"
        } ]
      } ],
      "subjectType": [ "Patient" ],
      "item": [ {
        "linkId": "1766749",
        "prefix": "5400",
        "text": "FunctionallyImpaired",
        "type": "choice",
        "required": true,
        "repeats": false,
        "option": [ {
          "valueString": "==\"\"present\"\", Selected: false"
        }, {
          "valueString": "*, Selected: true"
        } ]
      } ]
    }
  }, {
    "fullUrl": "urn:uuid:1b108e31-2ba2-4359-85bc-851ced34b87f",
    "resource": {
      "resourceType": "QuestionnaireResponse",
      "id": "1b108e31-2ba2-4359-85bc-851ced34b87f",
      "identifier": {
        "value": "1766749"
      },
      "questionnaire": {
        "reference": "urn:uuid:82d9902e-2228-4853-9f3f-690e66ec4f54"
      },
      "status": "completed",
      "subject": {
        "reference": "urn:uuid:4090ef7c-25e5-4c57-a147-490170f188f1"
      },
      "context": {
        "reference": "urn:uuid:66b133e0-ad2f-48ce-ac9b-4af25b7d76dc"
      },
      "authored": "2021-08-03T13:04:53+00:00",
      "item": [ {
        "linkId": "Tx221639",
        "text": "Have you been unable to pass urine for the last 12 hours, except for a few drops?",
        "answer": [ {
          "valueString": "no (ABLE TO pass urine)"
        } ]
      } ]
    }
  }, {
    "fullUrl": "urn:uuid:82d9902e-2228-4853-9f3f-690e66ec4f54",
    "resource": {
      "resourceType": "Questionnaire",
      "id": "82d9902e-2228-4853-9f3f-690e66ec4f54",
      "identifier": [ {
        "value": "1766749"
      } ],
      "version": "2021-08-03T13:04:53.000Z",
      "status": "active",
      "experimental": false,
      "date": "2021-08-03T13:04:53+00:00",
      "publisher": "User ID: '922' User name: 'AndrewJ.Walford' User skill set: 'T4'",
      "lastReviewDate": "2021-08-03",
      "contact": [ {
        "telecom": [ {
          "system": "phone",
          "value": "07798501130"
        } ]
      } ],
      "subjectType": [ "Patient" ],
      "item": [ {
        "linkId": "1766749",
        "prefix": "6100",
        "text": "Have you been unable to pass urine for the last 12 hours, except for a few drops?",
        "type": "choice",
        "required": true,
        "repeats": false,
        "option": [ {
          "valueString": "yes (UNABLE TO pass urine), Selected: false"
        }, {
          "valueString": "not sure, Selected: false"
        }, {
          "valueString": "no (ABLE TO pass urine), Selected: true"
        } ]
      } ]
    }
  }, {
    "fullUrl": "urn:uuid:4ce2730b-7591-4993-9437-b66d1723efe8",
    "resource": {
      "resourceType": "QuestionnaireResponse",
      "id": "4ce2730b-7591-4993-9437-b66d1723efe8",
      "identifier": {
        "value": "1766749"
      },
      "questionnaire": {
        "reference": "urn:uuid:10bbf458-979e-4090-bbd3-68bab139cf11"
      },
      "status": "completed",
      "subject": {
        "reference": "urn:uuid:4090ef7c-25e5-4c57-a147-490170f188f1"
      },
      "context": {
        "reference": "urn:uuid:66b133e0-ad2f-48ce-ac9b-4af25b7d76dc"
      },
      "authored": "2021-08-03T13:04:53+00:00",
      "item": [ {
        "linkId": "Tx221119",
        "text": "FunctionallyImpaired",
        "answer": [ {
          "valueString": "*"
        } ]
      } ]
    }
  }, {
    "fullUrl": "urn:uuid:10bbf458-979e-4090-bbd3-68bab139cf11",
    "resource": {
      "resourceType": "Questionnaire",
      "id": "10bbf458-979e-4090-bbd3-68bab139cf11",
      "identifier": [ {
        "value": "1766749"
      } ],
      "version": "2021-08-03T13:04:53.000Z",
      "status": "active",
      "experimental": false,
      "date": "2021-08-03T13:04:53+00:00",
      "publisher": "User ID: '922' User name: 'AndrewJ.Walford' User skill set: 'T4'",
      "lastReviewDate": "2021-08-03",
      "contact": [ {
        "telecom": [ {
          "system": "phone",
          "value": "07798501130"
        } ]
      } ],
      "subjectType": [ "Patient" ],
      "item": [ {
        "linkId": "1766749",
        "prefix": "7200",
        "text": "FunctionallyImpaired",
        "type": "choice",
        "required": true,
        "repeats": false,
        "option": [ {
          "valueString": "==\"\"present\"\", Selected: false"
        }, {
          "valueString": "*, Selected: true"
        } ]
      } ]
    }
  }, {
    "fullUrl": "urn:uuid:148612d2-69ec-4969-946d-c14aa747efd6",
    "resource": {
      "resourceType": "QuestionnaireResponse",
      "id": "148612d2-69ec-4969-946d-c14aa747efd6",
      "identifier": {
        "value": "1766749"
      },
      "questionnaire": {
        "reference": "urn:uuid:faa4fdee-caf7-4213-a9f1-8be6b36edf41"
      },
      "status": "completed",
      "subject": {
        "reference": "urn:uuid:4090ef7c-25e5-4c57-a147-490170f188f1"
      },
      "context": {
        "reference": "urn:uuid:66b133e0-ad2f-48ce-ac9b-4af25b7d76dc"
      },
      "authored": "2021-08-03T13:04:53+00:00",
      "item": [ {
        "linkId": "Tx223485",
        "text": "ConfusionDeclared",
        "answer": [ {
          "valueString": "*"
        } ]
      } ]
    }
  }, {
    "fullUrl": "urn:uuid:faa4fdee-caf7-4213-a9f1-8be6b36edf41",
    "resource": {
      "resourceType": "Questionnaire",
      "id": "faa4fdee-caf7-4213-a9f1-8be6b36edf41",
      "identifier": [ {
        "value": "1766749"
      } ],
      "version": "2021-08-03T13:04:53.000Z",
      "status": "active",
      "experimental": false,
      "date": "2021-08-03T13:04:53+00:00",
      "publisher": "User ID: '922' User name: 'AndrewJ.Walford' User skill set: 'T4'",
      "lastReviewDate": "2021-08-03",
      "contact": [ {
        "telecom": [ {
          "system": "phone",
          "value": "07798501130"
        } ]
      } ],
      "subjectType": [ "Patient" ],
      "item": [ {
        "linkId": "1766749",
        "prefix": "2900",
        "text": "ConfusionDeclared",
        "type": "choice",
        "required": true,
        "repeats": false,
        "option": [ {
          "valueString": "==\"\"present\"\", Selected: false"
        }, {
          "valueString": "*, Selected: true"
        } ]
      } ]
    }
  }, {
    "fullUrl": "urn:uuid:73d50c49-6cfb-4663-82bb-3a5ec3b5dacd",
    "resource": {
      "resourceType": "QuestionnaireResponse",
      "id": "73d50c49-6cfb-4663-82bb-3a5ec3b5dacd",
      "identifier": {
        "value": "1766749"
      },
      "questionnaire": {
        "reference": "urn:uuid:93566c95-1471-49cc-a90f-27f4a092484b"
      },
      "status": "completed",
      "subject": {
        "reference": "urn:uuid:4090ef7c-25e5-4c57-a147-490170f188f1"
      },
      "context": {
        "reference": "urn:uuid:66b133e0-ad2f-48ce-ac9b-4af25b7d76dc"
      },
      "authored": "2021-08-03T13:04:53+00:00",
      "item": [ {
        "linkId": "Tx1213",
        "text": "Have you suddenly become confused OR more confused than usual?",
        "answer": [ {
          "valueString": "no"
        } ]
      } ]
    }
  }, {
    "fullUrl": "urn:uuid:93566c95-1471-49cc-a90f-27f4a092484b",
    "resource": {
      "resourceType": "Questionnaire",
      "id": "93566c95-1471-49cc-a90f-27f4a092484b",
      "identifier": [ {
        "value": "1766749"
      } ],
      "version": "2021-08-03T13:04:53.000Z",
      "status": "active",
      "experimental": false,
      "date": "2021-08-03T13:04:53+00:00",
      "publisher": "User ID: '922' User name: 'AndrewJ.Walford' User skill set: 'T4'",
      "lastReviewDate": "2021-08-03",
      "contact": [ {
        "telecom": [ {
          "system": "phone",
          "value": "07798501130"
        } ]
      } ],
      "subjectType": [ "Patient" ],
      "item": [ {
        "linkId": "1766749",
        "prefix": "7700",
        "text": "Have you suddenly become confused OR more confused than usual?",
        "type": "choice",
        "required": true,
        "repeats": false,
        "option": [ {
          "valueString": "yes, Selected: false"
        }, {
          "valueString": "not sure, Selected: false"
        }, {
          "valueString": "no, Selected: true"
        } ]
      } ]
    }
  }, {
    "fullUrl": "urn:uuid:30884276-7bf8-4981-982a-66fac6ad37be",
    "resource": {
      "resourceType": "QuestionnaireResponse",
      "id": "30884276-7bf8-4981-982a-66fac6ad37be",
      "identifier": {
        "value": "1766749"
      },
      "questionnaire": {
        "reference": "urn:uuid:b9c478e3-56ac-4fab-ab12-f47f79cf4c07"
      },
      "status": "completed",
      "subject": {
        "reference": "urn:uuid:4090ef7c-25e5-4c57-a147-490170f188f1"
      },
      "context": {
        "reference": "urn:uuid:66b133e0-ad2f-48ce-ac9b-4af25b7d76dc"
      },
      "authored": "2021-08-03T13:04:53+00:00",
      "item": [ {
        "linkId": "Tx220164",
        "text": "Are you breathing faster or harder when doing nothing at all?",
        "answer": [ {
          "valueString": "no"
        } ]
      } ]
    }
  }, {
    "fullUrl": "urn:uuid:b9c478e3-56ac-4fab-ab12-f47f79cf4c07",
    "resource": {
      "resourceType": "Questionnaire",
      "id": "b9c478e3-56ac-4fab-ab12-f47f79cf4c07",
      "identifier": [ {
        "value": "1766749"
      } ],
      "version": "2021-08-03T13:04:53.000Z",
      "status": "active",
      "experimental": false,
      "date": "2021-08-03T13:04:53+00:00",
      "publisher": "User ID: '922' User name: 'AndrewJ.Walford' User skill set: 'T4'",
      "lastReviewDate": "2021-08-03",
      "contact": [ {
        "telecom": [ {
          "system": "phone",
          "value": "07798501130"
        } ]
      } ],
      "subjectType": [ "Patient" ],
      "item": [ {
        "linkId": "1766749",
        "prefix": "3400",
        "text": "Are you breathing faster or harder when doing nothing at all?",
        "type": "choice",
        "required": true,
        "repeats": false,
        "option": [ {
          "valueString": "yes, Selected: false"
        }, {
          "valueString": "not sure, Selected: false"
        }, {
          "valueString": "no, Selected: true"
        } ]
      } ]
    }
  }, {
    "fullUrl": "urn:uuid:db78c758-c64d-4caa-b8cc-a39bfa502f4e",
    "resource": {
      "resourceType": "QuestionnaireResponse",
      "id": "db78c758-c64d-4caa-b8cc-a39bfa502f4e",
      "identifier": {
        "value": "1766749"
      },
      "questionnaire": {
        "reference": "urn:uuid:a257a1d6-0749-48e7-9e93-d3bbd270046b"
      },
      "status": "completed",
      "subject": {
        "reference": "urn:uuid:4090ef7c-25e5-4c57-a147-490170f188f1"
      },
      "context": {
        "reference": "urn:uuid:66b133e0-ad2f-48ce-ac9b-4af25b7d76dc"
      },
      "authored": "2021-08-03T13:04:53+00:00",
      "item": [ {
        "linkId": "Tx224506",
        "text": "UnableToPassUrine",
        "answer": [ {
          "valueString": "*"
        } ]
      } ]
    }
  }, {
    "fullUrl": "urn:uuid:a257a1d6-0749-48e7-9e93-d3bbd270046b",
    "resource": {
      "resourceType": "Questionnaire",
      "id": "a257a1d6-0749-48e7-9e93-d3bbd270046b",
      "identifier": [ {
        "value": "1766749"
      } ],
      "version": "2021-08-03T13:04:53.000Z",
      "status": "active",
      "experimental": false,
      "date": "2021-08-03T13:04:53+00:00",
      "publisher": "User ID: '922' User name: 'AndrewJ.Walford' User skill set: 'T4'",
      "lastReviewDate": "2021-08-03",
      "contact": [ {
        "telecom": [ {
          "system": "phone",
          "value": "07798501130"
        } ]
      } ],
      "subjectType": [ "Patient" ],
      "item": [ {
        "linkId": "1766749",
        "prefix": "8300",
        "text": "UnableToPassUrine",
        "type": "choice",
        "required": true,
        "repeats": false,
        "option": [ {
          "valueString": "==\"\"present\"\", Selected: false"
        }, {
          "valueString": "*, Selected: true"
        } ]
      } ]
    }
  }, {
    "fullUrl": "urn:uuid:04702abb-b0cb-4cc3-bcce-713e9e2711f1",
    "resource": {
      "resourceType": "QuestionnaireResponse",
      "id": "04702abb-b0cb-4cc3-bcce-713e9e2711f1",
      "identifier": {
        "value": "1766749"
      },
      "questionnaire": {
        "reference": "urn:uuid:fc0f4240-400b-4b24-a42c-a53cd7b4f22b"
      },
      "status": "completed",
      "subject": {
        "reference": "urn:uuid:4090ef7c-25e5-4c57-a147-490170f188f1"
      },
      "context": {
        "reference": "urn:uuid:66b133e0-ad2f-48ce-ac9b-4af25b7d76dc"
      },
      "authored": "2021-08-03T13:04:53+00:00",
      "item": [ {
        "linkId": "Tx222078",
        "text": "Have you got pain in the spine?",
        "answer": [ {
          "valueString": "no"
        } ]
      } ]
    }
  }, {
    "fullUrl": "urn:uuid:fc0f4240-400b-4b24-a42c-a53cd7b4f22b",
    "resource": {
      "resourceType": "Questionnaire",
      "id": "fc0f4240-400b-4b24-a42c-a53cd7b4f22b",
      "identifier": [ {
        "value": "1766749"
      } ],
      "version": "2021-08-03T13:04:53.000Z",
      "status": "active",
      "experimental": false,
      "date": "2021-08-03T13:04:53+00:00",
      "publisher": "User ID: '922' User name: 'AndrewJ.Walford' User skill set: 'T4'",
      "lastReviewDate": "2021-08-03",
      "contact": [ {
        "telecom": [ {
          "system": "phone",
          "value": "07798501130"
        } ]
      } ],
      "subjectType": [ "Patient" ],
      "item": [ {
        "linkId": "1766749",
        "prefix": "400",
        "text": "Have you got pain in the spine?",
        "type": "choice",
        "required": true,
        "repeats": false,
        "option": [ {
          "valueString": "yes, Selected: false"
        }, {
          "valueString": "not sure, Selected: false"
        }, {
          "valueString": "no, Selected: true"
        } ]
      } ]
    }
  }, {
    "fullUrl": "urn:uuid:1633d05f-0ead-4757-9db2-3d90f0fb32ec",
    "resource": {
      "resourceType": "QuestionnaireResponse",
      "id": "1633d05f-0ead-4757-9db2-3d90f0fb32ec",
      "identifier": {
        "value": "1766749"
      },
      "questionnaire": {
        "reference": "urn:uuid:aaed60c5-a63a-4df0-9304-99632635bfcf"
      },
      "status": "completed",
      "subject": {
        "reference": "urn:uuid:4090ef7c-25e5-4c57-a147-490170f188f1"
      },
      "context": {
        "reference": "urn:uuid:66b133e0-ad2f-48ce-ac9b-4af25b7d76dc"
      },
      "authored": "2021-08-03T13:04:53+00:00",
      "item": [ {
        "linkId": "Tx220168",
        "text": "Have you got pain that is getting worse?",
        "answer": [ {
          "valueString": "no"
        } ]
      } ]
    }
  }, {
    "fullUrl": "urn:uuid:aaed60c5-a63a-4df0-9304-99632635bfcf",
    "resource": {
      "resourceType": "Questionnaire",
      "id": "aaed60c5-a63a-4df0-9304-99632635bfcf",
      "identifier": [ {
        "value": "1766749"
      } ],
      "version": "2021-08-03T13:04:53.000Z",
      "status": "active",
      "experimental": false,
      "date": "2021-08-03T13:04:53+00:00",
      "publisher": "User ID: '922' User name: 'AndrewJ.Walford' User skill set: 'T4'",
      "lastReviewDate": "2021-08-03",
      "contact": [ {
        "telecom": [ {
          "system": "phone",
          "value": "07798501130"
        } ]
      } ],
      "subjectType": [ "Patient" ],
      "item": [ {
        "linkId": "1766749",
        "prefix": "300",
        "text": "Have you got pain that is getting worse?",
        "type": "choice",
        "required": true,
        "repeats": false,
        "option": [ {
          "valueString": "yes, Selected: false"
        }, {
          "valueString": "not sure, Selected: false"
        }, {
          "valueString": "no, Selected: true"
        } ]
      } ]
    }
  }, {
    "fullUrl": "urn:uuid:6ab9751e-d7ef-432d-b9d0-cdf684e5d79d",
    "resource": {
      "resourceType": "QuestionnaireResponse",
      "id": "6ab9751e-d7ef-432d-b9d0-cdf684e5d79d",
      "identifier": {
        "value": "1766749"
      },
      "questionnaire": {
        "reference": "urn:uuid:e307d86b-324d-489e-b413-88883322097e"
      },
      "status": "completed",
      "subject": {
        "reference": "urn:uuid:4090ef7c-25e5-4c57-a147-490170f188f1"
      },
      "context": {
        "reference": "urn:uuid:66b133e0-ad2f-48ce-ac9b-4af25b7d76dc"
      },
      "authored": "2021-08-03T13:04:53+00:00",
      "item": [ {
        "linkId": "Tx1122",
        "text": "Have you felt hot or feverish at any time in the last 12 hours?",
        "answer": [ {
          "valueString": "no"
        } ]
      } ]
    }
  }, {
    "fullUrl": "urn:uuid:e307d86b-324d-489e-b413-88883322097e",
    "resource": {
      "resourceType": "Questionnaire",
      "id": "e307d86b-324d-489e-b413-88883322097e",
      "identifier": [ {
        "value": "1766749"
      } ],
      "version": "2021-08-03T13:04:53.000Z",
      "status": "active",
      "experimental": false,
      "date": "2021-08-03T13:04:53+00:00",
      "publisher": "User ID: '922' User name: 'AndrewJ.Walford' User skill set: 'T4'",
      "lastReviewDate": "2021-08-03",
      "contact": [ {
        "telecom": [ {
          "system": "phone",
          "value": "07798501130"
        } ]
      } ],
      "subjectType": [ "Patient" ],
      "item": [ {
        "linkId": "1766749",
        "prefix": "500",
        "text": "Have you felt hot or feverish at any time in the last 12 hours?",
        "type": "choice",
        "required": true,
        "repeats": false,
        "option": [ {
          "valueString": "yes - temperature not taken, Selected: false"
        }, {
          "valueString": "yes - temperature taken (specify), Selected: false"
        }, {
          "valueString": "not sure, Selected: false"
        }, {
          "valueString": "no, Selected: true"
        } ]
      } ]
    }
  }, {
    "fullUrl": "urn:uuid:9148731e-027c-44c9-bce8-34fa4b32d302",
    "resource": {
      "resourceType": "QuestionnaireResponse",
      "id": "9148731e-027c-44c9-bce8-34fa4b32d302",
      "identifier": {
        "value": "1766749"
      },
      "questionnaire": {
        "reference": "urn:uuid:3e386630-8200-47e3-8639-a7b40cb69cc3"
      },
      "status": "completed",
      "subject": {
        "reference": "urn:uuid:4090ef7c-25e5-4c57-a147-490170f188f1"
      },
      "context": {
        "reference": "urn:uuid:66b133e0-ad2f-48ce-ac9b-4af25b7d76dc"
      },
      "authored": "2021-08-03T13:04:53+00:00",
      "item": [ {
        "linkId": "Tx1233",
        "text": "Have you had a back injury IN THE LAST 4 WEEKS?",
        "answer": [ {
          "valueString": "no"
        } ]
      } ]
    }
  }, {
    "fullUrl": "urn:uuid:3e386630-8200-47e3-8639-a7b40cb69cc3",
    "resource": {
      "resourceType": "Questionnaire",
      "id": "3e386630-8200-47e3-8639-a7b40cb69cc3",
      "identifier": [ {
        "value": "1766749"
      } ],
      "version": "2021-08-03T13:04:53.000Z",
      "status": "active",
      "experimental": false,
      "date": "2021-08-03T13:04:53+00:00",
      "publisher": "User ID: '922' User name: 'AndrewJ.Walford' User skill set: 'T4'",
      "lastReviewDate": "2021-08-03",
      "contact": [ {
        "telecom": [ {
          "system": "phone",
          "value": "07798501130"
        } ]
      } ],
      "subjectType": [ "Patient" ],
      "item": [ {
        "linkId": "1766749",
        "prefix": "900",
        "text": "Have you had a back injury IN THE LAST 4 WEEKS?",
        "type": "choice",
        "required": true,
        "repeats": false,
        "option": [ {
          "valueString": "yes, Selected: false"
        }, {
          "valueString": "not sure, Selected: false"
        }, {
          "valueString": "no, Selected: true"
        } ]
      } ]
    }
  }, {
    "fullUrl": "urn:uuid:d25b6b28-fb50-4b5a-b521-f2bb52be11ba",
    "resource": {
      "resourceType": "QuestionnaireResponse",
      "id": "d25b6b28-fb50-4b5a-b521-f2bb52be11ba",
      "identifier": {
        "value": "1766749"
      },
      "questionnaire": {
        "reference": "urn:uuid:2c5e52a6-696e-44b7-9752-0515f2360ef1"
      },
      "status": "completed",
      "subject": {
        "reference": "urn:uuid:4090ef7c-25e5-4c57-a147-490170f188f1"
      },
      "context": {
        "reference": "urn:uuid:66b133e0-ad2f-48ce-ac9b-4af25b7d76dc"
      },
      "authored": "2021-08-03T13:04:53+00:00",
      "item": [ {
        "linkId": "Tx2947",
        "text": "Have you had any change of medication IN THE LAST 2 WEEKS?",
        "answer": [ {
          "valueString": "no"
        } ]
      } ]
    }
  }, {
    "fullUrl": "urn:uuid:2c5e52a6-696e-44b7-9752-0515f2360ef1",
    "resource": {
      "resourceType": "Questionnaire",
      "id": "2c5e52a6-696e-44b7-9752-0515f2360ef1",
      "identifier": [ {
        "value": "1766749"
      } ],
      "version": "2021-08-03T13:04:53.000Z",
      "status": "active",
      "experimental": false,
      "date": "2021-08-03T13:04:53+00:00",
      "publisher": "User ID: '922' User name: 'AndrewJ.Walford' User skill set: 'T4'",
      "lastReviewDate": "2021-08-03",
      "contact": [ {
        "telecom": [ {
          "system": "phone",
          "value": "07798501130"
        } ]
      } ],
      "subjectType": [ "Patient" ],
      "item": [ {
        "linkId": "1766749",
        "prefix": "1000",
        "text": "Have you had any change of medication IN THE LAST 2 WEEKS?",
        "type": "choice",
        "required": true,
        "repeats": false,
        "option": [ {
          "valueString": "started new medication, Selected: false"
        }, {
          "valueString": "changed the dose of medication, Selected: false"
        }, {
          "valueString": "stopped medication, Selected: false"
        }, {
          "valueString": "not sure, Selected: false"
        }, {
          "valueString": "no, Selected: true"
        } ]
      } ]
    }
  }, {
    "fullUrl": "urn:uuid:f44a7feb-2d99-4a93-a7b2-c23109d4ab1b",
    "resource": {
      "resourceType": "QuestionnaireResponse",
      "id": "f44a7feb-2d99-4a93-a7b2-c23109d4ab1b",
      "identifier": {
        "value": "1766749"
      },
      "questionnaire": {
        "reference": "urn:uuid:a1b91b98-3826-4b86-8ce0-f7a2189ad66a"
      },
      "status": "completed",
      "subject": {
        "reference": "urn:uuid:4090ef7c-25e5-4c57-a147-490170f188f1"
      },
      "context": {
        "reference": "urn:uuid:66b133e0-ad2f-48ce-ac9b-4af25b7d76dc"
      },
      "authored": "2021-08-03T13:04:53+00:00",
      "item": [ {
        "linkId": "Tx221449",
        "text": "STRING:SDPCFullPrimaryCareassessmentandprescribingcapability",
        "answer": [ {
          "valueString": "\"\"PC full Primary Care assessment and prescribing capability\"\""
        } ]
      } ]
    }
  }, {
    "fullUrl": "urn:uuid:a1b91b98-3826-4b86-8ce0-f7a2189ad66a",
    "resource": {
      "resourceType": "Questionnaire",
      "id": "a1b91b98-3826-4b86-8ce0-f7a2189ad66a",
      "identifier": [ {
        "value": "1766749"
      } ],
      "version": "2021-08-03T13:04:53.000Z",
      "status": "active",
      "experimental": false,
      "date": "2021-08-03T13:04:53+00:00",
      "publisher": "User ID: '922' User name: 'AndrewJ.Walford' User skill set: 'T4'",
      "lastReviewDate": "2021-08-03",
      "contact": [ {
        "telecom": [ {
          "system": "phone",
          "value": "07798501130"
        } ]
      } ],
      "subjectType": [ "Patient" ],
      "item": [ {
        "linkId": "1766749",
        "prefix": "1200",
        "text": "STRING:SDPCFullPrimaryCareassessmentandprescribingcapability",
        "type": "choice",
        "required": true,
        "repeats": false,
        "option": [ {
          "valueString": "\"\"PC full Primary Care assessment and prescribing capability\"\", Selected: true"
        } ]
      } ]
    }
  }, {
    "fullUrl": "urn:uuid:5be9522c-0ada-4efc-8913-046e91dbf9f8",
    "resource": {
      "resourceType": "QuestionnaireResponse",
      "id": "5be9522c-0ada-4efc-8913-046e91dbf9f8",
      "identifier": {
        "value": "1766749"
      },
      "questionnaire": {
        "reference": "urn:uuid:ef2ed0dc-f75d-44a3-bc08-c4976727c890"
      },
      "status": "completed",
      "subject": {
        "reference": "urn:uuid:4090ef7c-25e5-4c57-a147-490170f188f1"
      },
      "context": {
        "reference": "urn:uuid:66b133e0-ad2f-48ce-ac9b-4af25b7d76dc"
      },
      "authored": "2021-08-03T13:04:53+00:00"
    }
  }, {
    "fullUrl": "urn:uuid:ef2ed0dc-f75d-44a3-bc08-c4976727c890",
    "resource": {
      "resourceType": "Questionnaire",
      "id": "ef2ed0dc-f75d-44a3-bc08-c4976727c890",
      "identifier": [ {
        "value": "1766749"
      } ],
      "version": "2021-08-03T13:04:53.000Z",
      "status": "active",
      "experimental": false,
      "date": "2021-08-03T13:04:53+00:00",
      "publisher": "User ID: '922' User name: 'AndrewJ.Walford' User skill set: 'T4'",
      "lastReviewDate": "2021-08-03",
      "contact": [ {
        "telecom": [ {
          "system": "phone",
          "value": "07798501130"
        } ]
      } ],
      "subjectType": [ "Patient" ]
    }
  }, {
    "fullUrl": "urn:uuid:3a0988db-ef72-44cb-b142-b137242ffbc9",
    "resource": {
      "resourceType": "QuestionnaireResponse",
      "id": "3a0988db-ef72-44cb-b142-b137242ffbc9",
      "identifier": {
        "value": "1766749"
      },
      "questionnaire": {
        "reference": "urn:uuid:07c0f5ae-4f88-4a8f-bed4-a87b90fdea63"
      },
      "status": "completed",
      "subject": {
        "reference": "urn:uuid:4090ef7c-25e5-4c57-a147-490170f188f1"
      },
      "context": {
        "reference": "urn:uuid:66b133e0-ad2f-48ce-ac9b-4af25b7d76dc"
      },
      "authored": "2021-08-03T13:04:53+00:00",
      "item": [ {
        "linkId": "N/A"
      } ]
    }
  }, {
    "fullUrl": "urn:uuid:07c0f5ae-4f88-4a8f-bed4-a87b90fdea63",
    "resource": {
      "resourceType": "Questionnaire",
      "id": "07c0f5ae-4f88-4a8f-bed4-a87b90fdea63",
      "identifier": [ {
        "value": "1766749"
      } ],
      "version": "2021-08-03T13:04:53.000Z",
      "status": "active",
      "experimental": false,
      "date": "2021-08-03T13:04:53+00:00",
      "publisher": "User ID: '922' User name: 'AndrewJ.Walford' User skill set: 'T4'",
      "lastReviewDate": "2021-08-03",
      "contact": [ {
        "telecom": [ {
          "system": "phone",
          "value": "07798501130"
        } ]
      } ],
      "subjectType": [ "Patient" ],
      "item": [ {
        "linkId": "1766749",
        "type": "choice",
        "required": true,
        "repeats": false,
        "option": [ {
          "valueString": ", Selected: false"
        } ]
      } ]
    }
  }, {
    "fullUrl": "urn:uuid:eba36039-24a6-4a10-add4-d1e7749b053d",
    "resource": {
      "resourceType": "QuestionnaireResponse",
      "id": "eba36039-24a6-4a10-add4-d1e7749b053d",
      "identifier": {
        "value": "1766749"
      },
      "questionnaire": {
        "reference": "urn:uuid:0aa6da7a-6845-476e-87ed-5d05de6b1d2e"
      },
      "status": "completed",
      "subject": {
        "reference": "urn:uuid:4090ef7c-25e5-4c57-a147-490170f188f1"
      },
      "context": {
        "reference": "urn:uuid:66b133e0-ad2f-48ce-ac9b-4af25b7d76dc"
      },
      "authored": "2021-08-03T13:04:53+00:00"
    }
  }, {
    "fullUrl": "urn:uuid:0aa6da7a-6845-476e-87ed-5d05de6b1d2e",
    "resource": {
      "resourceType": "Questionnaire",
      "id": "0aa6da7a-6845-476e-87ed-5d05de6b1d2e",
      "identifier": [ {
        "value": "1766749"
      } ],
      "version": "2021-08-03T13:04:53.000Z",
      "status": "active",
      "experimental": false,
      "date": "2021-08-03T13:04:53+00:00",
      "publisher": "User ID: '922' User name: 'AndrewJ.Walford' User skill set: 'T4'",
      "lastReviewDate": "2021-08-03",
      "contact": [ {
        "telecom": [ {
          "system": "phone",
          "value": "07798501130"
        } ]
      } ],
      "subjectType": [ "Patient" ]
    }
  }, {
    "fullUrl": "urn:uuid:ddfef814-2377-41b1-9345-0b9636719870",
    "resource": {
      "resourceType": "Observation",
      "id": "ddfef814-2377-41b1-9345-0b9636719870",
      "status": "final",
      "code": {
        "coding": [ {
          "system": "http://snomed.info/sct",
          "code": "33962009",
          "display": "Presenting complaint"
        } ]
      },
      "subject": {
        "reference": "urn:uuid:4090ef7c-25e5-4c57-a147-490170f188f1"
      },
      "context": {
        "reference": "urn:uuid:66b133e0-ad2f-48ce-ac9b-4af25b7d76dc"
      }
    }
  }, {
    "fullUrl": "urn:uuid:71884a73-88ec-426b-a872-572c1da1c098",
    "resource": {
      "resourceType": "PractitionerRole",
      "id": "71884a73-88ec-426b-a872-572c1da1c098",
      "practitioner": {
        "reference": "urn:uuid:bbd518d7-89bd-451b-b9ea-90e4a745826c"
      },
      "organization": {
        "reference": "urn:uuid:0e4dd679-229b-40a5-aedc-7dc0da84226c"
      },
      "code": [ {
        "coding": [ {
          "system": "2.16.840.1.113883.2.1.3.2.4.17.339",
          "code": "NP",
          "display": "Nurse Practitioner"
        } ]
      } ]
    }
  }, {
    "fullUrl": "urn:uuid:0e4dd679-229b-40a5-aedc-7dc0da84226c",
    "resource": {
      "resourceType": "Organization",
      "id": "0e4dd679-229b-40a5-aedc-7dc0da84226c",
      "identifier": [ {
        "value": "RX7"
      } ],
      "name": "NWAS 111"
    }
  }, {
    "fullUrl": "urn:uuid:50224b19-6ced-4717-95bc-3f9ef59e3ca2",
    "resource": {
      "resourceType": "RelatedPerson",
      "id": "50224b19-6ced-4717-95bc-3f9ef59e3ca2",
      "patient": {
        "reference": "urn:uuid:4090ef7c-25e5-4c57-a147-490170f188f1"
      },
      "relationship": {
        "coding": [ {
          "system": "http://hl7.org/fhir/v2/0131",
          "code": "C",
          "display": "Emergency Contact"
        } ]
      },
      "telecom": [ {
        "system": "phone",
        "value": "tel:07798501130"
      } ]
    }
  }, {
    "fullUrl": "urn:uuid:cf1f9404-9060-4bc0-90cb-a0bbabc3ed03",
    "resource": {
      "resourceType": "Device",
      "id": "cf1f9404-9060-4bc0-90cb-a0bbabc3ed03",
      "model": "111 Adaptor",
      "version": "1.0.1"
    }
  }, {
    "fullUrl": "urn:uuid:845344f7-e5b0-4ab1-b399-b1721bacfa5d",
    "resource": {
      "resourceType": "List",
      "id": "845344f7-e5b0-4ab1-b399-b1721bacfa5d",
      "status": "current",
      "mode": "working",
      "title": "111 Report List",
      "code": {
        "coding": [ {
          "system": "http://snomed.info/sct",
          "code": "225390008",
          "display": "Triage"
        } ]
      },
      "subject": {
        "reference": "urn:uuid:4090ef7c-25e5-4c57-a147-490170f188f1"
      },
      "encounter": {
        "reference": "urn:uuid:66b133e0-ad2f-48ce-ac9b-4af25b7d76dc"
      },
      "date": "2021-08-03T13:04:53+00:00",
      "source": {
        "reference": "urn:uuid:cf1f9404-9060-4bc0-90cb-a0bbabc3ed03"
      },
      "orderedBy": {
        "coding": [ {
          "system": "http://hl7.org/fhir/list-order",
          "code": "event-date",
          "display": "Sorted by Event Date"
        } ]
      },
      "entry": [ {
        "item": {
          "reference": "urn:uuid:ddfef814-2377-41b1-9345-0b9636719870"
        }
      }, {
        "item": {
          "reference": "urn:uuid:0e4dd679-229b-40a5-aedc-7dc0da84226c"
        }
      }, {
        "item": {
          "reference": "urn:uuid:ea25b23b-f88b-4ec5-9f99-9df28d9114f7"
        }
      }, {
        "item": {
          "reference": "urn:uuid:50224b19-6ced-4717-95bc-3f9ef59e3ca2"
        }
      }, {
        "item": {
          "reference": "urn:uuid:bbd518d7-89bd-451b-b9ea-90e4a745826c"
        }
      }, {
        "item": {
          "reference": "urn:uuid:87ebad90-e3c3-4a6e-8722-e266076e9894"
        }
      }, {
        "item": {
          "reference": "urn:uuid:57086c6b-1820-4a9c-902d-3ee3d6d7f265"
        }
      }, {
        "item": {
          "reference": "urn:uuid:f096f6a4-7764-4a02-a86b-9ac53583ba12"
        }
      }, {
        "item": {
          "reference": "urn:uuid:faa4fdee-caf7-4213-a9f1-8be6b36edf41"
        }
      }, {
        "item": {
          "reference": "urn:uuid:82d9902e-2228-4853-9f3f-690e66ec4f54"
        }
      }, {
        "item": {
          "reference": "urn:uuid:93566c95-1471-49cc-a90f-27f4a092484b"
        }
      }, {
        "item": {
          "reference": "urn:uuid:148612d2-69ec-4969-946d-c14aa747efd6"
        }
      }, {
        "item": {
          "reference": "urn:uuid:6033636f-1fdf-4a39-b2dc-5dc13915a4f3"
        }
      }, {
        "item": {
          "reference": "urn:uuid:d25b6b28-fb50-4b5a-b521-f2bb52be11ba"
        }
      }, {
        "item": {
          "reference": "urn:uuid:a1b91b98-3826-4b86-8ce0-f7a2189ad66a"
        }
      }, {
        "item": {
          "reference": "urn:uuid:c4103d74-8a42-4d76-8efb-863a3cc6a56a"
        }
      }, {
        "item": {
          "reference": "urn:uuid:ea299ee5-6046-4a8b-8cad-493f17400c53"
        }
      }, {
        "item": {
          "reference": "urn:uuid:db78c758-c64d-4caa-b8cc-a39bfa502f4e"
        }
      }, {
        "item": {
          "reference": "urn:uuid:1b108e31-2ba2-4359-85bc-851ced34b87f"
        }
      }, {
        "item": {
          "reference": "urn:uuid:0aa6da7a-6845-476e-87ed-5d05de6b1d2e"
        }
      }, {
        "item": {
          "reference": "urn:uuid:b4bf53fe-4901-4835-8fa9-519eadec7f4c"
        }
      }, {
        "item": {
          "reference": "urn:uuid:5be9522c-0ada-4efc-8913-046e91dbf9f8"
        }
      }, {
        "item": {
          "reference": "urn:uuid:aaed60c5-a63a-4df0-9304-99632635bfcf"
        }
      }, {
        "item": {
          "reference": "urn:uuid:d9420e3b-187f-4fa4-8676-64eb13a2bc1e"
        }
      }, {
        "item": {
          "reference": "urn:uuid:19e8b619-2cf2-4703-8ba5-3c7353851ef2"
        }
      }, {
        "item": {
          "reference": "urn:uuid:2d9aeebb-dfa7-41e0-bf5c-4048e1dfa558"
        }
      }, {
        "item": {
          "reference": "urn:uuid:fc0f4240-400b-4b24-a42c-a53cd7b4f22b"
        }
      }, {
        "item": {
          "reference": "urn:uuid:5501ea80-15d5-4f8e-910b-5689305bb3cd"
        }
      }, {
        "item": {
          "reference": "urn:uuid:0ccdb865-3e66-4f31-9bda-fe19b4d9b272"
        }
      }, {
        "item": {
          "reference": "urn:uuid:b6fc7c24-9418-4b20-b756-499f871e8e97"
        }
      }, {
        "item": {
          "reference": "urn:uuid:92498f97-0697-4fc9-9ec3-093690d7b30d"
        }
      }, {
        "item": {
          "reference": "urn:uuid:30884276-7bf8-4981-982a-66fac6ad37be"
        }
      }, {
        "item": {
          "reference": "urn:uuid:10bbf458-979e-4090-bbd3-68bab139cf11"
        }
      }, {
        "item": {
          "reference": "urn:uuid:f44a7feb-2d99-4a93-a7b2-c23109d4ab1b"
        }
      }, {
        "item": {
          "reference": "urn:uuid:ae0a784f-b41b-448a-bed7-534d31731f9c"
        }
      }, {
        "item": {
          "reference": "urn:uuid:07c0f5ae-4f88-4a8f-bed4-a87b90fdea63"
        }
      }, {
        "item": {
          "reference": "urn:uuid:9148731e-027c-44c9-bce8-34fa4b32d302"
        }
      }, {
        "item": {
          "reference": "urn:uuid:8d9bd8ca-3b8c-4b34-a2b6-eb1299ac9d46"
        }
      }, {
        "item": {
          "reference": "urn:uuid:ce7fae20-e067-4fc3-8dd0-20cbb8c981c8"
        }
      }, {
        "item": {
          "reference": "urn:uuid:4a212b15-89d9-430d-9fa0-6d5f5ab62d68"
        }
      }, {
        "item": {
          "reference": "urn:uuid:eba36039-24a6-4a10-add4-d1e7749b053d"
        }
      }, {
        "item": {
          "reference": "urn:uuid:e307d86b-324d-489e-b413-88883322097e"
        }
      }, {
        "item": {
          "reference": "urn:uuid:3e170a86-f200-4688-9742-821bc8910044"
        }
      }, {
        "item": {
          "reference": "urn:uuid:a045b074-06fe-4c5f-9ab9-dfd3c83f98eb"
        }
      }, {
        "item": {
          "reference": "urn:uuid:3e386630-8200-47e3-8639-a7b40cb69cc3"
        }
      }, {
        "item": {
          "reference": "urn:uuid:a257a1d6-0749-48e7-9e93-d3bbd270046b"
        }
      }, {
        "item": {
          "reference": "urn:uuid:79d8c705-d22a-41d6-8e43-68662a049f36"
        }
      }, {
        "item": {
          "reference": "urn:uuid:6ab9751e-d7ef-432d-b9d0-cdf684e5d79d"
        }
      }, {
        "item": {
          "reference": "urn:uuid:197ad54f-5d81-47d0-bed4-faeee885b1e1"
        }
      }, {
        "item": {
          "reference": "urn:uuid:c140a2ef-2602-4017-b39c-2e4b18584e80"
        }
      }, {
        "item": {
          "reference": "urn:uuid:e3cc753a-d186-4a6b-99ca-f8396d3d5b79"
        }
      }, {
        "item": {
          "reference": "urn:uuid:73d50c49-6cfb-4663-82bb-3a5ec3b5dacd"
        }
      }, {
        "item": {
          "reference": "urn:uuid:f94f69d1-2121-47f7-bdbc-68d8654ed3bd"
        }
      }, {
        "item": {
          "reference": "urn:uuid:295c242a-4291-4d57-a5b7-2a084e61bb94"
        }
      }, {
        "item": {
          "reference": "urn:uuid:b974c950-72e3-4b4b-a7ad-c3eac926f448"
        }
      }, {
        "item": {
          "reference": "urn:uuid:0ab9b6da-da3c-478d-bbd7-ffcbe8b01829"
        }
      }, {
        "item": {
          "reference": "urn:uuid:4ce2730b-7591-4993-9437-b66d1723efe8"
        }
      }, {
        "item": {
          "reference": "urn:uuid:b06b8b26-6cc4-4a72-b9a7-4299fe7ba63d"
        }
      }, {
        "item": {
          "reference": "urn:uuid:530cd981-9811-4404-8599-e735e6f263a8"
        }
      }, {
        "item": {
          "reference": "urn:uuid:ef2ed0dc-f75d-44a3-bc08-c4976727c890"
        }
      }, {
        "item": {
          "reference": "urn:uuid:53bd6c8f-2fb8-4d10-bb87-520ebcbd928c"
        }
      }, {
        "item": {
          "reference": "urn:uuid:bf5e5b2b-ad9a-4fe6-a122-683213f04195"
        }
      }, {
        "item": {
          "reference": "urn:uuid:1633d05f-0ead-4757-9db2-3d90f0fb32ec"
        }
      }, {
        "item": {
          "reference": "urn:uuid:2c5e52a6-696e-44b7-9752-0515f2360ef1"
        }
      }, {
        "item": {
          "reference": "urn:uuid:18be7cca-aa75-4080-a3bb-5967c3499d10"
        }
      }, {
        "item": {
          "reference": "urn:uuid:dc32c49f-e32d-4ca6-a01f-a7704d489396"
        }
      }, {
        "item": {
          "reference": "urn:uuid:77f3c4ad-f9f0-45aa-b897-bcd01646f5b9"
        }
      }, {
        "item": {
          "reference": "urn:uuid:b9c478e3-56ac-4fab-ab12-f47f79cf4c07"
        }
      }, {
        "item": {
          "reference": "urn:uuid:3422ccad-1191-475d-996b-4af9c757ac9d"
        }
      }, {
        "item": {
          "reference": "urn:uuid:04702abb-b0cb-4cc3-bcce-713e9e2711f1"
        }
      }, {
        "item": {
          "reference": "urn:uuid:f7c4b6e8-26b6-41b1-b165-3e0e63408840"
        }
      }, {
        "item": {
          "reference": "urn:uuid:3a0988db-ef72-44cb-b142-b137242ffbc9"
        }
      }, {
        "item": {
          "reference": "urn:uuid:2b6d7ae8-9f4a-41a7-bdc8-ae9ebad0d727"
        }
      } ]
    }
  } ]
}