{
  "resourceType": "Bundle",
  "identifier": {
    "type": {
      "text": "ClinicalDocument VersionNumber"
    },
    "value": "1"
  },
  "type": "message",
  "entry": [ {
    "fullUrl": "urn:uuid:B447241A-CEBD-41DF-AC62-46FE8022876F",
    "resource": {
      "resourceType": "MessageHeader",
      "id": "B447241A-CEBD-41DF-AC62-46FE8022876F",
      "event": {
        "system": "https://fhir.nhs.uk/STU3/CodeSystem/EventType-1",
        "code": "referral-1",
        "display": "Referral"
      },
      "destination": [ {
        "endpoint": "urn:nhs-uk:addressing:ods:Y02837001:DOSServiceID:1340268940"
      } ],
      "timestamp": "2021-08-03T13:04:53.000+00:00",
      "source": {
        "name": "NHS 111 Adaptor",
        "endpoint": "http://localhost:8080/report"
      },
      "reason": {
        "coding": [ {
          "system": "urn:nhs-itk:ns:201005:interaction",
          "code": "urn:nhs-itk:interaction:primaryOutofHourRecipientNHS111CDADocument-v2-0"
        } ]
      }
    }
  }, {
    "fullUrl": "urn:uuid:72422c19-05e2-408c-85f0-f43249e4e260",
    "resource": {
      "resourceType": "Encounter",
      "id": "72422c19-05e2-408c-85f0-f43249e4e260",
      "identifier": [ {
        "system": "2.16.840.1.113883.2.1.3.2.4.18.49",
        "value": "0163118D-0756-4A98-8F34-458721C6481F"
      }, {
        "system": "2.16.840.1.113883.2.1.3.2.4.18.34",
        "value": "1766749"
      }, {
        "system": "2.16.840.1.113883.2.1.3.2.4.18.35",
        "value": "1766749"
      } ],
      "status": "finished",
      "type": [ {
        "text": "111 Encounter Referral"
      } ],
      "subject": {
        "reference": "urn:uuid:2ecb33e4-10fd-4763-8274-a88a9493e0fa"
      },
      "participant": [ {
        "type": [ {
          "coding": [ {
            "system": "http://hl7.org/fhir/ValueSet/encounter-participant-type",
            "code": "PPRF",
            "display": "Author"
          } ]
        } ],
        "individual": {
          "reference": "urn:uuid:782a049e-057d-45ba-aaf2-7a48a0b926e3"
        }
      } ],
      "period": {
        "start": "2021-08-03T13:04:53+00:00"
      },
      "location": [ {
        "location": {
          "reference": "urn:uuid:ae02b530-e997-4eff-8c0f-dbef75b6237a"
        },
        "status": "completed"
      } ],
      "serviceProvider": {
        "reference": "urn:uuid:4bb13705-ac3b-4d75-a63a-8ab56abcc844"
      }
    }
  }, {
    "fullUrl": "urn:uuid:4bb13705-ac3b-4d75-a63a-8ab56abcc844",
    "resource": {
      "resourceType": "Organization",
      "id": "4bb13705-ac3b-4d75-a63a-8ab56abcc844",
      "active": true,
      "type": [ {
        "text": "CST"
      } ],
      "name": "NWAS 111"
    }
  }, {
    "fullUrl": "urn:uuid:782a049e-057d-45ba-aaf2-7a48a0b926e3",
    "resource": {
      "resourceType": "Practitioner",
      "id": "782a049e-057d-45ba-aaf2-7a48a0b926e3",
      "active": true,
      "name": [ {
        "text": "AndrewJ.Walford"
      } ]
    }
  }, {
    "fullUrl": "urn:uuid:ae02b530-e997-4eff-8c0f-dbef75b6237a",
    "resource": {
      "resourceType": "Location",
      "id": "ae02b530-e997-4eff-8c0f-dbef75b6237a",
      "address": {
        "type": "physical",
        "line": [ "Fleetwood Health & Wellbeing Centre", "Dock Street", "Fleetwood" ],
        "postalCode": "FY7 6HP"
      }
    }
  }, {
    "fullUrl": "urn:uuid:2ecb33e4-10fd-4763-8274-a88a9493e0fa",
    "resource": {
      "resourceType": "Patient",
      "id": "2ecb33e4-10fd-4763-8274-a88a9493e0fa",
      "active": true,
      "name": [ {
        "use": "official",
        "family": "Please Disregard",
        "given": [ "Dx10 Test" ]
      } ],
      "telecom": [ {
        "system": "phone",
        "value": "tel:07798501130",
        "use": "mobile"
      }, {
        "system": "phone",
        "value": "tel:07798501130"
      } ],
      "gender": "male",
      "birthDate": "1980-01-01",
      "address": [ {
        "use": "home",
        "line": [ "Fleetwood Health & Wellbeing Centre", "Dock Street", "Fleetwood" ],
        "postalCode": "FY7 6HP"
      }, {
        "type": "physical",
        "line": [ "Fleetwood Health & Wellbeing Centre", "Dock Street", "Fleetwood" ],
        "postalCode": "FY7 6HP"
      } ]
    }
  }, {
    "fullUrl": "urn:uuid:a50229bd-aaaa-4f70-b0b4-530f597bf83a",
    "resource": {
      "resourceType": "HealthcareService",
      "id": "a50229bd-aaaa-4f70-b0b4-530f597bf83a",
      "active": true,
      "providedBy": {
        "reference": "urn:uuid:23c8f301-6e0d-4068-b700-c9cf8b79cbca"
      },
      "location": [ {
        "reference": "urn:uuid:b8c467bd-83ac-4362-8408-719499b64f14"
      } ],
      "name": "Urgent Treatment Centre - Minor Injury Unit Same Day Health Cent",
      "telecom": [ {
        "system": "phone",
        "value": "tel:03001231144NP:01253955551",
        "use": "work"
      } ]
    }
  }, {
    "fullUrl": "urn:uuid:b8c467bd-83ac-4362-8408-719499b64f14",
    "resource": {
      "resourceType": "Location",
      "id": "b8c467bd-83ac-4362-8408-719499b64f14",
      "telecom": [ {
        "system": "phone",
        "value": "tel:03001231144NP:01253955551",
        "use": "work"
      } ],
      "address": {
        "use": "work",
        "line": [ "x", "x", "x" ],
        "postalCode": "FY7 6HP"
      },
      "managingOrganization": {
        "reference": "urn:uuid:23c8f301-6e0d-4068-b700-c9cf8b79cbca"
      }
    }
  }, {
    "fullUrl": "urn:uuid:23c8f301-6e0d-4068-b700-c9cf8b79cbca",
    "resource": {
      "resourceType": "Organization",
      "id": "23c8f301-6e0d-4068-b700-c9cf8b79cbca",
      "identifier": [ {
        "value": "Y02837001"
      } ],
      "type": [ {
        "coding": [ {
          "code": "PRCP",
          "display": "Urgent Treatment Centre - Minor Injury Unit Same Day Health Cent"
        } ]
      } ],
      "name": "Urgent Treatment Centre - Minor Injury Unit Same Day Health Cent"
    }
  }, {
    "fullUrl": "urn:uuid:50b8da6e-e358-484b-a353-af2b4437ef90",
    "resource": {
      "resourceType": "ReferralRequest",
      "id": "50b8da6e-e358-484b-a353-af2b4437ef90",
      "status": "active",
      "intent": "plan",
      "priority": "routine",
      "subject": {
        "reference": "urn:uuid:2ecb33e4-10fd-4763-8274-a88a9493e0fa"
      },
      "context": {
        "reference": "urn:uuid:72422c19-05e2-408c-85f0-f43249e4e260"
      },
      "occurrencePeriod": {
        "start": "2021-09-29T10:03:08+00:00",
        "end": "2021-09-29T11:03:08+00:00"
      },
      "authoredOn": "2021-08-03T12:35:22+00:00",
      "requester": {
        "agent": {
          "reference": "urn:uuid:25fc7578-3a75-4bbd-948f-fda557d1ef53"
        },
        "onBehalfOf": {
          "reference": "urn:uuid:4bb13705-ac3b-4d75-a63a-8ab56abcc844"
        }
      },
      "recipient": [ {
        "reference": "urn:uuid:5a035d20-30b0-49fb-a9e3-0df1f504fcc7"
      }, {
        "reference": "urn:uuid:a50229bd-aaaa-4f70-b0b4-530f597bf83a"
      } ],
      "reasonReference": [ {
        "reference": "urn:uuid:4798c75a-5ff6-4c4e-a85b-0082ca32237b"
      } ],
      "supportingInfo": [ {
        "reference": "urn:uuid:d5dbe117-8dc8-46f2-95f3-0d49411014e5"
      } ]
    }
  }, {
    "fullUrl": "urn:uuid:d5dbe117-8dc8-46f2-95f3-0d49411014e5",
    "resource": {
      "resourceType": "ProcedureRequest",
      "id": "d5dbe117-8dc8-46f2-95f3-0d49411014e5",
      "status": "active",
      "intent": "plan",
      "priority": "routine",
      "doNotPerform": false,
      "code": {
        "coding": [ {
          "system": "2.16.840.1.113883.2.1.3.2.4.17.325",
          "code": "Dx10",
          "display": "Must Contact A Local Service For A Non-urgent Appointment"
        } ]
      },
      "subject": {
        "reference": "urn:uuid:2ecb33e4-10fd-4763-8274-a88a9493e0fa"
      },
      "occurrencePeriod": {
        "start": "2021-09-29T10:03:08+00:00",
        "end": "2021-09-29T11:03:08+00:00"
      },
      "reasonReference": [ {
        "reference": "urn:uuid:4798c75a-5ff6-4c4e-a85b-0082ca32237b"
      } ]
    }
  }, {
    "fullUrl": "urn:uuid:5a035d20-30b0-49fb-a9e3-0df1f504fcc7",
    "resource": {
      "resourceType": "Practitioner",
      "id": "5a035d20-30b0-49fb-a9e3-0df1f504fcc7",
      "active": true,
      "telecom": [ {
        "system": "phone",
        "value": "tel:03001231144NP:01253955551",
        "use": "work"
      } ],
      "address": [ {
        "type": "physical",
        "line": [ "x", "x", "x" ],
        "postalCode": "FY7 6HP"
      } ]
    }
  }, {
    "fullUrl": "urn:uuid:e5df3288-7c7a-4033-ba43-d74055686869",
    "resource": {
      "resourceType": "Composition",
      "id": "e5df3288-7c7a-4033-ba43-d74055686869",
      "identifier": {
        "use": "usual",
        "value": "DEF337D1-08BF-4631-B11E-28F64349A031"
      },
      "status": "final",
      "type": {
        "coding": [ {
          "system": "http://snomed.info/sct",
          "code": "371531000",
          "display": "Report of clinical encounter (record artifact)"
        } ]
      },
      "subject": {
        "reference": "urn:uuid:2ecb33e4-10fd-4763-8274-a88a9493e0fa"
      },
      "encounter": {
        "reference": "urn:uuid:72422c19-05e2-408c-85f0-f43249e4e260"
      },
      "date": "2021-09-29T10:03:08+00:00",
      "author": [ {
        "reference": "urn:uuid:782a049e-057d-45ba-aaf2-7a48a0b926e3"
      } ],
      "title": "111 Report",
      "confidentiality": "N",
      "section": [ {
        "section": [ {
          "title": "Patient's Reported Condition",
          "text": {
            "status": "generated",
            "div": "<div xmlns=\"http://www.w3.org/1999/xhtml\">**test From Nwas111 - No Action Required - Please Disregard Test</div>"
          }
        }, {
          "title": "Case Summary",
          "text": {
            "status": "generated",
            "div": "<div xmlns=\"http://www.w3.org/1999/xhtml\">&lt;content styleCode=&quot;bold&quot;&gt;Pathways Disposition: Dx10&lt;/content&gt;\n                                                    &lt;br/&gt;\n                                                    &lt;content&gt;Must Contact A Local Service For A Non-urgent Appointment User comment - '**Test From NWAS111 - No Action required - Please Disregard Test case**'&lt;/content&gt;\n                                                    &lt;br/&gt;\n                                                    &lt;br/&gt;\n                                                    &lt;content styleCode=&quot;bold&quot;&gt;Consultation Summary:&lt;/content&gt;\n                                                    &lt;br/&gt;\n                                                    &lt;content&gt;Illness - '**Test From NWAS111 - No Action required - Please Disregard Test case**'&lt;/content&gt;\n                                                    &lt;br/&gt;\n                                                    &lt;content&gt;Warm to touch&lt;/content&gt;\n                                                    &lt;br/&gt;\n                                                    &lt;br/&gt;\n                                                    &lt;content styleCode=&quot;bold&quot;&gt;Pathways Assessment:&lt;/content&gt;\n                                                    &lt;br/&gt;\n                                                    &lt;content&gt;An injury or health problem was the reason for the contact.&lt;/content&gt;\n                                                    &lt;br/&gt;\n                                                    &lt;content&gt;User comment - '**Test From NWAS111 - No Action required - Please Disregard Test case**'&lt;/content&gt;\n                                                    &lt;br/&gt;\n                                                    &lt;content&gt;Heavy bleeding had not occurred in the previous 2 hours.&lt;/content&gt;\n                                                    &lt;br/&gt;\n                                                    &lt;content&gt;An illness or health problem was the main problem.&lt;/content&gt;\n                                                    &lt;br/&gt;\n                                                    &lt;content&gt;User comment - '**Test From NWAS111 - No Action required - Please Disregard Test case**'&lt;/content&gt;\n                                                    &lt;br/&gt;\n                                                    &lt;content&gt;The individual was not fighting for breath.&lt;/content&gt;\n                                                    &lt;br/&gt;\n                                                    &lt;content&gt;The main reason for the assessment was not an allergic reaction, heart attack, chest/upper back pain, probable stroke, recent fit/seizure or suicide attempt.&lt;/content&gt;\n                                                    &lt;br/&gt;\n                                                    &lt;content&gt;The main reason for contact was not new confusion, declared diabetic hypo/hyperglycaemia, or ICD shock.&lt;/content&gt;\n                                                    &lt;br/&gt;\n                                                    &lt;content&gt;The skin on the torso felt normal, warm or hot.&lt;/content&gt;\n                                                    &lt;br/&gt;\n                                                    &lt;content&gt;Pathway selected - Difficulty Passing Urine&lt;/content&gt;\n                                                    &lt;br/&gt;\n                                                    &lt;content&gt;The individual was able to carry out most or all normal activities.&lt;/content&gt;\n                                                    &lt;br/&gt;\n                                                    &lt;content&gt;There was no new loss of bowel control or leg movement and no saddle or lower limb paraesthesia.&lt;/content&gt;\n                                                    &lt;br/&gt;\n                                                    &lt;content&gt;There was no inability to pass urine over the last 12 hours.&lt;/content&gt;\n                                                    &lt;br/&gt;\n                                                    &lt;content&gt;There was no new or worsening confusion.&lt;/content&gt;\n                                                    &lt;br/&gt;\n                                                    &lt;content&gt;Breathing harder or faster when doing nothing was not described.&lt;/content&gt;\n                                                    &lt;br/&gt;\n                                                    &lt;content&gt;There was no spinal pain.&lt;/content&gt;\n                                                    &lt;br/&gt;\n                                                    &lt;content&gt;The pain was not getting worse.&lt;/content&gt;\n                                                    &lt;br/&gt;\n                                                    &lt;content&gt;There was no fever at the time of assessment or within the previous 12 hours.&lt;/content&gt;\n                                                    &lt;br/&gt;\n                                                    &lt;content&gt;The individual had not experienced a back injury within the previous 4 weeks.&lt;/content&gt;\n                                                    &lt;br/&gt;\n                                                    &lt;content&gt;Medication type or dosage had not changed within the previous 2 weeks.&lt;/content&gt;\n                                                    &lt;br/&gt;\n                                                    &lt;content&gt;User comment - 'Urgent Treatment Centre - Same Day Health Centre - Fleetwood'&lt;/content&gt;\n                                                    &lt;br/&gt;\n                                                    &lt;br/&gt;\n                                                    &lt;content styleCode=&quot;bold&quot;&gt;Advice Given:&lt;/content&gt;\n                                                    &lt;br/&gt;\n                                                    &lt;content&gt;Unless advised not to, paracetamol may be used to relieve pain or fever. Follow the instructions in the pack. If in doubt ask a pharmacist.&lt;/content&gt;\n                                                    &lt;br/&gt;\n                                                    &lt;br/&gt;</div>"
          }
        } ]
      }, {
        "title": "ReferralRequest",
        "entry": [ {
          "reference": "urn:uuid:50b8da6e-e358-484b-a353-af2b4437ef90"
        } ]
      }, {
        "title": "QuestionnaireResponse",
        "entry": [ {
          "reference": "urn:uuid:922559a6-fcae-49cd-9b0a-c032f0edcc6c"
        } ]
      }, {
        "title": "QuestionnaireResponse",
        "entry": [ {
          "reference": "urn:uuid:b09e0060-de65-41cb-9ac2-83937bd92605"
        } ]
      }, {
        "title": "QuestionnaireResponse",
        "entry": [ {
          "reference": "urn:uuid:cd804c3e-fbe1-4bd0-afa1-95c9c28bdb84"
        } ]
      }, {
        "title": "QuestionnaireResponse",
        "entry": [ {
          "reference": "urn:uuid:dc05f6a4-0710-4574-8846-2d75094f83b4"
        } ]
      }, {
        "title": "QuestionnaireResponse",
        "entry": [ {
          "reference": "urn:uuid:831f8413-1e85-4d00-9ebf-b8e34f5c8e69"
        } ]
      }, {
        "title": "QuestionnaireResponse",
        "entry": [ {
          "reference": "urn:uuid:ce1ecc1c-73a9-44cd-9061-5916e855d265"
        } ]
      }, {
        "title": "QuestionnaireResponse",
        "entry": [ {
          "reference": "urn:uuid:c45f44c5-79b5-4d26-937f-0bfb9119eeb4"
        } ]
      }, {
        "title": "QuestionnaireResponse",
        "entry": [ {
          "reference": "urn:uuid:b52a4c9d-1f05-4c35-983f-04aaeec42f23"
        } ]
      }, {
        "title": "QuestionnaireResponse",
        "entry": [ {
          "reference": "urn:uuid:d742d3be-390b-4376-bd1b-0295a74eaca9"
        } ]
      }, {
        "title": "QuestionnaireResponse",
        "entry": [ {
          "reference": "urn:uuid:2f91278a-7a85-4069-8d79-26432fc02f7d"
        } ]
      }, {
        "title": "QuestionnaireResponse",
        "entry": [ {
          "reference": "urn:uuid:9f0e8f69-daea-46c3-91f3-b4997e346b73"
        } ]
      }, {
        "title": "QuestionnaireResponse",
        "entry": [ {
          "reference": "urn:uuid:46ac73bf-2b49-4b68-93fd-3bfd5571c4ff"
        } ]
      }, {
        "title": "QuestionnaireResponse",
        "entry": [ {
          "reference": "urn:uuid:b90f7803-9031-4006-ac96-b76adebc0ea1"
        } ]
      }, {
        "title": "QuestionnaireResponse",
        "entry": [ {
          "reference": "urn:uuid:bd9fb550-5ed3-40b9-aeed-2c740ef98975"
        } ]
      }, {
        "title": "QuestionnaireResponse",
        "entry": [ {
          "reference": "urn:uuid:772384bb-7a66-4b1e-83d0-b6116fc440f2"
        } ]
      }, {
        "title": "QuestionnaireResponse",
        "entry": [ {
          "reference": "urn:uuid:81b05dbd-f4f6-409d-a179-8aa87eed2a65"
        } ]
      }, {
        "title": "QuestionnaireResponse",
        "entry": [ {
          "reference": "urn:uuid:7cdcd72e-91f9-42f6-9d32-b1fa4c8a86c9"
        } ]
      }, {
        "title": "QuestionnaireResponse",
        "entry": [ {
          "reference": "urn:uuid:d4db2202-89ec-4aa8-bdcb-dcc72ddf734b"
        } ]
      }, {
        "title": "QuestionnaireResponse",
        "entry": [ {
          "reference": "urn:uuid:083f43ad-4638-4d6e-83ed-7e9f8e12248b"
        } ]
      }, {
        "title": "QuestionnaireResponse",
        "entry": [ {
          "reference": "urn:uuid:dd4a4848-265b-45f3-bf24-e737adb60e2a"
        } ]
      }, {
        "title": "QuestionnaireResponse",
        "entry": [ {
          "reference": "urn:uuid:f672714a-1c50-40ce-a924-967d35881b2e"
        } ]
      }, {
        "title": "QuestionnaireResponse",
        "entry": [ {
          "reference": "urn:uuid:314e7c72-5b1b-4a1d-b11b-a912f5742e30"
        } ]
      }, {
        "title": "QuestionnaireResponse",
        "entry": [ {
          "reference": "urn:uuid:a2584a4d-04d3-4fdb-a7b6-19e1a0c25d27"
        } ]
      }, {
        "title": "QuestionnaireResponse",
        "entry": [ {
          "reference": "urn:uuid:ebbf1601-3309-4826-8e99-8293c1cadf57"
        } ]
      }, {
        "title": "QuestionnaireResponse",
        "entry": [ {
          "reference": "urn:uuid:d8fe1ac1-5f11-41bb-bc1a-8a26bb57cdec"
        } ]
      }, {
        "title": "QuestionnaireResponse",
        "entry": [ {
          "reference": "urn:uuid:e7c8ed0d-522a-451b-9dad-f2b4e79a5223"
        } ]
      }, {
        "title": "QuestionnaireResponse",
        "entry": [ {
          "reference": "urn:uuid:8e8b4e47-db51-4a54-afc6-d0600a08b1fd"
        } ]
      }, {
        "title": "QuestionnaireResponse",
        "entry": [ {
          "reference": "urn:uuid:25c99b3a-c4db-40bb-94be-5ca0a5811e28"
        } ]
      }, {
        "title": "QuestionnaireResponse",
        "entry": [ {
          "reference": "urn:uuid:c76ca79e-db59-4a4f-be4c-1e74057f7425"
        } ]
      }, {
        "title": "QuestionnaireResponse",
        "entry": [ {
          "reference": "urn:uuid:4ca6c57c-0ae2-46ec-8679-b18c26a50ff3"
        } ]
      }, {
        "title": "QuestionnaireResponse",
        "entry": [ {
          "reference": "urn:uuid:19f4f657-d144-4f4f-88d4-f3bcd2f0b012"
        } ]
      }, {
        "title": "QuestionnaireResponse",
        "entry": [ {
          "reference": "urn:uuid:1551524f-d7f9-4f34-8f42-29804eb45700"
        } ]
      } ]
    }
  }, {
    "fullUrl": "urn:uuid:c985c649-b71b-4923-89c9-5f9adf22c738",
    "resource": {
      "resourceType": "Consent",
      "id": "c985c649-b71b-4923-89c9-5f9adf22c738",
      "identifier": {
        "use": "usual",
        "value": "DEF337D1-08BF-4631-B11E-28F64349A031"
      },
      "status": "active",
      "patient": {
        "reference": "urn:uuid:2ecb33e4-10fd-4763-8274-a88a9493e0fa"
      },
      "period": {
        "start": "2021-08-03T13:04:53+00:00"
      },
      "consentingParty": [ {
        "reference": "urn:uuid:2ecb33e4-10fd-4763-8274-a88a9493e0fa"
      } ],
      "action": [ {
        "coding": [ {
          "system": "http://snomed.info/sct",
          "code": "425691002",
          "display": "Consent given for electronic record sharing"
        } ],
        "text": "Consent given for electronic record sharing"
      } ],
      "organization": [ {
        "reference": "urn:uuid:4bb13705-ac3b-4d75-a63a-8ab56abcc844"
      } ],
      "policyRule": "http://hl7.org/fhir/ConsentPolicy/opt-out",
      "data": [ {
        "meaning": "related",
        "reference": {
          "reference": "urn:uuid:72422c19-05e2-408c-85f0-f43249e4e260"
        }
      } ]
    }
  }, {
    "fullUrl": "urn:uuid:4798c75a-5ff6-4c4e-a85b-0082ca32237b",
    "resource": {
      "resourceType": "Condition",
      "id": "4798c75a-5ff6-4c4e-a85b-0082ca32237b",
      "clinicalStatus": "active",
      "verificationStatus": "unknown",
      "subject": {
        "reference": "urn:uuid:2ecb33e4-10fd-4763-8274-a88a9493e0fa"
      },
      "context": {
        "reference": "urn:uuid:72422c19-05e2-408c-85f0-f43249e4e260"
      },
      "evidence": [ {
        "detail": [ {
          "reference": "urn:uuid:922559a6-fcae-49cd-9b0a-c032f0edcc6c"
        } ]
      }, {
        "detail": [ {
          "reference": "urn:uuid:b09e0060-de65-41cb-9ac2-83937bd92605"
        } ]
      }, {
        "detail": [ {
          "reference": "urn:uuid:cd804c3e-fbe1-4bd0-afa1-95c9c28bdb84"
        } ]
      }, {
        "detail": [ {
          "reference": "urn:uuid:dc05f6a4-0710-4574-8846-2d75094f83b4"
        } ]
      }, {
        "detail": [ {
          "reference": "urn:uuid:831f8413-1e85-4d00-9ebf-b8e34f5c8e69"
        } ]
      }, {
        "detail": [ {
          "reference": "urn:uuid:ce1ecc1c-73a9-44cd-9061-5916e855d265"
        } ]
      }, {
        "detail": [ {
          "reference": "urn:uuid:c45f44c5-79b5-4d26-937f-0bfb9119eeb4"
        } ]
      }, {
        "detail": [ {
          "reference": "urn:uuid:b52a4c9d-1f05-4c35-983f-04aaeec42f23"
        } ]
      }, {
        "detail": [ {
          "reference": "urn:uuid:d742d3be-390b-4376-bd1b-0295a74eaca9"
        } ]
      }, {
        "detail": [ {
          "reference": "urn:uuid:2f91278a-7a85-4069-8d79-26432fc02f7d"
        } ]
      }, {
        "detail": [ {
          "reference": "urn:uuid:9f0e8f69-daea-46c3-91f3-b4997e346b73"
        } ]
      }, {
        "detail": [ {
          "reference": "urn:uuid:46ac73bf-2b49-4b68-93fd-3bfd5571c4ff"
        } ]
      }, {
        "detail": [ {
          "reference": "urn:uuid:b90f7803-9031-4006-ac96-b76adebc0ea1"
        } ]
      }, {
        "detail": [ {
          "reference": "urn:uuid:bd9fb550-5ed3-40b9-aeed-2c740ef98975"
        } ]
      }, {
        "detail": [ {
          "reference": "urn:uuid:772384bb-7a66-4b1e-83d0-b6116fc440f2"
        } ]
      }, {
        "detail": [ {
          "reference": "urn:uuid:81b05dbd-f4f6-409d-a179-8aa87eed2a65"
        } ]
      }, {
        "detail": [ {
          "reference": "urn:uuid:7cdcd72e-91f9-42f6-9d32-b1fa4c8a86c9"
        } ]
      }, {
        "detail": [ {
          "reference": "urn:uuid:d4db2202-89ec-4aa8-bdcb-dcc72ddf734b"
        } ]
      }, {
        "detail": [ {
          "reference": "urn:uuid:083f43ad-4638-4d6e-83ed-7e9f8e12248b"
        } ]
      }, {
        "detail": [ {
          "reference": "urn:uuid:dd4a4848-265b-45f3-bf24-e737adb60e2a"
        } ]
      }, {
        "detail": [ {
          "reference": "urn:uuid:f672714a-1c50-40ce-a924-967d35881b2e"
        } ]
      }, {
        "detail": [ {
          "reference": "urn:uuid:314e7c72-5b1b-4a1d-b11b-a912f5742e30"
        } ]
      }, {
        "detail": [ {
          "reference": "urn:uuid:a2584a4d-04d3-4fdb-a7b6-19e1a0c25d27"
        } ]
      }, {
        "detail": [ {
          "reference": "urn:uuid:ebbf1601-3309-4826-8e99-8293c1cadf57"
        } ]
      }, {
        "detail": [ {
          "reference": "urn:uuid:d8fe1ac1-5f11-41bb-bc1a-8a26bb57cdec"
        } ]
      }, {
        "detail": [ {
          "reference": "urn:uuid:e7c8ed0d-522a-451b-9dad-f2b4e79a5223"
        } ]
      }, {
        "detail": [ {
          "reference": "urn:uuid:8e8b4e47-db51-4a54-afc6-d0600a08b1fd"
        } ]
      }, {
        "detail": [ {
          "reference": "urn:uuid:25c99b3a-c4db-40bb-94be-5ca0a5811e28"
        } ]
      }, {
        "detail": [ {
          "reference": "urn:uuid:c76ca79e-db59-4a4f-be4c-1e74057f7425"
        } ]
      }, {
        "detail": [ {
          "reference": "urn:uuid:4ca6c57c-0ae2-46ec-8679-b18c26a50ff3"
        } ]
      }, {
        "detail": [ {
          "reference": "urn:uuid:19f4f657-d144-4f4f-88d4-f3bcd2f0b012"
        } ]
      }, {
        "detail": [ {
          "reference": "urn:uuid:1551524f-d7f9-4f34-8f42-29804eb45700"
        } ]
      } ]
    }
  }, {
    "fullUrl": "urn:uuid:922559a6-fcae-49cd-9b0a-c032f0edcc6c",
    "resource": {
      "resourceType": "QuestionnaireResponse",
      "id": "922559a6-fcae-49cd-9b0a-c032f0edcc6c",
      "identifier": {
        "value": "1766749"
      },
      "questionnaire": {
        "reference": "urn:uuid:75f909b9-a980-42b8-9385-a22b26fed611"
      },
      "status": "completed",
      "subject": {
        "reference": "urn:uuid:2ecb33e4-10fd-4763-8274-a88a9493e0fa"
      },
      "context": {
        "reference": "urn:uuid:72422c19-05e2-408c-85f0-f43249e4e260"
      },
      "authored": "2021-08-03T13:04:53+00:00",
      "item": [ {
        "linkId": "Tx220109",
        "text": "What is the reason for the contact?",
        "answer": [ {
          "valueString": "an injury or other health problem"
        } ]
      } ]
    }
  }, {
    "fullUrl": "urn:uuid:75f909b9-a980-42b8-9385-a22b26fed611",
    "resource": {
      "resourceType": "Questionnaire",
      "id": "75f909b9-a980-42b8-9385-a22b26fed611",
      "identifier": [ {
        "value": "1766749"
      } ],
      "version": "2021-08-03T13:04:53.000Z",
      "status": "active",
      "experimental": false,
      "date": "2021-08-03T13:04:53+00:00",
      "publisher": "User ID: '922' User name: 'AndrewJ.Walford' User skill set: 'T4'",
      "lastReviewDate": "2021-08-03",
      "contact": [ {
        "telecom": [ {
          "system": "phone",
          "value": "07798501130"
        } ]
      } ],
      "subjectType": [ "Patient" ],
      "item": [ {
        "linkId": "1766749",
        "prefix": "5",
        "text": "What is the reason for the contact?",
        "type": "choice",
        "required": true,
        "repeats": false,
        "option": [ {
          "valueString": "an injury or other health problem, Selected: true"
        }, {
          "valueString": "a need to access another healthcare service, Selected: false"
        }, {
          "valueString": "a healthcare professional requesting contact with another clinician, Selected: false"
        }, {
          "valueString": "a report of results or tests, Selected: false"
        }, {
          "valueString": "more, Selected: false"
        } ]
      } ]
    }
  }, {
    "fullUrl": "urn:uuid:b09e0060-de65-41cb-9ac2-83937bd92605",
    "resource": {
      "resourceType": "QuestionnaireResponse",
      "id": "b09e0060-de65-41cb-9ac2-83937bd92605",
      "identifier": {
        "value": "1766749"
      },
      "questionnaire": {
        "reference": "urn:uuid:b919e636-4bce-424c-aa75-a27a8391ec51"
      },
      "status": "completed",
      "subject": {
        "reference": "urn:uuid:2ecb33e4-10fd-4763-8274-a88a9493e0fa"
      },
      "context": {
        "reference": "urn:uuid:72422c19-05e2-408c-85f0-f43249e4e260"
      },
      "authored": "2021-08-03T13:04:53+00:00",
      "item": [ {
        "linkId": "Tx221788",
        "text": "STRING:to'ImmediateThreatsToLife(SPA/OOHversion)'-'ABC'menu",
        "answer": [ {
          "valueString": "\"\"present\"\""
        } ]
      } ]
    }
  }, {
    "fullUrl": "urn:uuid:b919e636-4bce-424c-aa75-a27a8391ec51",
    "resource": {
      "resourceType": "Questionnaire",
      "id": "b919e636-4bce-424c-aa75-a27a8391ec51",
      "identifier": [ {
        "value": "1766749"
      } ],
      "version": "2021-08-03T13:04:53.000Z",
      "status": "active",
      "experimental": false,
      "date": "2021-08-03T13:04:53+00:00",
      "publisher": "User ID: '922' User name: 'AndrewJ.Walford' User skill set: 'T4'",
      "lastReviewDate": "2021-08-03",
      "contact": [ {
        "telecom": [ {
          "system": "phone",
          "value": "07798501130"
        } ]
      } ],
      "subjectType": [ "Patient" ],
      "item": [ {
        "linkId": "1766749",
        "prefix": "500",
        "text": "STRING:to'ImmediateThreatsToLife(SPA/OOHversion)'-'ABC'menu",
        "type": "choice",
        "required": true,
        "repeats": false,
        "option": [ {
          "valueString": "\"\"present\"\", Selected: true"
        } ]
      } ]
    }
  }, {
    "fullUrl": "urn:uuid:cd804c3e-fbe1-4bd0-afa1-95c9c28bdb84",
    "resource": {
      "resourceType": "QuestionnaireResponse",
      "id": "cd804c3e-fbe1-4bd0-afa1-95c9c28bdb84",
      "identifier": {
        "value": "1766749"
      },
      "questionnaire": {
        "reference": "urn:uuid:d03c1f49-cad9-43d3-a5c3-3903d62acead"
      },
      "status": "completed",
      "subject": {
        "reference": "urn:uuid:2ecb33e4-10fd-4763-8274-a88a9493e0fa"
      },
      "context": {
        "reference": "urn:uuid:72422c19-05e2-408c-85f0-f43249e4e260"
      },
      "authored": "2021-08-03T13:04:53+00:00",
      "item": [ {
        "linkId": "Tx221814",
        "text": "STRING:aninjuryorotherhealthproblemestablishedinEntryFlow",
        "answer": [ {
          "valueString": "\"\"present\"\""
        } ]
      } ]
    }
  }, {
    "fullUrl": "urn:uuid:d03c1f49-cad9-43d3-a5c3-3903d62acead",
    "resource": {
      "resourceType": "Questionnaire",
      "id": "d03c1f49-cad9-43d3-a5c3-3903d62acead",
      "identifier": [ {
        "value": "1766749"
      } ],
      "version": "2021-08-03T13:04:53.000Z",
      "status": "active",
      "experimental": false,
      "date": "2021-08-03T13:04:53+00:00",
      "publisher": "User ID: '922' User name: 'AndrewJ.Walford' User skill set: 'T4'",
      "lastReviewDate": "2021-08-03",
      "contact": [ {
        "telecom": [ {
          "system": "phone",
          "value": "07798501130"
        } ]
      } ],
      "subjectType": [ "Patient" ],
      "item": [ {
        "linkId": "1766749",
        "prefix": "0",
        "text": "STRING:aninjuryorotherhealthproblemestablishedinEntryFlow",
        "type": "choice",
        "required": true,
        "repeats": false,
        "option": [ {
          "valueString": "\"\"present\"\", Selected: true"
        } ]
      } ]
    }
  }, {
    "fullUrl": "urn:uuid:dc05f6a4-0710-4574-8846-2d75094f83b4",
    "resource": {
      "resourceType": "QuestionnaireResponse",
      "id": "dc05f6a4-0710-4574-8846-2d75094f83b4",
      "identifier": {
        "value": "1766749"
      },
      "questionnaire": {
        "reference": "urn:uuid:6ae5fc09-76d7-4617-a490-7b6d16e7fd84"
      },
      "status": "completed",
      "subject": {
        "reference": "urn:uuid:2ecb33e4-10fd-4763-8274-a88a9493e0fa"
      },
      "context": {
        "reference": "urn:uuid:72422c19-05e2-408c-85f0-f43249e4e260"
      },
      "authored": "2021-08-03T13:04:53+00:00",
      "item": [ {
        "linkId": "Tx224120",
        "text": "Have you been bleeding RED BLOOD very heavily IN THE LAST 2 HOURS?",
        "answer": [ {
          "valueString": "no"
        } ]
      } ]
    }
  }, {
    "fullUrl": "urn:uuid:6ae5fc09-76d7-4617-a490-7b6d16e7fd84",
    "resource": {
      "resourceType": "Questionnaire",
      "id": "6ae5fc09-76d7-4617-a490-7b6d16e7fd84",
      "identifier": [ {
        "value": "1766749"
      } ],
      "version": "2021-08-03T13:04:53.000Z",
      "status": "active",
      "experimental": false,
      "date": "2021-08-03T13:04:53+00:00",
      "publisher": "User ID: '922' User name: 'AndrewJ.Walford' User skill set: 'T4'",
      "lastReviewDate": "2021-08-03",
      "contact": [ {
        "telecom": [ {
          "system": "phone",
          "value": "07798501130"
        } ]
      } ],
      "subjectType": [ "Patient" ],
      "item": [ {
        "linkId": "1766749",
        "prefix": "7000",
        "text": "Have you been bleeding RED BLOOD very heavily IN THE LAST 2 HOURS?",
        "type": "choice",
        "required": true,
        "repeats": false,
        "option": [ {
          "valueString": "yes, Selected: false"
        }, {
          "valueString": "not sure, Selected: false"
        }, {
          "valueString": "no, Selected: true"
        } ]
      } ]
    }
  }, {
    "fullUrl": "urn:uuid:831f8413-1e85-4d00-9ebf-b8e34f5c8e69",
    "resource": {
      "resourceType": "QuestionnaireResponse",
      "id": "831f8413-1e85-4d00-9ebf-b8e34f5c8e69",
      "identifier": {
        "value": "1766749"
      },
      "questionnaire": {
        "reference": "urn:uuid:9deab853-dba8-4d18-a178-dea9c077ec2c"
      },
      "status": "completed",
      "subject": {
        "reference": "urn:uuid:2ecb33e4-10fd-4763-8274-a88a9493e0fa"
      },
      "context": {
        "reference": "urn:uuid:72422c19-05e2-408c-85f0-f43249e4e260"
      },
      "authored": "2021-08-03T13:04:53+00:00",
      "item": [ {
        "linkId": "Tx221343",
        "text": "SocialConcernsExcluded",
        "answer": [ {
          "valueString": "*"
        } ]
      } ]
    }
  }, {
    "fullUrl": "urn:uuid:9deab853-dba8-4d18-a178-dea9c077ec2c",
    "resource": {
      "resourceType": "Questionnaire",
      "id": "9deab853-dba8-4d18-a178-dea9c077ec2c",
      "identifier": [ {
        "value": "1766749"
      } ],
      "version": "2021-08-03T13:04:53.000Z",
      "status": "active",
      "experimental": false,
      "date": "2021-08-03T13:04:53+00:00",
      "publisher": "User ID: '922' User name: 'AndrewJ.Walford' User skill set: 'T4'",
      "lastReviewDate": "2021-08-03",
      "contact": [ {
        "telecom": [ {
          "system": "phone",
          "value": "07798501130"
        } ]
      } ],
      "subjectType": [ "Patient" ],
      "item": [ {
        "linkId": "1766749",
        "prefix": "2700",
        "text": "SocialConcernsExcluded",
        "type": "choice",
        "required": true,
        "repeats": false,
        "option": [ {
          "valueString": "==\"\"present\"\", Selected: false"
        }, {
          "valueString": "*, Selected: true"
        } ]
      } ]
    }
  }, {
    "fullUrl": "urn:uuid:ce1ecc1c-73a9-44cd-9061-5916e855d265",
    "resource": {
      "resourceType": "QuestionnaireResponse",
      "id": "ce1ecc1c-73a9-44cd-9061-5916e855d265",
      "identifier": {
        "value": "1766749"
      },
      "questionnaire": {
        "reference": "urn:uuid:97106727-b997-4ce6-84c6-c82eb08f4a05"
      },
      "status": "completed",
      "subject": {
        "reference": "urn:uuid:2ecb33e4-10fd-4763-8274-a88a9493e0fa"
      },
      "context": {
        "reference": "urn:uuid:72422c19-05e2-408c-85f0-f43249e4e260"
      },
      "authored": "2021-08-03T13:04:53+00:00",
      "item": [ {
        "linkId": "Tx130011",
        "text": "What is the main problem?",
        "answer": [ {
          "valueString": "illness or other health problem (specify)"
        } ]
      } ]
    }
  }, {
    "fullUrl": "urn:uuid:97106727-b997-4ce6-84c6-c82eb08f4a05",
    "resource": {
      "resourceType": "Questionnaire",
      "id": "97106727-b997-4ce6-84c6-c82eb08f4a05",
      "identifier": [ {
        "value": "1766749"
      } ],
      "version": "2021-08-03T13:04:53.000Z",
      "status": "active",
      "experimental": false,
      "date": "2021-08-03T13:04:53+00:00",
      "publisher": "User ID: '922' User name: 'AndrewJ.Walford' User skill set: 'T4'",
      "lastReviewDate": "2021-08-03",
      "contact": [ {
        "telecom": [ {
          "system": "phone",
          "value": "07798501130"
        } ]
      } ],
      "subjectType": [ "Patient" ],
      "item": [ {
        "linkId": "1766749",
        "prefix": "3400",
        "text": "What is the main problem?",
        "type": "choice",
        "required": true,
        "repeats": false,
        "option": [ {
          "valueString": "the individual has been told to follow a particular course of action (specify), Selected: false"
        }, {
          "valueString": "the individual is an identified frequent caller, Selected: false"
        }, {
          "valueString": "injury (specify), Selected: false"
        }, {
          "valueString": "illness or other health problem (specify), Selected: true"
        }, {
          "valueString": "child protection/vulnerable adult concern, Selected: false"
        }, {
          "valueString": "social or domestic emergency, Selected: false"
        }, {
          "valueString": "the environment potentially poses an immediate threat to life (specify), Selected: false"
        } ]
      } ]
    }
  }, {
    "fullUrl": "urn:uuid:c45f44c5-79b5-4d26-937f-0bfb9119eeb4",
    "resource": {
      "resourceType": "QuestionnaireResponse",
      "id": "c45f44c5-79b5-4d26-937f-0bfb9119eeb4",
      "identifier": {
        "value": "1766749"
      },
      "questionnaire": {
        "reference": "urn:uuid:a49bdf48-8af3-46bf-a2d9-450f50d9fc4e"
      },
      "status": "completed",
      "subject": {
        "reference": "urn:uuid:2ecb33e4-10fd-4763-8274-a88a9493e0fa"
      },
      "context": {
        "reference": "urn:uuid:72422c19-05e2-408c-85f0-f43249e4e260"
      },
      "authored": "2021-08-03T13:04:53+00:00",
      "item": [ {
        "linkId": "Tx61025",
        "text": "Are you so breathless that speaking more than a few words is impossible?",
        "answer": [ {
          "valueString": "no"
        } ]
      } ]
    }
  }, {
    "fullUrl": "urn:uuid:a49bdf48-8af3-46bf-a2d9-450f50d9fc4e",
    "resource": {
      "resourceType": "Questionnaire",
      "id": "a49bdf48-8af3-46bf-a2d9-450f50d9fc4e",
      "identifier": [ {
        "value": "1766749"
      } ],
      "version": "2021-08-03T13:04:53.000Z",
      "status": "active",
      "experimental": false,
      "date": "2021-08-03T13:04:53+00:00",
      "publisher": "User ID: '922' User name: 'AndrewJ.Walford' User skill set: 'T4'",
      "lastReviewDate": "2021-08-03",
      "contact": [ {
        "telecom": [ {
          "system": "phone",
          "value": "07798501130"
        } ]
      } ],
      "subjectType": [ "Patient" ],
      "item": [ {
        "linkId": "1766749",
        "prefix": "0",
        "text": "Are you so breathless that speaking more than a few words is impossible?",
        "type": "choice",
        "required": true,
        "repeats": false,
        "option": [ {
          "valueString": "yes, Selected: false"
        }, {
          "valueString": "not sure, Selected: false"
        }, {
          "valueString": "no, Selected: true"
        } ]
      } ]
    }
  }, {
    "fullUrl": "urn:uuid:b52a4c9d-1f05-4c35-983f-04aaeec42f23",
    "resource": {
      "resourceType": "QuestionnaireResponse",
      "id": "b52a4c9d-1f05-4c35-983f-04aaeec42f23",
      "identifier": {
        "value": "1766749"
      },
      "questionnaire": {
        "reference": "urn:uuid:bc3dc58a-fdf3-40fc-9f54-e4765e47892b"
      },
      "status": "completed",
      "subject": {
        "reference": "urn:uuid:2ecb33e4-10fd-4763-8274-a88a9493e0fa"
      },
      "context": {
        "reference": "urn:uuid:72422c19-05e2-408c-85f0-f43249e4e260"
      },
      "authored": "2021-08-03T13:04:53+00:00",
      "item": [ {
        "linkId": "Tx220845",
        "text": "SYSTEM_FLUPANDEMIC",
        "answer": [ {
          "valueString": "*"
        } ]
      } ]
    }
  }, {
    "fullUrl": "urn:uuid:bc3dc58a-fdf3-40fc-9f54-e4765e47892b",
    "resource": {
      "resourceType": "Questionnaire",
      "id": "bc3dc58a-fdf3-40fc-9f54-e4765e47892b",
      "identifier": [ {
        "value": "1766749"
      } ],
      "version": "2021-08-03T13:04:53.000Z",
      "status": "active",
      "experimental": false,
      "date": "2021-08-03T13:04:53+00:00",
      "publisher": "User ID: '922' User name: 'AndrewJ.Walford' User skill set: 'T4'",
      "lastReviewDate": "2021-08-03",
      "contact": [ {
        "telecom": [ {
          "system": "phone",
          "value": "07798501130"
        } ]
      } ],
      "subjectType": [ "Patient" ],
      "item": [ {
        "linkId": "1766749",
        "prefix": "100",
        "text": "SYSTEM_FLUPANDEMIC",
        "type": "choice",
        "required": true,
        "repeats": false,
        "option": [ {
          "valueString": "==\"\"pandemic\"\", Selected: false"
        }, {
          "valueString": "*, Selected: true"
        } ]
      } ]
    }
  }, {
    "fullUrl": "urn:uuid:d742d3be-390b-4376-bd1b-0295a74eaca9",
    "resource": {
      "resourceType": "QuestionnaireResponse",
      "id": "d742d3be-390b-4376-bd1b-0295a74eaca9",
      "identifier": {
        "value": "1766749"
      },
      "questionnaire": {
        "reference": "urn:uuid:dc275d47-5ef0-4793-9564-f9bdd81a4ded"
      },
      "status": "completed",
      "subject": {
        "reference": "urn:uuid:2ecb33e4-10fd-4763-8274-a88a9493e0fa"
      },
      "context": {
        "reference": "urn:uuid:72422c19-05e2-408c-85f0-f43249e4e260"
      },
      "authored": "2021-08-03T13:04:53+00:00",
      "item": [ {
        "linkId": "Tx223440",
        "text": "WHAT IS SAID TO BE THE MAIN REASON FOR THIS CONTACT?",
        "answer": [ {
          "valueString": "more"
        } ]
      } ]
    }
  }, {
    "fullUrl": "urn:uuid:dc275d47-5ef0-4793-9564-f9bdd81a4ded",
    "resource": {
      "resourceType": "Questionnaire",
      "id": "dc275d47-5ef0-4793-9564-f9bdd81a4ded",
      "identifier": [ {
        "value": "1766749"
      } ],
      "version": "2021-08-03T13:04:53.000Z",
      "status": "active",
      "experimental": false,
      "date": "2021-08-03T13:04:53+00:00",
      "publisher": "User ID: '922' User name: 'AndrewJ.Walford' User skill set: 'T4'",
      "lastReviewDate": "2021-08-03",
      "contact": [ {
        "telecom": [ {
          "system": "phone",
          "value": "07798501130"
        } ]
      } ],
      "subjectType": [ "Patient" ],
      "item": [ {
        "linkId": "1766749",
        "prefix": "5000",
        "text": "WHAT IS SAID TO BE THE MAIN REASON FOR THIS CONTACT?",
        "type": "choice",
        "required": true,
        "repeats": false,
        "option": [ {
          "valueString": "a probable allergic reaction now, Selected: false"
        }, {
          "valueString": "a probable heart attack, Selected: false"
        }, {
          "valueString": "chest or upper back pain, Selected: false"
        }, {
          "valueString": "a probable stroke or mini-stroke, Selected: false"
        }, {
          "valueString": "a probable fit or seizure within the last 12 hours, Selected: false"
        }, {
          "valueString": "a suicide attempt, Selected: false"
        }, {
          "valueString": "more, Selected: true"
        } ]
      } ]
    }
  }, {
    "fullUrl": "urn:uuid:2f91278a-7a85-4069-8d79-26432fc02f7d",
    "resource": {
      "resourceType": "QuestionnaireResponse",
      "id": "2f91278a-7a85-4069-8d79-26432fc02f7d",
      "identifier": {
        "value": "1766749"
      },
      "questionnaire": {
        "reference": "urn:uuid:92e421e9-7f8a-43c1-a57b-24f589b58fac"
      },
      "status": "completed",
      "subject": {
        "reference": "urn:uuid:2ecb33e4-10fd-4763-8274-a88a9493e0fa"
      },
      "context": {
        "reference": "urn:uuid:72422c19-05e2-408c-85f0-f43249e4e260"
      },
      "authored": "2021-08-03T13:04:53+00:00",
      "item": [ {
        "linkId": "Tx220032",
        "text": "WHAT IS SAID TO BE THE MAIN REASON FOR THIS CONTACT?",
        "answer": [ {
          "valueString": "none of the above"
        } ]
      } ]
    }
  }, {
    "fullUrl": "urn:uuid:92e421e9-7f8a-43c1-a57b-24f589b58fac",
    "resource": {
      "resourceType": "Questionnaire",
      "id": "92e421e9-7f8a-43c1-a57b-24f589b58fac",
      "identifier": [ {
        "value": "1766749"
      } ],
      "version": "2021-08-03T13:04:53.000Z",
      "status": "active",
      "experimental": false,
      "date": "2021-08-03T13:04:53+00:00",
      "publisher": "User ID: '922' User name: 'AndrewJ.Walford' User skill set: 'T4'",
      "lastReviewDate": "2021-08-03",
      "contact": [ {
        "telecom": [ {
          "system": "phone",
          "value": "07798501130"
        } ]
      } ],
      "subjectType": [ "Patient" ],
      "item": [ {
        "linkId": "1766749",
        "prefix": "1900",
        "text": "WHAT IS SAID TO BE THE MAIN REASON FOR THIS CONTACT?",
        "type": "choice",
        "required": true,
        "repeats": false,
        "option": [ {
          "valueString": "new confusion now, Selected: false"
        }, {
          "valueString": "a diabetic hypo (low blood sugar) or a diabetic hyper (high blood sugar), Selected: false"
        }, {
          "valueString": "recovery from an ICD (implanted cardioverter defibrillator) shock, Selected: false"
        }, {
          "valueString": "none of the above, Selected: true"
        } ]
      } ]
    }
  }, {
    "fullUrl": "urn:uuid:9f0e8f69-daea-46c3-91f3-b4997e346b73",
    "resource": {
      "resourceType": "QuestionnaireResponse",
      "id": "9f0e8f69-daea-46c3-91f3-b4997e346b73",
      "identifier": {
        "value": "1766749"
      },
      "questionnaire": {
        "reference": "urn:uuid:a8a0f671-929b-445f-ab0f-d455c5f191b5"
      },
      "status": "completed",
      "subject": {
        "reference": "urn:uuid:2ecb33e4-10fd-4763-8274-a88a9493e0fa"
      },
      "context": {
        "reference": "urn:uuid:72422c19-05e2-408c-85f0-f43249e4e260"
      },
      "authored": "2021-08-03T13:04:53+00:00",
      "item": [ {
        "linkId": "Tx223142",
        "text": "Does the skin on the chest, back or abdomen feel a normal temperature?",
        "answer": [ {
          "valueString": "yes - normal, warm or hot"
        } ]
      } ]
    }
  }, {
    "fullUrl": "urn:uuid:a8a0f671-929b-445f-ab0f-d455c5f191b5",
    "resource": {
      "resourceType": "Questionnaire",
      "id": "a8a0f671-929b-445f-ab0f-d455c5f191b5",
      "identifier": [ {
        "value": "1766749"
      } ],
      "version": "2021-08-03T13:04:53.000Z",
      "status": "active",
      "experimental": false,
      "date": "2021-08-03T13:04:53+00:00",
      "publisher": "User ID: '922' User name: 'AndrewJ.Walford' User skill set: 'T4'",
      "lastReviewDate": "2021-08-03",
      "contact": [ {
        "telecom": [ {
          "system": "phone",
          "value": "07798501130"
        } ]
      } ],
      "subjectType": [ "Patient" ],
      "item": [ {
        "linkId": "1766749",
        "prefix": "4000",
        "text": "Does the skin on the chest, back or abdomen feel a normal temperature?",
        "type": "choice",
        "required": true,
        "repeats": false,
        "option": [ {
          "valueString": "yes - normal, warm or hot, Selected: true"
        }, {
          "valueString": "not sure, Selected: false"
        }, {
          "valueString": "no - cool OR cold, Selected: false"
        }, {
          "valueString": "not safe to touch, Selected: false"
        } ]
      } ]
    }
  }, {
    "fullUrl": "urn:uuid:46ac73bf-2b49-4b68-93fd-3bfd5571c4ff",
    "resource": {
      "resourceType": "QuestionnaireResponse",
      "id": "46ac73bf-2b49-4b68-93fd-3bfd5571c4ff",
      "identifier": {
        "value": "1766749"
      },
      "questionnaire": {
        "reference": "urn:uuid:e858ff4d-da50-412e-8a10-c6b697ea1dc3"
      },
      "status": "completed",
      "subject": {
        "reference": "urn:uuid:2ecb33e4-10fd-4763-8274-a88a9493e0fa"
      },
      "context": {
        "reference": "urn:uuid:72422c19-05e2-408c-85f0-f43249e4e260"
      },
      "authored": "2021-08-03T13:04:53+00:00",
      "item": [ {
        "linkId": "Tx221724",
        "text": "STRING:ShockAsked",
        "answer": [ {
          "valueString": "\"\"present\"\""
        } ]
      } ]
    }
  }, {
    "fullUrl": "urn:uuid:e858ff4d-da50-412e-8a10-c6b697ea1dc3",
    "resource": {
      "resourceType": "Questionnaire",
      "id": "e858ff4d-da50-412e-8a10-c6b697ea1dc3",
      "identifier": [ {
        "value": "1766749"
      } ],
      "version": "2021-08-03T13:04:53.000Z",
      "status": "active",
      "experimental": false,
      "date": "2021-08-03T13:04:53+00:00",
      "publisher": "User ID: '922' User name: 'AndrewJ.Walford' User skill set: 'T4'",
      "lastReviewDate": "2021-08-03",
      "contact": [ {
        "telecom": [ {
          "system": "phone",
          "value": "07798501130"
        } ]
      } ],
      "subjectType": [ "Patient" ],
      "item": [ {
        "linkId": "1766749",
        "prefix": "3300",
        "text": "STRING:ShockAsked",
        "type": "choice",
        "required": true,
        "repeats": false,
        "option": [ {
          "valueString": "\"\"present\"\", Selected: true"
        } ]
      } ]
    }
  }, {
    "fullUrl": "urn:uuid:b90f7803-9031-4006-ac96-b76adebc0ea1",
    "resource": {
      "resourceType": "QuestionnaireResponse",
      "id": "b90f7803-9031-4006-ac96-b76adebc0ea1",
      "identifier": {
        "value": "1766749"
      },
      "questionnaire": {
        "reference": "urn:uuid:1132be48-cf07-4c6e-8230-8d4c40534403"
      },
      "status": "completed",
      "subject": {
        "reference": "urn:uuid:2ecb33e4-10fd-4763-8274-a88a9493e0fa"
      },
      "context": {
        "reference": "urn:uuid:72422c19-05e2-408c-85f0-f43249e4e260"
      },
      "authored": "2021-08-03T13:04:53+00:00"
    }
  }, {
    "fullUrl": "urn:uuid:1132be48-cf07-4c6e-8230-8d4c40534403",
    "resource": {
      "resourceType": "Questionnaire",
      "id": "1132be48-cf07-4c6e-8230-8d4c40534403",
      "identifier": [ {
        "value": "1766749"
      } ],
      "version": "2021-08-03T13:04:53.000Z",
      "status": "active",
      "experimental": false,
      "date": "2021-08-03T13:04:53+00:00",
      "publisher": "User ID: '922' User name: 'AndrewJ.Walford' User skill set: 'T4'",
      "lastReviewDate": "2021-08-03",
      "contact": [ {
        "telecom": [ {
          "system": "phone",
          "value": "07798501130"
        } ]
      } ],
      "subjectType": [ "Patient" ]
    }
  }, {
    "fullUrl": "urn:uuid:bd9fb550-5ed3-40b9-aeed-2c740ef98975",
    "resource": {
      "resourceType": "QuestionnaireResponse",
      "id": "bd9fb550-5ed3-40b9-aeed-2c740ef98975",
      "identifier": {
        "value": "1766749"
      },
      "questionnaire": {
        "reference": "urn:uuid:b8069a19-418d-47c1-8e3c-4846bf85c200"
      },
      "status": "completed",
      "subject": {
        "reference": "urn:uuid:2ecb33e4-10fd-4763-8274-a88a9493e0fa"
      },
      "context": {
        "reference": "urn:uuid:72422c19-05e2-408c-85f0-f43249e4e260"
      },
      "authored": "2021-08-03T13:04:53+00:00"
    }
  }, {
    "fullUrl": "urn:uuid:b8069a19-418d-47c1-8e3c-4846bf85c200",
    "resource": {
      "resourceType": "Questionnaire",
      "id": "b8069a19-418d-47c1-8e3c-4846bf85c200",
      "identifier": [ {
        "value": "1766749"
      } ],
      "version": "2021-08-03T13:04:53.000Z",
      "status": "active",
      "experimental": false,
      "date": "2021-08-03T13:04:53+00:00",
      "publisher": "User ID: '922' User name: 'AndrewJ.Walford' User skill set: 'T4'",
      "lastReviewDate": "2021-08-03",
      "contact": [ {
        "telecom": [ {
          "system": "phone",
          "value": "07798501130"
        } ]
      } ],
      "subjectType": [ "Patient" ]
    }
  }, {
    "fullUrl": "urn:uuid:772384bb-7a66-4b1e-83d0-b6116fc440f2",
    "resource": {
      "resourceType": "QuestionnaireResponse",
      "id": "772384bb-7a66-4b1e-83d0-b6116fc440f2",
      "identifier": {
        "value": "1766749"
      },
      "questionnaire": {
        "reference": "urn:uuid:e4d79bfe-d78a-4c66-ba93-b3d97a8eac0f"
      },
      "status": "completed",
      "subject": {
        "reference": "urn:uuid:2ecb33e4-10fd-4763-8274-a88a9493e0fa"
      },
      "context": {
        "reference": "urn:uuid:72422c19-05e2-408c-85f0-f43249e4e260"
      },
      "authored": "2021-08-03T13:04:53+00:00",
      "item": [ {
        "linkId": "Tx224190",
        "text": "Does the problem stop you from doing ALL of your normal activities?",
        "answer": [ {
          "valueString": "no - able to do most or all of their activities"
        } ]
      } ]
    }
  }, {
    "fullUrl": "urn:uuid:e4d79bfe-d78a-4c66-ba93-b3d97a8eac0f",
    "resource": {
      "resourceType": "Questionnaire",
      "id": "e4d79bfe-d78a-4c66-ba93-b3d97a8eac0f",
      "identifier": [ {
        "value": "1766749"
      } ],
      "version": "2021-08-03T13:04:53.000Z",
      "status": "active",
      "experimental": false,
      "date": "2021-08-03T13:04:53+00:00",
      "publisher": "User ID: '922' User name: 'AndrewJ.Walford' User skill set: 'T4'",
      "lastReviewDate": "2021-08-03",
      "contact": [ {
        "telecom": [ {
          "system": "phone",
          "value": "07798501130"
        } ]
      } ],
      "subjectType": [ "Patient" ],
      "item": [ {
        "linkId": "1766749",
        "prefix": "4900",
        "text": "Does the problem stop you from doing ALL of your normal activities?",
        "type": "choice",
        "required": true,
        "repeats": false,
        "option": [ {
          "valueString": "yes - unable to do all of their normal activities, Selected: false"
        }, {
          "valueString": "no - able to do some of their normal activities, Selected: false"
        }, {
          "valueString": "no - able to do most or all of their activities, Selected: true"
        } ]
      } ]
    }
  }, {
    "fullUrl": "urn:uuid:81b05dbd-f4f6-409d-a179-8aa87eed2a65",
    "resource": {
      "resourceType": "QuestionnaireResponse",
      "id": "81b05dbd-f4f6-409d-a179-8aa87eed2a65",
      "identifier": {
        "value": "1766749"
      },
      "questionnaire": {
        "reference": "urn:uuid:3d915919-ab9d-49d9-8f50-fbbb223e1d45"
      },
      "status": "completed",
      "subject": {
        "reference": "urn:uuid:2ecb33e4-10fd-4763-8274-a88a9493e0fa"
      },
      "context": {
        "reference": "urn:uuid:72422c19-05e2-408c-85f0-f43249e4e260"
      },
      "authored": "2021-08-03T13:04:53+00:00",
      "item": [ {
        "linkId": "Tx220244",
        "text": "Have you got any of the following new symptoms?",
        "answer": [ {
          "valueString": "no"
        } ]
      } ]
    }
  }, {
    "fullUrl": "urn:uuid:3d915919-ab9d-49d9-8f50-fbbb223e1d45",
    "resource": {
      "resourceType": "Questionnaire",
      "id": "3d915919-ab9d-49d9-8f50-fbbb223e1d45",
      "identifier": [ {
        "value": "1766749"
      } ],
      "version": "2021-08-03T13:04:53.000Z",
      "status": "active",
      "experimental": false,
      "date": "2021-08-03T13:04:53+00:00",
      "publisher": "User ID: '922' User name: 'AndrewJ.Walford' User skill set: 'T4'",
      "lastReviewDate": "2021-08-03",
      "contact": [ {
        "telecom": [ {
          "system": "phone",
          "value": "07798501130"
        } ]
      } ],
      "subjectType": [ "Patient" ],
      "item": [ {
        "linkId": "1766749",
        "prefix": "17",
        "text": "Have you got any of the following new symptoms?",
        "type": "choice",
        "required": true,
        "repeats": false,
        "option": [ {
          "valueString": "unable to control the bowels, Selected: false"
        }, {
          "valueString": "unable to move one or both legs, Selected: false"
        }, {
          "valueString": "numbness or pins and needles in both legs or around the back passage, Selected: false"
        }, {
          "valueString": "not sure, Selected: false"
        }, {
          "valueString": "no, Selected: true"
        } ]
      } ]
    }
  }, {
    "fullUrl": "urn:uuid:7cdcd72e-91f9-42f6-9d32-b1fa4c8a86c9",
    "resource": {
      "resourceType": "QuestionnaireResponse",
      "id": "7cdcd72e-91f9-42f6-9d32-b1fa4c8a86c9",
      "identifier": {
        "value": "1766749"
      },
      "questionnaire": {
        "reference": "urn:uuid:72a37520-5e46-4f6d-ac89-bc4b4a2ff846"
      },
      "status": "completed",
      "subject": {
        "reference": "urn:uuid:2ecb33e4-10fd-4763-8274-a88a9493e0fa"
      },
      "context": {
        "reference": "urn:uuid:72422c19-05e2-408c-85f0-f43249e4e260"
      },
      "authored": "2021-08-03T13:04:53+00:00",
      "item": [ {
        "linkId": "Tx221119",
        "text": "FunctionallyImpaired",
        "answer": [ {
          "valueString": "*"
        } ]
      } ]
    }
  }, {
    "fullUrl": "urn:uuid:72a37520-5e46-4f6d-ac89-bc4b4a2ff846",
    "resource": {
      "resourceType": "Questionnaire",
      "id": "72a37520-5e46-4f6d-ac89-bc4b4a2ff846",
      "identifier": [ {
        "value": "1766749"
      } ],
      "version": "2021-08-03T13:04:53.000Z",
      "status": "active",
      "experimental": false,
      "date": "2021-08-03T13:04:53+00:00",
      "publisher": "User ID: '922' User name: 'AndrewJ.Walford' User skill set: 'T4'",
      "lastReviewDate": "2021-08-03",
      "contact": [ {
        "telecom": [ {
          "system": "phone",
          "value": "07798501130"
        } ]
      } ],
      "subjectType": [ "Patient" ],
      "item": [ {
        "linkId": "1766749",
        "prefix": "5400",
        "text": "FunctionallyImpaired",
        "type": "choice",
        "required": true,
        "repeats": false,
        "option": [ {
          "valueString": "==\"\"present\"\", Selected: false"
        }, {
          "valueString": "*, Selected: true"
        } ]
      } ]
    }
  }, {
    "fullUrl": "urn:uuid:d4db2202-89ec-4aa8-bdcb-dcc72ddf734b",
    "resource": {
      "resourceType": "QuestionnaireResponse",
      "id": "d4db2202-89ec-4aa8-bdcb-dcc72ddf734b",
      "identifier": {
        "value": "1766749"
      },
      "questionnaire": {
        "reference": "urn:uuid:9c1b6766-a0ed-451b-9adb-bbfcfcca11a4"
      },
      "status": "completed",
      "subject": {
        "reference": "urn:uuid:2ecb33e4-10fd-4763-8274-a88a9493e0fa"
      },
      "context": {
        "reference": "urn:uuid:72422c19-05e2-408c-85f0-f43249e4e260"
      },
      "authored": "2021-08-03T13:04:53+00:00",
      "item": [ {
        "linkId": "Tx221639",
        "text": "Have you been unable to pass urine for the last 12 hours, except for a few drops?",
        "answer": [ {
          "valueString": "no (ABLE TO pass urine)"
        } ]
      } ]
    }
  }, {
    "fullUrl": "urn:uuid:9c1b6766-a0ed-451b-9adb-bbfcfcca11a4",
    "resource": {
      "resourceType": "Questionnaire",
      "id": "9c1b6766-a0ed-451b-9adb-bbfcfcca11a4",
      "identifier": [ {
        "value": "1766749"
      } ],
      "version": "2021-08-03T13:04:53.000Z",
      "status": "active",
      "experimental": false,
      "date": "2021-08-03T13:04:53+00:00",
      "publisher": "User ID: '922' User name: 'AndrewJ.Walford' User skill set: 'T4'",
      "lastReviewDate": "2021-08-03",
      "contact": [ {
        "telecom": [ {
          "system": "phone",
          "value": "07798501130"
        } ]
      } ],
      "subjectType": [ "Patient" ],
      "item": [ {
        "linkId": "1766749",
        "prefix": "6100",
        "text": "Have you been unable to pass urine for the last 12 hours, except for a few drops?",
        "type": "choice",
        "required": true,
        "repeats": false,
        "option": [ {
          "valueString": "yes (UNABLE TO pass urine), Selected: false"
        }, {
          "valueString": "not sure, Selected: false"
        }, {
          "valueString": "no (ABLE TO pass urine), Selected: true"
        } ]
      } ]
    }
  }, {
    "fullUrl": "urn:uuid:083f43ad-4638-4d6e-83ed-7e9f8e12248b",
    "resource": {
      "resourceType": "QuestionnaireResponse",
      "id": "083f43ad-4638-4d6e-83ed-7e9f8e12248b",
      "identifier": {
        "value": "1766749"
      },
      "questionnaire": {
        "reference": "urn:uuid:b16111f9-e7b2-4ec5-a530-e1ed305b8842"
      },
      "status": "completed",
      "subject": {
        "reference": "urn:uuid:2ecb33e4-10fd-4763-8274-a88a9493e0fa"
      },
      "context": {
        "reference": "urn:uuid:72422c19-05e2-408c-85f0-f43249e4e260"
      },
      "authored": "2021-08-03T13:04:53+00:00",
      "item": [ {
        "linkId": "Tx221119",
        "text": "FunctionallyImpaired",
        "answer": [ {
          "valueString": "*"
        } ]
      } ]
    }
  }, {
    "fullUrl": "urn:uuid:b16111f9-e7b2-4ec5-a530-e1ed305b8842",
    "resource": {
      "resourceType": "Questionnaire",
      "id": "b16111f9-e7b2-4ec5-a530-e1ed305b8842",
      "identifier": [ {
        "value": "1766749"
      } ],
      "version": "2021-08-03T13:04:53.000Z",
      "status": "active",
      "experimental": false,
      "date": "2021-08-03T13:04:53+00:00",
      "publisher": "User ID: '922' User name: 'AndrewJ.Walford' User skill set: 'T4'",
      "lastReviewDate": "2021-08-03",
      "contact": [ {
        "telecom": [ {
          "system": "phone",
          "value": "07798501130"
        } ]
      } ],
      "subjectType": [ "Patient" ],
      "item": [ {
        "linkId": "1766749",
        "prefix": "7200",
        "text": "FunctionallyImpaired",
        "type": "choice",
        "required": true,
        "repeats": false,
        "option": [ {
          "valueString": "==\"\"present\"\", Selected: false"
        }, {
          "valueString": "*, Selected: true"
        } ]
      } ]
    }
  }, {
    "fullUrl": "urn:uuid:dd4a4848-265b-45f3-bf24-e737adb60e2a",
    "resource": {
      "resourceType": "QuestionnaireResponse",
      "id": "dd4a4848-265b-45f3-bf24-e737adb60e2a",
      "identifier": {
        "value": "1766749"
      },
      "questionnaire": {
        "reference": "urn:uuid:9bb77364-36bc-4b9e-ba20-f99bbab62d7b"
      },
      "status": "completed",
      "subject": {
        "reference": "urn:uuid:2ecb33e4-10fd-4763-8274-a88a9493e0fa"
      },
      "context": {
        "reference": "urn:uuid:72422c19-05e2-408c-85f0-f43249e4e260"
      },
      "authored": "2021-08-03T13:04:53+00:00",
      "item": [ {
        "linkId": "Tx223485",
        "text": "ConfusionDeclared",
        "answer": [ {
          "valueString": "*"
        } ]
      } ]
    }
  }, {
    "fullUrl": "urn:uuid:9bb77364-36bc-4b9e-ba20-f99bbab62d7b",
    "resource": {
      "resourceType": "Questionnaire",
      "id": "9bb77364-36bc-4b9e-ba20-f99bbab62d7b",
      "identifier": [ {
        "value": "1766749"
      } ],
      "version": "2021-08-03T13:04:53.000Z",
      "status": "active",
      "experimental": false,
      "date": "2021-08-03T13:04:53+00:00",
      "publisher": "User ID: '922' User name: 'AndrewJ.Walford' User skill set: 'T4'",
      "lastReviewDate": "2021-08-03",
      "contact": [ {
        "telecom": [ {
          "system": "phone",
          "value": "07798501130"
        } ]
      } ],
      "subjectType": [ "Patient" ],
      "item": [ {
        "linkId": "1766749",
        "prefix": "2900",
        "text": "ConfusionDeclared",
        "type": "choice",
        "required": true,
        "repeats": false,
        "option": [ {
          "valueString": "==\"\"present\"\", Selected: false"
        }, {
          "valueString": "*, Selected: true"
        } ]
      } ]
    }
  }, {
    "fullUrl": "urn:uuid:f672714a-1c50-40ce-a924-967d35881b2e",
    "resource": {
      "resourceType": "QuestionnaireResponse",
      "id": "f672714a-1c50-40ce-a924-967d35881b2e",
      "identifier": {
        "value": "1766749"
      },
      "questionnaire": {
        "reference": "urn:uuid:83f4c279-5c39-484e-b775-48b4c9bc8a7b"
      },
      "status": "completed",
      "subject": {
        "reference": "urn:uuid:2ecb33e4-10fd-4763-8274-a88a9493e0fa"
      },
      "context": {
        "reference": "urn:uuid:72422c19-05e2-408c-85f0-f43249e4e260"
      },
      "authored": "2021-08-03T13:04:53+00:00",
      "item": [ {
        "linkId": "Tx1213",
        "text": "Have you suddenly become confused OR more confused than usual?",
        "answer": [ {
          "valueString": "no"
        } ]
      } ]
    }
  }, {
    "fullUrl": "urn:uuid:83f4c279-5c39-484e-b775-48b4c9bc8a7b",
    "resource": {
      "resourceType": "Questionnaire",
      "id": "83f4c279-5c39-484e-b775-48b4c9bc8a7b",
      "identifier": [ {
        "value": "1766749"
      } ],
      "version": "2021-08-03T13:04:53.000Z",
      "status": "active",
      "experimental": false,
      "date": "2021-08-03T13:04:53+00:00",
      "publisher": "User ID: '922' User name: 'AndrewJ.Walford' User skill set: 'T4'",
      "lastReviewDate": "2021-08-03",
      "contact": [ {
        "telecom": [ {
          "system": "phone",
          "value": "07798501130"
        } ]
      } ],
      "subjectType": [ "Patient" ],
      "item": [ {
        "linkId": "1766749",
        "prefix": "7700",
        "text": "Have you suddenly become confused OR more confused than usual?",
        "type": "choice",
        "required": true,
        "repeats": false,
        "option": [ {
          "valueString": "yes, Selected: false"
        }, {
          "valueString": "not sure, Selected: false"
        }, {
          "valueString": "no, Selected: true"
        } ]
      } ]
    }
  }, {
    "fullUrl": "urn:uuid:314e7c72-5b1b-4a1d-b11b-a912f5742e30",
    "resource": {
      "resourceType": "QuestionnaireResponse",
      "id": "314e7c72-5b1b-4a1d-b11b-a912f5742e30",
      "identifier": {
        "value": "1766749"
      },
      "questionnaire": {
        "reference": "urn:uuid:57a52213-8c33-4588-afe4-366a2947cacb"
      },
      "status": "completed",
      "subject": {
        "reference": "urn:uuid:2ecb33e4-10fd-4763-8274-a88a9493e0fa"
      },
      "context": {
        "reference": "urn:uuid:72422c19-05e2-408c-85f0-f43249e4e260"
      },
      "authored": "2021-08-03T13:04:53+00:00",
      "item": [ {
        "linkId": "Tx220164",
        "text": "Are you breathing faster or harder when doing nothing at all?",
        "answer": [ {
          "valueString": "no"
        } ]
      } ]
    }
  }, {
    "fullUrl": "urn:uuid:57a52213-8c33-4588-afe4-366a2947cacb",
    "resource": {
      "resourceType": "Questionnaire",
      "id": "57a52213-8c33-4588-afe4-366a2947cacb",
      "identifier": [ {
        "value": "1766749"
      } ],
      "version": "2021-08-03T13:04:53.000Z",
      "status": "active",
      "experimental": false,
      "date": "2021-08-03T13:04:53+00:00",
      "publisher": "User ID: '922' User name: 'AndrewJ.Walford' User skill set: 'T4'",
      "lastReviewDate": "2021-08-03",
      "contact": [ {
        "telecom": [ {
          "system": "phone",
          "value": "07798501130"
        } ]
      } ],
      "subjectType": [ "Patient" ],
      "item": [ {
        "linkId": "1766749",
        "prefix": "3400",
        "text": "Are you breathing faster or harder when doing nothing at all?",
        "type": "choice",
        "required": true,
        "repeats": false,
        "option": [ {
          "valueString": "yes, Selected: false"
        }, {
          "valueString": "not sure, Selected: false"
        }, {
          "valueString": "no, Selected: true"
        } ]
      } ]
    }
  }, {
    "fullUrl": "urn:uuid:a2584a4d-04d3-4fdb-a7b6-19e1a0c25d27",
    "resource": {
      "resourceType": "QuestionnaireResponse",
      "id": "a2584a4d-04d3-4fdb-a7b6-19e1a0c25d27",
      "identifier": {
        "value": "1766749"
      },
      "questionnaire": {
        "reference": "urn:uuid:93b2d858-ad5b-4dbe-b796-ab178a69151b"
      },
      "status": "completed",
      "subject": {
        "reference": "urn:uuid:2ecb33e4-10fd-4763-8274-a88a9493e0fa"
      },
      "context": {
        "reference": "urn:uuid:72422c19-05e2-408c-85f0-f43249e4e260"
      },
      "authored": "2021-08-03T13:04:53+00:00",
      "item": [ {
        "linkId": "Tx224506",
        "text": "UnableToPassUrine",
        "answer": [ {
          "valueString": "*"
        } ]
      } ]
    }
  }, {
    "fullUrl": "urn:uuid:93b2d858-ad5b-4dbe-b796-ab178a69151b",
    "resource": {
      "resourceType": "Questionnaire",
      "id": "93b2d858-ad5b-4dbe-b796-ab178a69151b",
      "identifier": [ {
        "value": "1766749"
      } ],
      "version": "2021-08-03T13:04:53.000Z",
      "status": "active",
      "experimental": false,
      "date": "2021-08-03T13:04:53+00:00",
      "publisher": "User ID: '922' User name: 'AndrewJ.Walford' User skill set: 'T4'",
      "lastReviewDate": "2021-08-03",
      "contact": [ {
        "telecom": [ {
          "system": "phone",
          "value": "07798501130"
        } ]
      } ],
      "subjectType": [ "Patient" ],
      "item": [ {
        "linkId": "1766749",
        "prefix": "8300",
        "text": "UnableToPassUrine",
        "type": "choice",
        "required": true,
        "repeats": false,
        "option": [ {
          "valueString": "==\"\"present\"\", Selected: false"
        }, {
          "valueString": "*, Selected: true"
        } ]
      } ]
    }
  }, {
    "fullUrl": "urn:uuid:ebbf1601-3309-4826-8e99-8293c1cadf57",
    "resource": {
      "resourceType": "QuestionnaireResponse",
      "id": "ebbf1601-3309-4826-8e99-8293c1cadf57",
      "identifier": {
        "value": "1766749"
      },
      "questionnaire": {
        "reference": "urn:uuid:4005081f-ebf9-46d0-98f0-5acf9202fce6"
      },
      "status": "completed",
      "subject": {
        "reference": "urn:uuid:2ecb33e4-10fd-4763-8274-a88a9493e0fa"
      },
      "context": {
        "reference": "urn:uuid:72422c19-05e2-408c-85f0-f43249e4e260"
      },
      "authored": "2021-08-03T13:04:53+00:00",
      "item": [ {
        "linkId": "Tx222078",
        "text": "Have you got pain in the spine?",
        "answer": [ {
          "valueString": "no"
        } ]
      } ]
    }
  }, {
    "fullUrl": "urn:uuid:4005081f-ebf9-46d0-98f0-5acf9202fce6",
    "resource": {
      "resourceType": "Questionnaire",
      "id": "4005081f-ebf9-46d0-98f0-5acf9202fce6",
      "identifier": [ {
        "value": "1766749"
      } ],
      "version": "2021-08-03T13:04:53.000Z",
      "status": "active",
      "experimental": false,
      "date": "2021-08-03T13:04:53+00:00",
      "publisher": "User ID: '922' User name: 'AndrewJ.Walford' User skill set: 'T4'",
      "lastReviewDate": "2021-08-03",
      "contact": [ {
        "telecom": [ {
          "system": "phone",
          "value": "07798501130"
        } ]
      } ],
      "subjectType": [ "Patient" ],
      "item": [ {
        "linkId": "1766749",
        "prefix": "400",
        "text": "Have you got pain in the spine?",
        "type": "choice",
        "required": true,
        "repeats": false,
        "option": [ {
          "valueString": "yes, Selected: false"
        }, {
          "valueString": "not sure, Selected: false"
        }, {
          "valueString": "no, Selected: true"
        } ]
      } ]
    }
  }, {
    "fullUrl": "urn:uuid:d8fe1ac1-5f11-41bb-bc1a-8a26bb57cdec",
    "resource": {
      "resourceType": "QuestionnaireResponse",
      "id": "d8fe1ac1-5f11-41bb-bc1a-8a26bb57cdec",
      "identifier": {
        "value": "1766749"
      },
      "questionnaire": {
        "reference": "urn:uuid:c9cc238b-bff0-48a3-854c-b9f92ca3dbb8"
      },
      "status": "completed",
      "subject": {
        "reference": "urn:uuid:2ecb33e4-10fd-4763-8274-a88a9493e0fa"
      },
      "context": {
        "reference": "urn:uuid:72422c19-05e2-408c-85f0-f43249e4e260"
      },
      "authored": "2021-08-03T13:04:53+00:00",
      "item": [ {
        "linkId": "Tx220168",
        "text": "Have you got pain that is getting worse?",
        "answer": [ {
          "valueString": "no"
        } ]
      } ]
    }
  }, {
    "fullUrl": "urn:uuid:c9cc238b-bff0-48a3-854c-b9f92ca3dbb8",
    "resource": {
      "resourceType": "Questionnaire",
      "id": "c9cc238b-bff0-48a3-854c-b9f92ca3dbb8",
      "identifier": [ {
        "value": "1766749"
      } ],
      "version": "2021-08-03T13:04:53.000Z",
      "status": "active",
      "experimental": false,
      "date": "2021-08-03T13:04:53+00:00",
      "publisher": "User ID: '922' User name: 'AndrewJ.Walford' User skill set: 'T4'",
      "lastReviewDate": "2021-08-03",
      "contact": [ {
        "telecom": [ {
          "system": "phone",
          "value": "07798501130"
        } ]
      } ],
      "subjectType": [ "Patient" ],
      "item": [ {
        "linkId": "1766749",
        "prefix": "300",
        "text": "Have you got pain that is getting worse?",
        "type": "choice",
        "required": true,
        "repeats": false,
        "option": [ {
          "valueString": "yes, Selected: false"
        }, {
          "valueString": "not sure, Selected: false"
        }, {
          "valueString": "no, Selected: true"
        } ]
      } ]
    }
  }, {
    "fullUrl": "urn:uuid:e7c8ed0d-522a-451b-9dad-f2b4e79a5223",
    "resource": {
      "resourceType": "QuestionnaireResponse",
      "id": "e7c8ed0d-522a-451b-9dad-f2b4e79a5223",
      "identifier": {
        "value": "1766749"
      },
      "questionnaire": {
        "reference": "urn:uuid:9e3ada2a-4858-4839-bd53-379bbac706a7"
      },
      "status": "completed",
      "subject": {
        "reference": "urn:uuid:2ecb33e4-10fd-4763-8274-a88a9493e0fa"
      },
      "context": {
        "reference": "urn:uuid:72422c19-05e2-408c-85f0-f43249e4e260"
      },
      "authored": "2021-08-03T13:04:53+00:00",
      "item": [ {
        "linkId": "Tx1122",
        "text": "Have you felt hot or feverish at any time in the last 12 hours?",
        "answer": [ {
          "valueString": "no"
        } ]
      } ]
    }
  }, {
    "fullUrl": "urn:uuid:9e3ada2a-4858-4839-bd53-379bbac706a7",
    "resource": {
      "resourceType": "Questionnaire",
      "id": "9e3ada2a-4858-4839-bd53-379bbac706a7",
      "identifier": [ {
        "value": "1766749"
      } ],
      "version": "2021-08-03T13:04:53.000Z",
      "status": "active",
      "experimental": false,
      "date": "2021-08-03T13:04:53+00:00",
      "publisher": "User ID: '922' User name: 'AndrewJ.Walford' User skill set: 'T4'",
      "lastReviewDate": "2021-08-03",
      "contact": [ {
        "telecom": [ {
          "system": "phone",
          "value": "07798501130"
        } ]
      } ],
      "subjectType": [ "Patient" ],
      "item": [ {
        "linkId": "1766749",
        "prefix": "500",
        "text": "Have you felt hot or feverish at any time in the last 12 hours?",
        "type": "choice",
        "required": true,
        "repeats": false,
        "option": [ {
          "valueString": "yes - temperature not taken, Selected: false"
        }, {
          "valueString": "yes - temperature taken (specify), Selected: false"
        }, {
          "valueString": "not sure, Selected: false"
        }, {
          "valueString": "no, Selected: true"
        } ]
      } ]
    }
  }, {
    "fullUrl": "urn:uuid:8e8b4e47-db51-4a54-afc6-d0600a08b1fd",
    "resource": {
      "resourceType": "QuestionnaireResponse",
      "id": "8e8b4e47-db51-4a54-afc6-d0600a08b1fd",
      "identifier": {
        "value": "1766749"
      },
      "questionnaire": {
        "reference": "urn:uuid:3e0be563-c536-490d-9977-bebf5d3166df"
      },
      "status": "completed",
      "subject": {
        "reference": "urn:uuid:2ecb33e4-10fd-4763-8274-a88a9493e0fa"
      },
      "context": {
        "reference": "urn:uuid:72422c19-05e2-408c-85f0-f43249e4e260"
      },
      "authored": "2021-08-03T13:04:53+00:00",
      "item": [ {
        "linkId": "Tx1233",
        "text": "Have you had a back injury IN THE LAST 4 WEEKS?",
        "answer": [ {
          "valueString": "no"
        } ]
      } ]
    }
  }, {
    "fullUrl": "urn:uuid:3e0be563-c536-490d-9977-bebf5d3166df",
    "resource": {
      "resourceType": "Questionnaire",
      "id": "3e0be563-c536-490d-9977-bebf5d3166df",
      "identifier": [ {
        "value": "1766749"
      } ],
      "version": "2021-08-03T13:04:53.000Z",
      "status": "active",
      "experimental": false,
      "date": "2021-08-03T13:04:53+00:00",
      "publisher": "User ID: '922' User name: 'AndrewJ.Walford' User skill set: 'T4'",
      "lastReviewDate": "2021-08-03",
      "contact": [ {
        "telecom": [ {
          "system": "phone",
          "value": "07798501130"
        } ]
      } ],
      "subjectType": [ "Patient" ],
      "item": [ {
        "linkId": "1766749",
        "prefix": "900",
        "text": "Have you had a back injury IN THE LAST 4 WEEKS?",
        "type": "choice",
        "required": true,
        "repeats": false,
        "option": [ {
          "valueString": "yes, Selected: false"
        }, {
          "valueString": "not sure, Selected: false"
        }, {
          "valueString": "no, Selected: true"
        } ]
      } ]
    }
  }, {
    "fullUrl": "urn:uuid:25c99b3a-c4db-40bb-94be-5ca0a5811e28",
    "resource": {
      "resourceType": "QuestionnaireResponse",
      "id": "25c99b3a-c4db-40bb-94be-5ca0a5811e28",
      "identifier": {
        "value": "1766749"
      },
      "questionnaire": {
        "reference": "urn:uuid:916a9c97-28b4-455d-ac27-629d3605b107"
      },
      "status": "completed",
      "subject": {
        "reference": "urn:uuid:2ecb33e4-10fd-4763-8274-a88a9493e0fa"
      },
      "context": {
        "reference": "urn:uuid:72422c19-05e2-408c-85f0-f43249e4e260"
      },
      "authored": "2021-08-03T13:04:53+00:00",
      "item": [ {
        "linkId": "Tx2947",
        "text": "Have you had any change of medication IN THE LAST 2 WEEKS?",
        "answer": [ {
          "valueString": "no"
        } ]
      } ]
    }
  }, {
    "fullUrl": "urn:uuid:916a9c97-28b4-455d-ac27-629d3605b107",
    "resource": {
      "resourceType": "Questionnaire",
      "id": "916a9c97-28b4-455d-ac27-629d3605b107",
      "identifier": [ {
        "value": "1766749"
      } ],
      "version": "2021-08-03T13:04:53.000Z",
      "status": "active",
      "experimental": false,
      "date": "2021-08-03T13:04:53+00:00",
      "publisher": "User ID: '922' User name: 'AndrewJ.Walford' User skill set: 'T4'",
      "lastReviewDate": "2021-08-03",
      "contact": [ {
        "telecom": [ {
          "system": "phone",
          "value": "07798501130"
        } ]
      } ],
      "subjectType": [ "Patient" ],
      "item": [ {
        "linkId": "1766749",
        "prefix": "1000",
        "text": "Have you had any change of medication IN THE LAST 2 WEEKS?",
        "type": "choice",
        "required": true,
        "repeats": false,
        "option": [ {
          "valueString": "started new medication, Selected: false"
        }, {
          "valueString": "changed the dose of medication, Selected: false"
        }, {
          "valueString": "stopped medication, Selected: false"
        }, {
          "valueString": "not sure, Selected: false"
        }, {
          "valueString": "no, Selected: true"
        } ]
      } ]
    }
  }, {
    "fullUrl": "urn:uuid:c76ca79e-db59-4a4f-be4c-1e74057f7425",
    "resource": {
      "resourceType": "QuestionnaireResponse",
      "id": "c76ca79e-db59-4a4f-be4c-1e74057f7425",
      "identifier": {
        "value": "1766749"
      },
      "questionnaire": {
        "reference": "urn:uuid:9def04fc-404f-4c2b-ba4d-a3f0e2a56fa1"
      },
      "status": "completed",
      "subject": {
        "reference": "urn:uuid:2ecb33e4-10fd-4763-8274-a88a9493e0fa"
      },
      "context": {
        "reference": "urn:uuid:72422c19-05e2-408c-85f0-f43249e4e260"
      },
      "authored": "2021-08-03T13:04:53+00:00",
      "item": [ {
        "linkId": "Tx221449",
        "text": "STRING:SDPCFullPrimaryCareassessmentandprescribingcapability",
        "answer": [ {
          "valueString": "\"\"PC full Primary Care assessment and prescribing capability\"\""
        } ]
      } ]
    }
  }, {
    "fullUrl": "urn:uuid:9def04fc-404f-4c2b-ba4d-a3f0e2a56fa1",
    "resource": {
      "resourceType": "Questionnaire",
      "id": "9def04fc-404f-4c2b-ba4d-a3f0e2a56fa1",
      "identifier": [ {
        "value": "1766749"
      } ],
      "version": "2021-08-03T13:04:53.000Z",
      "status": "active",
      "experimental": false,
      "date": "2021-08-03T13:04:53+00:00",
      "publisher": "User ID: '922' User name: 'AndrewJ.Walford' User skill set: 'T4'",
      "lastReviewDate": "2021-08-03",
      "contact": [ {
        "telecom": [ {
          "system": "phone",
          "value": "07798501130"
        } ]
      } ],
      "subjectType": [ "Patient" ],
      "item": [ {
        "linkId": "1766749",
        "prefix": "1200",
        "text": "STRING:SDPCFullPrimaryCareassessmentandprescribingcapability",
        "type": "choice",
        "required": true,
        "repeats": false,
        "option": [ {
          "valueString": "\"\"PC full Primary Care assessment and prescribing capability\"\", Selected: true"
        } ]
      } ]
    }
  }, {
    "fullUrl": "urn:uuid:4ca6c57c-0ae2-46ec-8679-b18c26a50ff3",
    "resource": {
      "resourceType": "QuestionnaireResponse",
      "id": "4ca6c57c-0ae2-46ec-8679-b18c26a50ff3",
      "identifier": {
        "value": "1766749"
      },
      "questionnaire": {
        "reference": "urn:uuid:1ff209bd-1181-4d8b-a22c-1e52a9c79574"
      },
      "status": "completed",
      "subject": {
        "reference": "urn:uuid:2ecb33e4-10fd-4763-8274-a88a9493e0fa"
      },
      "context": {
        "reference": "urn:uuid:72422c19-05e2-408c-85f0-f43249e4e260"
      },
      "authored": "2021-08-03T13:04:53+00:00"
    }
  }, {
    "fullUrl": "urn:uuid:1ff209bd-1181-4d8b-a22c-1e52a9c79574",
    "resource": {
      "resourceType": "Questionnaire",
      "id": "1ff209bd-1181-4d8b-a22c-1e52a9c79574",
      "identifier": [ {
        "value": "1766749"
      } ],
      "version": "2021-08-03T13:04:53.000Z",
      "status": "active",
      "experimental": false,
      "date": "2021-08-03T13:04:53+00:00",
      "publisher": "User ID: '922' User name: 'AndrewJ.Walford' User skill set: 'T4'",
      "lastReviewDate": "2021-08-03",
      "contact": [ {
        "telecom": [ {
          "system": "phone",
          "value": "07798501130"
        } ]
      } ],
      "subjectType": [ "Patient" ]
    }
  }, {
    "fullUrl": "urn:uuid:19f4f657-d144-4f4f-88d4-f3bcd2f0b012",
    "resource": {
      "resourceType": "QuestionnaireResponse",
      "id": "19f4f657-d144-4f4f-88d4-f3bcd2f0b012",
      "identifier": {
        "value": "1766749"
      },
      "questionnaire": {
        "reference": "urn:uuid:5e66f14b-2deb-4f51-89e7-8bbde24c4f59"
      },
      "status": "completed",
      "subject": {
        "reference": "urn:uuid:2ecb33e4-10fd-4763-8274-a88a9493e0fa"
      },
      "context": {
        "reference": "urn:uuid:72422c19-05e2-408c-85f0-f43249e4e260"
      },
      "authored": "2021-08-03T13:04:53+00:00",
      "item": [ {
        "linkId": "N/A"
      } ]
    }
  }, {
    "fullUrl": "urn:uuid:5e66f14b-2deb-4f51-89e7-8bbde24c4f59",
    "resource": {
      "resourceType": "Questionnaire",
      "id": "5e66f14b-2deb-4f51-89e7-8bbde24c4f59",
      "identifier": [ {
        "value": "1766749"
      } ],
      "version": "2021-08-03T13:04:53.000Z",
      "status": "active",
      "experimental": false,
      "date": "2021-08-03T13:04:53+00:00",
      "publisher": "User ID: '922' User name: 'AndrewJ.Walford' User skill set: 'T4'",
      "lastReviewDate": "2021-08-03",
      "contact": [ {
        "telecom": [ {
          "system": "phone",
          "value": "07798501130"
        } ]
      } ],
      "subjectType": [ "Patient" ],
      "item": [ {
        "linkId": "1766749",
        "type": "choice",
        "required": true,
        "repeats": false,
        "option": [ {
          "valueString": ", Selected: false"
        } ]
      } ]
    }
  }, {
    "fullUrl": "urn:uuid:1551524f-d7f9-4f34-8f42-29804eb45700",
    "resource": {
      "resourceType": "QuestionnaireResponse",
      "id": "1551524f-d7f9-4f34-8f42-29804eb45700",
      "identifier": {
        "value": "1766749"
      },
      "questionnaire": {
        "reference": "urn:uuid:5e43f9b8-0b32-4c08-8ae0-391d13f8b95f"
      },
      "status": "completed",
      "subject": {
        "reference": "urn:uuid:2ecb33e4-10fd-4763-8274-a88a9493e0fa"
      },
      "context": {
        "reference": "urn:uuid:72422c19-05e2-408c-85f0-f43249e4e260"
      },
      "authored": "2021-08-03T13:04:53+00:00"
    }
  }, {
    "fullUrl": "urn:uuid:5e43f9b8-0b32-4c08-8ae0-391d13f8b95f",
    "resource": {
      "resourceType": "Questionnaire",
      "id": "5e43f9b8-0b32-4c08-8ae0-391d13f8b95f",
      "identifier": [ {
        "value": "1766749"
      } ],
      "version": "2021-08-03T13:04:53.000Z",
      "status": "active",
      "experimental": false,
      "date": "2021-08-03T13:04:53+00:00",
      "publisher": "User ID: '922' User name: 'AndrewJ.Walford' User skill set: 'T4'",
      "lastReviewDate": "2021-08-03",
      "contact": [ {
        "telecom": [ {
          "system": "phone",
          "value": "07798501130"
        } ]
      } ],
      "subjectType": [ "Patient" ]
    }
  }, {
    "fullUrl": "urn:uuid:f9b70658-eb2e-4261-b6da-7ec5040eb6b7",
    "resource": {
      "resourceType": "Observation",
      "id": "f9b70658-eb2e-4261-b6da-7ec5040eb6b7",
      "status": "final",
      "code": {
        "coding": [ {
          "system": "http://snomed.info/sct",
          "code": "33962009",
          "display": "Presenting complaint"
        } ]
      },
      "subject": {
        "reference": "urn:uuid:2ecb33e4-10fd-4763-8274-a88a9493e0fa"
      },
      "context": {
        "reference": "urn:uuid:72422c19-05e2-408c-85f0-f43249e4e260"
      }
    }
  }, {
    "fullUrl": "urn:uuid:fe71794a-48ed-4e5d-9dec-c33e159ae4ea",
    "resource": {
      "resourceType": "PractitionerRole",
      "id": "fe71794a-48ed-4e5d-9dec-c33e159ae4ea",
      "practitioner": {
        "reference": "urn:uuid:782a049e-057d-45ba-aaf2-7a48a0b926e3"
      },
      "organization": {
        "reference": "urn:uuid:51bee4f1-ad4c-4d4e-a79b-edc669d64d09"
      },
      "code": [ {
        "coding": [ {
          "system": "2.16.840.1.113883.2.1.3.2.4.17.339",
          "code": "NP",
          "display": "Nurse Practitioner"
        } ]
      } ]
    }
  }, {
    "fullUrl": "urn:uuid:51bee4f1-ad4c-4d4e-a79b-edc669d64d09",
    "resource": {
      "resourceType": "Organization",
      "id": "51bee4f1-ad4c-4d4e-a79b-edc669d64d09",
      "identifier": [ {
        "value": "RX7"
      } ],
      "name": "NWAS 111"
    }
  }, {
    "fullUrl": "urn:uuid:5aec25af-2604-4f13-81de-758fccec9764",
    "resource": {
      "resourceType": "RelatedPerson",
      "id": "5aec25af-2604-4f13-81de-758fccec9764",
      "patient": {
        "reference": "urn:uuid:2ecb33e4-10fd-4763-8274-a88a9493e0fa"
      },
      "relationship": {
        "coding": [ {
          "system": "http://hl7.org/fhir/v2/0131",
          "code": "C",
          "display": "Emergency Contact"
        } ]
      },
      "telecom": [ {
        "system": "phone",
        "value": "tel:07798501130"
      } ]
    }
  }, {
    "fullUrl": "urn:uuid:25fc7578-3a75-4bbd-948f-fda557d1ef53",
    "resource": {
      "resourceType": "Device",
      "id": "25fc7578-3a75-4bbd-948f-fda557d1ef53",
      "model": "111 Adaptor",
      "version": "0.9.0"
    }
  }, {
    "fullUrl": "urn:uuid:9b65019e-afa2-43c2-92b4-e9dab6b1c0ec",
    "resource": {
      "resourceType": "List",
      "id": "9b65019e-afa2-43c2-92b4-e9dab6b1c0ec",
      "status": "current",
      "mode": "working",
      "title": "111 Report List",
      "code": {
        "coding": [ {
          "system": "http://snomed.info/sct",
          "code": "225390008",
          "display": "Triage"
        } ]
      },
      "subject": {
        "reference": "urn:uuid:2ecb33e4-10fd-4763-8274-a88a9493e0fa"
      },
      "encounter": {
        "reference": "urn:uuid:72422c19-05e2-408c-85f0-f43249e4e260"
      },
      "date": "2021-09-29T10:03:08+00:00",
      "source": {
        "reference": "urn:uuid:25fc7578-3a75-4bbd-948f-fda557d1ef53"
      },
      "orderedBy": {
        "coding": [ {
          "system": "http://hl7.org/fhir/list-order",
          "code": "event-date",
          "display": "Sorted by Event Date"
        } ]
      },
      "entry": [ {
        "item": {
          "reference": "urn:uuid:23c8f301-6e0d-4068-b700-c9cf8b79cbca"
        }
      }, {
        "item": {
          "reference": "urn:uuid:5aec25af-2604-4f13-81de-758fccec9764"
        }
      }, {
        "item": {
          "reference": "urn:uuid:4798c75a-5ff6-4c4e-a85b-0082ca32237b"
        }
      }, {
        "item": {
          "reference": "urn:uuid:782a049e-057d-45ba-aaf2-7a48a0b926e3"
        }
      }, {
        "item": {
          "reference": "urn:uuid:f9b70658-eb2e-4261-b6da-7ec5040eb6b7"
        }
      }, {
        "item": {
          "reference": "urn:uuid:5a035d20-30b0-49fb-a9e3-0df1f504fcc7"
        }
      }, {
        "item": {
          "reference": "urn:uuid:4bb13705-ac3b-4d75-a63a-8ab56abcc844"
        }
      }, {
        "item": {
          "reference": "urn:uuid:51bee4f1-ad4c-4d4e-a79b-edc669d64d09"
        }
      }, {
        "item": {
          "reference": "urn:uuid:e4d79bfe-d78a-4c66-ba93-b3d97a8eac0f"
        }
      }, {
        "item": {
          "reference": "urn:uuid:ce1ecc1c-73a9-44cd-9061-5916e855d265"
        }
      }, {
        "item": {
          "reference": "urn:uuid:1551524f-d7f9-4f34-8f42-29804eb45700"
        }
      }, {
        "item": {
          "reference": "urn:uuid:b16111f9-e7b2-4ec5-a530-e1ed305b8842"
        }
      }, {
        "item": {
          "reference": "urn:uuid:b09e0060-de65-41cb-9ac2-83937bd92605"
        }
      }, {
        "item": {
          "reference": "urn:uuid:b52a4c9d-1f05-4c35-983f-04aaeec42f23"
        }
      }, {
        "item": {
          "reference": "urn:uuid:92e421e9-7f8a-43c1-a57b-24f589b58fac"
        }
      }, {
        "item": {
          "reference": "urn:uuid:d8fe1ac1-5f11-41bb-bc1a-8a26bb57cdec"
        }
      }, {
        "item": {
          "reference": "urn:uuid:6ae5fc09-76d7-4617-a490-7b6d16e7fd84"
        }
      }, {
        "item": {
          "reference": "urn:uuid:1132be48-cf07-4c6e-8230-8d4c40534403"
        }
      }, {
        "item": {
          "reference": "urn:uuid:72a37520-5e46-4f6d-ac89-bc4b4a2ff846"
        }
      }, {
        "item": {
          "reference": "urn:uuid:9deab853-dba8-4d18-a178-dea9c077ec2c"
        }
      }, {
        "item": {
          "reference": "urn:uuid:93b2d858-ad5b-4dbe-b796-ab178a69151b"
        }
      }, {
        "item": {
          "reference": "urn:uuid:dd4a4848-265b-45f3-bf24-e737adb60e2a"
        }
      }, {
        "item": {
          "reference": "urn:uuid:19f4f657-d144-4f4f-88d4-f3bcd2f0b012"
        }
      }, {
        "item": {
          "reference": "urn:uuid:81b05dbd-f4f6-409d-a179-8aa87eed2a65"
        }
      }, {
        "item": {
          "reference": "urn:uuid:83f4c279-5c39-484e-b775-48b4c9bc8a7b"
        }
      }, {
        "item": {
          "reference": "urn:uuid:922559a6-fcae-49cd-9b0a-c032f0edcc6c"
        }
      }, {
        "item": {
          "reference": "urn:uuid:e858ff4d-da50-412e-8a10-c6b697ea1dc3"
        }
      }, {
        "item": {
          "reference": "urn:uuid:46ac73bf-2b49-4b68-93fd-3bfd5571c4ff"
        }
      }, {
        "item": {
          "reference": "urn:uuid:1ff209bd-1181-4d8b-a22c-1e52a9c79574"
        }
      }, {
        "item": {
          "reference": "urn:uuid:d03c1f49-cad9-43d3-a5c3-3903d62acead"
        }
      }, {
        "item": {
          "reference": "urn:uuid:9e3ada2a-4858-4839-bd53-379bbac706a7"
        }
      }, {
        "item": {
          "reference": "urn:uuid:b90f7803-9031-4006-ac96-b76adebc0ea1"
        }
      }, {
        "item": {
          "reference": "urn:uuid:9f0e8f69-daea-46c3-91f3-b4997e346b73"
        }
      }, {
        "item": {
          "reference": "urn:uuid:97106727-b997-4ce6-84c6-c82eb08f4a05"
        }
      }, {
        "item": {
          "reference": "urn:uuid:a8a0f671-929b-445f-ab0f-d455c5f191b5"
        }
      }, {
        "item": {
          "reference": "urn:uuid:9bb77364-36bc-4b9e-ba20-f99bbab62d7b"
        }
      }, {
        "item": {
          "reference": "urn:uuid:916a9c97-28b4-455d-ac27-629d3605b107"
        }
      }, {
        "item": {
          "reference": "urn:uuid:dc275d47-5ef0-4793-9564-f9bdd81a4ded"
        }
      }, {
        "item": {
          "reference": "urn:uuid:e7c8ed0d-522a-451b-9dad-f2b4e79a5223"
        }
      }, {
        "item": {
          "reference": "urn:uuid:a2584a4d-04d3-4fdb-a7b6-19e1a0c25d27"
        }
      }, {
        "item": {
          "reference": "urn:uuid:bd9fb550-5ed3-40b9-aeed-2c740ef98975"
        }
      }, {
        "item": {
          "reference": "urn:uuid:4005081f-ebf9-46d0-98f0-5acf9202fce6"
        }
      }, {
        "item": {
          "reference": "urn:uuid:9c1b6766-a0ed-451b-9adb-bbfcfcca11a4"
        }
      }, {
        "item": {
          "reference": "urn:uuid:25c99b3a-c4db-40bb-94be-5ca0a5811e28"
        }
      }, {
        "item": {
          "reference": "urn:uuid:772384bb-7a66-4b1e-83d0-b6116fc440f2"
        }
      }, {
        "item": {
          "reference": "urn:uuid:4ca6c57c-0ae2-46ec-8679-b18c26a50ff3"
        }
      }, {
        "item": {
          "reference": "urn:uuid:314e7c72-5b1b-4a1d-b11b-a912f5742e30"
        }
      }, {
        "item": {
          "reference": "urn:uuid:083f43ad-4638-4d6e-83ed-7e9f8e12248b"
        }
      }, {
        "item": {
          "reference": "urn:uuid:3d915919-ab9d-49d9-8f50-fbbb223e1d45"
        }
      }, {
        "item": {
          "reference": "urn:uuid:3e0be563-c536-490d-9977-bebf5d3166df"
        }
      }, {
        "item": {
          "reference": "urn:uuid:5e43f9b8-0b32-4c08-8ae0-391d13f8b95f"
        }
      }, {
        "item": {
          "reference": "urn:uuid:c9cc238b-bff0-48a3-854c-b9f92ca3dbb8"
        }
      }, {
        "item": {
          "reference": "urn:uuid:a49bdf48-8af3-46bf-a2d9-450f50d9fc4e"
        }
      }, {
        "item": {
          "reference": "urn:uuid:b919e636-4bce-424c-aa75-a27a8391ec51"
        }
      }, {
        "item": {
          "reference": "urn:uuid:c76ca79e-db59-4a4f-be4c-1e74057f7425"
        }
      }, {
        "item": {
          "reference": "urn:uuid:b8069a19-418d-47c1-8e3c-4846bf85c200"
        }
      }, {
        "item": {
          "reference": "urn:uuid:cd804c3e-fbe1-4bd0-afa1-95c9c28bdb84"
        }
      }, {
        "item": {
          "reference": "urn:uuid:bc3dc58a-fdf3-40fc-9f54-e4765e47892b"
        }
      }, {
        "item": {
          "reference": "urn:uuid:d4db2202-89ec-4aa8-bdcb-dcc72ddf734b"
        }
      }, {
        "item": {
          "reference": "urn:uuid:f672714a-1c50-40ce-a924-967d35881b2e"
        }
      }, {
        "item": {
          "reference": "urn:uuid:57a52213-8c33-4588-afe4-366a2947cacb"
        }
      }, {
        "item": {
          "reference": "urn:uuid:ebbf1601-3309-4826-8e99-8293c1cadf57"
        }
      }, {
        "item": {
          "reference": "urn:uuid:8e8b4e47-db51-4a54-afc6-d0600a08b1fd"
        }
      }, {
        "item": {
          "reference": "urn:uuid:75f909b9-a980-42b8-9385-a22b26fed611"
        }
      }, {
        "item": {
          "reference": "urn:uuid:dc05f6a4-0710-4574-8846-2d75094f83b4"
        }
      }, {
        "item": {
          "reference": "urn:uuid:831f8413-1e85-4d00-9ebf-b8e34f5c8e69"
        }
      }, {
        "item": {
          "reference": "urn:uuid:7cdcd72e-91f9-42f6-9d32-b1fa4c8a86c9"
        }
      }, {
        "item": {
          "reference": "urn:uuid:c45f44c5-79b5-4d26-937f-0bfb9119eeb4"
        }
      }, {
        "item": {
          "reference": "urn:uuid:d742d3be-390b-4376-bd1b-0295a74eaca9"
        }
      }, {
        "item": {
          "reference": "urn:uuid:2f91278a-7a85-4069-8d79-26432fc02f7d"
        }
      }, {
        "item": {
          "reference": "urn:uuid:9def04fc-404f-4c2b-ba4d-a3f0e2a56fa1"
        }
      }, {
        "item": {
          "reference": "urn:uuid:5e66f14b-2deb-4f51-89e7-8bbde24c4f59"
        }
      }, {
        "item": {
          "reference": "urn:uuid:50b8da6e-e358-484b-a353-af2b4437ef90"
        }
      } ]
    }
  } ]
}