{
    "resourceType": "Bundle",
    "identifier": {
        "type": {
            "text": "ClinicalDocument VersionNumber"
        },
        "value": "1"
    },
    "type": "message",
    "entry": [
        {
            "fullUrl": "urn:uuid:C34D38AA-2A35-4E0C-AAB2-BCC8D397736A",
            "resource": {
                "resourceType": "MessageHeader",
                "id": "C34D38AA-2A35-4E0C-AAB2-BCC8D397736A",
                "event": {
                    "system": "https://fhir.nhs.uk/STU3/CodeSystem/EventType-1",
                    "code": "referral-1",
                    "display": "Referral"
                },
                "destination": [
                    {
                        "endpoint": "urn:nhs-uk:addressing:ods:A82018:DOSServiceID:136753"
                    }
                ],
                "timestamp": "2021-08-03T13:07:14.000+00:00",
                "source": {
                    "name": "NHS 111 Adaptor",
                    "endpoint": "http://localhost:8080/report"
                },
                "reason": {
                    "coding": [
                        {
                            "system": "urn:nhs-itk:ns:201005:interaction",
                            "code": "urn:nhs-itk:interaction:primaryGeneralPractitionerRecipientNHS111CDADocument-v2-0"
                        }
                    ]
                }
            }
        },
        {
            "fullUrl": "urn:uuid:f480ad61-2174-4bff-8739-4531dfb797d2",
            "resource": {
                "resourceType": "Encounter",
                "id": "f480ad61-2174-4bff-8739-4531dfb797d2",
                "identifier": [
                    {
                        "system": "2.16.840.1.113883.2.1.3.2.4.18.49",
                        "value": "6C072313-DFFB-4D60-9416-43B044FDBA9F"
                    },
                    {
                        "system": "2.16.840.1.113883.2.1.3.2.4.18.34",
                        "value": "1766759"
                    },
                    {
                        "system": "2.16.840.1.113883.2.1.3.2.4.18.35",
                        "value": "1766759"
                    }
                ],
                "status": "finished",
                "type": [
                    {
                        "text": "111 Encounter Referral"
                    }
                ],
                "subject": {
                    "reference": "urn:uuid:a81dd0c5-df31-41c5-bd9e-e5602044ec51"
                },
                "participant": [
                    {
                        "type": [
                            {
                                "coding": [
                                    {
                                        "system": "http://hl7.org/fhir/ValueSet/encounter-participant-type",
                                        "code": "PPRF",
                                        "display": "Author"
                                    }
                                ]
                            }
                        ],
                        "individual": {
                            "reference": "urn:uuid:6335338b-8452-4964-bda7-6743ba8ffe58"
                        }
                    }
                ],
                "period": {
                    "start": "2021-08-03T13:07:14+00:00"
                },
                "location": [
                    {
                        "location": {
                            "reference": "urn:uuid:8290d4ce-72c7-47cb-9908-27c9009d3838"
                        },
                        "status": "active"
                    },
                    {
                        "location": {
                            "reference": "urn:uuid:0fd9a4f6-cfbb-4448-8337-a8dc9e966a6c"
                        },
                        "status": "completed"
                    }
                ],
                "serviceProvider": {
                    "reference": "urn:uuid:374f2375-9a3f-446c-9e27-85238ac0b225"
                }
            }
        },
        {
            "fullUrl": "urn:uuid:374f2375-9a3f-446c-9e27-85238ac0b225",
            "resource": {
                "resourceType": "Organization",
                "id": "374f2375-9a3f-446c-9e27-85238ac0b225",
                "active": true,
                "type": [
                    {
                        "text": "CST"
                    }
                ],
                "name": "NWAS 111"
            }
        },
        {
            "fullUrl": "urn:uuid:6335338b-8452-4964-bda7-6743ba8ffe58",
            "resource": {
                "resourceType": "Practitioner",
                "id": "6335338b-8452-4964-bda7-6743ba8ffe58",
                "active": true,
                "name": [
                    {
                        "text": "AndrewJ.Walford"
                    }
                ]
            }
        },
        {
            "fullUrl": "urn:uuid:8290d4ce-72c7-47cb-9908-27c9009d3838",
            "resource": {
                "resourceType": "Location",
                "id": "8290d4ce-72c7-47cb-9908-27c9009d3838",
                "managingOrganization": {
                    "reference": "urn:uuid:c5f0efea-655e-4e8d-aa0a-b28bbc033947"
                }
            }
        },
        {
            "fullUrl": "urn:uuid:c5f0efea-655e-4e8d-aa0a-b28bbc033947",
            "resource": {
                "resourceType": "Organization",
                "id": "c5f0efea-655e-4e8d-aa0a-b28bbc033947",
                "identifier": [
                    {
                        "value": "A82018"
                    }
                ],
                "type": [
                    {
                        "text": "GP Practice"
                    }
                ],
                "name": "Spencer St Surgery",
                "telecom": [
                    {
                        "system": "phone",
                        "value": "tel:01228529171",
                        "use": "work"
                    }
                ],
                "address": [
                    {
                        "use": "work",
                        "line": [
                            "Spencer Street Surgery",
                            "10 Spencer Street",
                            "Carlisle"
                        ],
                        "postalCode": "CA1 1BP"
                    }
                ]
            }
        },
        {
            "fullUrl": "urn:uuid:0fd9a4f6-cfbb-4448-8337-a8dc9e966a6c",
            "resource": {
                "resourceType": "Location",
                "id": "0fd9a4f6-cfbb-4448-8337-a8dc9e966a6c",
                "address": {
                    "type": "physical",
                    "line": [
                        "North West Ambulance Service Nhs Trust Salkeld Hall",
                        "Infirmary Street",
                        "Carlisle"
                    ],
                    "postalCode": "CA2 7AN"
                }
            }
        },
        {
            "fullUrl": "urn:uuid:a81dd0c5-df31-41c5-bd9e-e5602044ec51",
            "resource": {
                "resourceType": "Patient",
                "id": "a81dd0c5-df31-41c5-bd9e-e5602044ec51",
                "active": true,
                "name": [
                    {
                        "use": "official",
                        "family": "Please Disregard",
                        "given": [
                            "Dx09 Test"
                        ]
                    }
                ],
                "telecom": [
                    {
                        "system": "phone",
                        "value": "tel:07798501130",
                        "use": "mobile"
                    },
                    {
                        "system": "phone",
                        "value": "tel:07798501130"
                    }
                ],
                "gender": "male",
                "birthDate": "1980-01-01",
                "address": [
                    {
                        "use": "home",
                        "line": [
                            "North West Ambulance Service Nhs Trust Salkeld Hall",
                            "Infirmary Street",
                            "Carlisle"
                        ],
                        "postalCode": "CA2 7AN"
                    },
                    {
                        "type": "physical",
                        "line": [
                            "North West Ambulance Service Nhs Trust Salkeld Hall",
                            "Infirmary Street",
                            "Carlisle"
                        ],
                        "postalCode": "CA2 7AN"
                    }
                ],
                "generalPractitioner": [
                    {
                        "reference": "urn:uuid:1ada479c-5e9d-4fe1-a4c9-e2430b0a57ee"
                    }
                ]
            }
        },
        {
            "fullUrl": "urn:uuid:1ada479c-5e9d-4fe1-a4c9-e2430b0a57ee",
            "resource": {
                "resourceType": "Organization",
                "id": "1ada479c-5e9d-4fe1-a4c9-e2430b0a57ee",
                "identifier": [
                    {
                        "value": "A82018"
                    }
                ],
                "type": [
                    {
                        "text": "GP Practice"
                    }
                ],
                "name": "Spencer St Surgery",
                "telecom": [
                    {
                        "system": "phone",
                        "value": "tel:01228529171",
                        "use": "work"
                    }
                ],
                "address": [
                    {
                        "use": "work",
                        "line": [
                            "Spencer Street Surgery",
                            "10 Spencer Street",
                            "Carlisle"
                        ],
                        "postalCode": "CA1 1BP"
                    }
                ]
            }
        },
        {
            "fullUrl": "urn:uuid:d8774e5f-c4d5-4797-bf90-3344086b6887",
            "resource": {
                "resourceType": "HealthcareService",
                "id": "d8774e5f-c4d5-4797-bf90-3344086b6887",
                "active": true,
                "providedBy": {
                    "reference": "urn:uuid:173b0d39-c6cd-4fc4-b091-0599f664ba1a"
                },
                "location": [
                    {
                        "reference": "urn:uuid:7200dd7f-ee9d-4c59-94c1-cec4672c77d1"
                    }
                ],
                "name": "Spencer St Surgery",
                "telecom": [
                    {
                        "system": "phone",
                        "value": "tel:01228529171",
                        "use": "work"
                    }
                ]
            }
        },
        {
            "fullUrl": "urn:uuid:7200dd7f-ee9d-4c59-94c1-cec4672c77d1",
            "resource": {
                "resourceType": "Location",
                "id": "7200dd7f-ee9d-4c59-94c1-cec4672c77d1",
                "telecom": [
                    {
                        "system": "phone",
                        "value": "tel:01228529171",
                        "use": "work"
                    }
                ],
                "address": {
                    "use": "work",
                    "line": [
                        "Spencer Street Surgery",
                        "10 Spencer Street",
                        "Carlisle"
                    ],
                    "postalCode": "CA1 1BP"
                },
                "managingOrganization": {
                    "reference": "urn:uuid:173b0d39-c6cd-4fc4-b091-0599f664ba1a"
                }
            }
        },
        {
            "fullUrl": "urn:uuid:173b0d39-c6cd-4fc4-b091-0599f664ba1a",
            "resource": {
                "resourceType": "Organization",
                "id": "173b0d39-c6cd-4fc4-b091-0599f664ba1a",
                "identifier": [
                    {
                        "value": "A82018"
                    }
                ],
                "type": [
                    {
                        "coding": [
                            {
                                "code": "PRCP",
                                "display": "Spencer St Surgery"
                            }
                        ]
                    }
                ],
                "name": "Spencer St Surgery"
            }
        },
        {
            "fullUrl": "urn:uuid:729ee2ed-0bdc-4b19-8263-12e9789d1bfe",
            "resource": {
                "resourceType": "ReferralRequest",
                "id": "729ee2ed-0bdc-4b19-8263-12e9789d1bfe",
                "status": "active",
                "intent": "plan",
                "priority": "routine",
                "subject": {
                    "reference": "urn:uuid:a81dd0c5-df31-41c5-bd9e-e5602044ec51"
                },
                "context": {
                    "reference": "urn:uuid:f480ad61-2174-4bff-8739-4531dfb797d2"
                },
                "occurrencePeriod": {
                    "start": "2021-09-10T15:48:12+00:00",
                    "end": "2021-09-10T16:48:12+00:00"
                },
                "authoredOn": "2021-08-03T12:36:56+00:00",
                "requester": {
                    "agent": {
                        "reference": "urn:uuid:0ebed639-779a-45ae-813a-bb1138103184"
                    },
                    "onBehalfOf": {
                        "reference": "urn:uuid:374f2375-9a3f-446c-9e27-85238ac0b225"
                    }
                },
                "recipient": [
                    {
                        "reference": "urn:uuid:c3a774d9-fdd0-4409-bb11-dadcb981b04b"
                    },
                    {
                        "reference": "urn:uuid:d8774e5f-c4d5-4797-bf90-3344086b6887"
                    }
                ],
                "reasonReference": [
                    {
                        "reference": "urn:uuid:e2862d03-653a-4d5a-815c-7b29fde8eae1"
                    }
                ],
                "supportingInfo": [
                    {
                        "reference": "urn:uuid:6e8633a0-4f35-454e-badd-e8558d284115"
                    }
                ]
            }
        },
        {
            "fullUrl": "urn:uuid:6e8633a0-4f35-454e-badd-e8558d284115",
            "resource": {
                "resourceType": "ProcedureRequest",
                "id": "6e8633a0-4f35-454e-badd-e8558d284115",
                "status": "active",
                "intent": "plan",
                "priority": "routine",
                "doNotPerform": false,
                "code": {
                    "coding": [
                        {
                            "system": "2.16.840.1.113883.2.1.3.2.4.17.325",
                            "code": "Dx09",
                            "display": "For Persistent Or Recurrent Symptoms: Get In Touch With A Local Service For A Non-urgent Appointment"
                        }
                    ]
                },
                "subject": {
                    "reference": "urn:uuid:a81dd0c5-df31-41c5-bd9e-e5602044ec51"
                },
                "occurrencePeriod": {
                    "start": "2021-09-10T15:48:12+00:00",
                    "end": "2021-09-10T16:48:12+00:00"
                },
                "reasonReference": [
                    {
                        "reference": "urn:uuid:e2862d03-653a-4d5a-815c-7b29fde8eae1"
                    }
                ]
            }
        },
        {
            "fullUrl": "urn:uuid:c3a774d9-fdd0-4409-bb11-dadcb981b04b",
            "resource": {
                "resourceType": "Practitioner",
                "id": "c3a774d9-fdd0-4409-bb11-dadcb981b04b",
                "active": true,
                "address": [
                    {
                        "type": "physical",
                        "line": [
                            "Spencer Street Surgery",
                            "Spencer Street",
                            "Carlisle"
                        ],
                        "postalCode": "CA1 1BP"
                    }
                ]
            }
        },
        {
            "fullUrl": "urn:uuid:9dc4f620-f745-4a8a-b5bd-d22f1d69e886",
            "resource": {
                "resourceType": "Composition",
                "id": "9dc4f620-f745-4a8a-b5bd-d22f1d69e886",
                "identifier": {
                    "use": "usual",
                    "value": "B5A4AC85-5A10-4D08-B956-83421A24BB81"
                },
                "status": "final",
                "type": {
                    "coding": [
                        {
                            "system": "http://snomed.info/sct",
                            "code": "371531000",
                            "display": "Report of clinical encounter (record artifact)"
                        }
                    ]
                },
                "subject": {
                    "reference": "urn:uuid:a81dd0c5-df31-41c5-bd9e-e5602044ec51"
                },
                "encounter": {
                    "reference": "urn:uuid:f480ad61-2174-4bff-8739-4531dfb797d2"
                },
                "date": "2021-09-10T15:48:12+00:00",
                "author": [
                    {
                        "reference": "urn:uuid:6335338b-8452-4964-bda7-6743ba8ffe58"
                    }
                ],
                "title": "111 Report",
                "confidentiality": "N",
                "section": [
                    {
                        "section": [
                            {
                                "title": "Patient's Reported Condition",
                                "text": {
                                    "status": "generated",
                                    "div": "<div xmlns=\"http://www.w3.org/1999/xhtml\">&lt;xml-fragment xmlns:npfitlc=&quot;NPFIT:HL7:Localisation&quot;&gt;**test From Nwas111 - No Action Required - Please Disregard Test&lt;/xml-fragment&gt;</div>"
                                }
                            },
                            {
                                "title": "Case Summary",
                                "text": {
                                    "status": "generated",
                                    "div": "<div xmlns=\"http://www.w3.org/1999/xhtml\">&lt;xml-fragment xmlns:npfitlc=&quot;NPFIT:HL7:Localisation&quot;&gt;\n                                                    &lt;urn:content styleCode=&quot;bold&quot; xmlns:urn=&quot;urn:hl7-org:v3&quot;&gt;Pathways Disposition: Dx09&lt;/urn:content&gt;\n                                                    &lt;urn:br xmlns:urn=&quot;urn:hl7-org:v3&quot;/&gt;\n                                                    &lt;urn:content xmlns:urn=&quot;urn:hl7-org:v3&quot;&gt;For Persistent Or Recurrent Symptoms: Get In Touch With A Local Service For A Non-urgent Appointment&lt;/urn:content&gt;\n                                                    &lt;urn:br xmlns:urn=&quot;urn:hl7-org:v3&quot;/&gt;\n                                                    &lt;urn:br xmlns:urn=&quot;urn:hl7-org:v3&quot;/&gt;\n                                                    &lt;urn:content styleCode=&quot;bold&quot; xmlns:urn=&quot;urn:hl7-org:v3&quot;&gt;Consultation Summary:&lt;/urn:content&gt;\n                                                    &lt;urn:br xmlns:urn=&quot;urn:hl7-org:v3&quot;/&gt;\n                                                    &lt;urn:content xmlns:urn=&quot;urn:hl7-org:v3&quot;&gt;Illness - '**Test From NWAS111 - No Action required - Please Disregard Test case**'&lt;/urn:content&gt;\n                                                    &lt;urn:br xmlns:urn=&quot;urn:hl7-org:v3&quot;/&gt;\n                                                    &lt;urn:content xmlns:urn=&quot;urn:hl7-org:v3&quot;&gt;Warm to touch&lt;/urn:content&gt;\n                                                    &lt;urn:br xmlns:urn=&quot;urn:hl7-org:v3&quot;/&gt;\n                                                    &lt;urn:content xmlns:urn=&quot;urn:hl7-org:v3&quot;&gt;Head lice&lt;/urn:content&gt;\n                                                    &lt;urn:br xmlns:urn=&quot;urn:hl7-org:v3&quot;/&gt;\n                                                    &lt;urn:content xmlns:urn=&quot;urn:hl7-org:v3&quot;&gt;Head lice contact&lt;/urn:content&gt;\n                                                    &lt;urn:br xmlns:urn=&quot;urn:hl7-org:v3&quot;/&gt;\n                                                    &lt;urn:content xmlns:urn=&quot;urn:hl7-org:v3&quot;&gt;Recent sudden loss of clumps of hair&lt;/urn:content&gt;\n                                                    &lt;urn:br xmlns:urn=&quot;urn:hl7-org:v3&quot;/&gt;\n                                                    &lt;urn:br xmlns:urn=&quot;urn:hl7-org:v3&quot;/&gt;\n                                                    &lt;urn:content styleCode=&quot;bold&quot; xmlns:urn=&quot;urn:hl7-org:v3&quot;&gt;Pathways Assessment:&lt;/urn:content&gt;\n                                                    &lt;urn:br xmlns:urn=&quot;urn:hl7-org:v3&quot;/&gt;\n                                                    &lt;urn:content xmlns:urn=&quot;urn:hl7-org:v3&quot;&gt;An injury or health problem was the reason for the contact.&lt;/urn:content&gt;\n                                                    &lt;urn:br xmlns:urn=&quot;urn:hl7-org:v3&quot;/&gt;\n                                                    &lt;urn:content xmlns:urn=&quot;urn:hl7-org:v3&quot;&gt;User comment - '**Test From NWAS111 - No Action required - Please Disregard Test case**'&lt;/urn:content&gt;\n                                                    &lt;urn:br xmlns:urn=&quot;urn:hl7-org:v3&quot;/&gt;\n                                                    &lt;urn:content xmlns:urn=&quot;urn:hl7-org:v3&quot;&gt;Heavy bleeding had not occurred in the previous 2 hours.&lt;/urn:content&gt;\n                                                    &lt;urn:br xmlns:urn=&quot;urn:hl7-org:v3&quot;/&gt;\n                                                    &lt;urn:content xmlns:urn=&quot;urn:hl7-org:v3&quot;&gt;An illness or health problem was the main problem.&lt;/urn:content&gt;\n                                                    &lt;urn:br xmlns:urn=&quot;urn:hl7-org:v3&quot;/&gt;\n                                                    &lt;urn:content xmlns:urn=&quot;urn:hl7-org:v3&quot;&gt;User comment - '**Test From NWAS111 - No Action required - Please Disregard Test case**'&lt;/urn:content&gt;\n                                                    &lt;urn:br xmlns:urn=&quot;urn:hl7-org:v3&quot;/&gt;\n                                                    &lt;urn:content xmlns:urn=&quot;urn:hl7-org:v3&quot;&gt;The individual was not fighting for breath.&lt;/urn:content&gt;\n                                                    &lt;urn:br xmlns:urn=&quot;urn:hl7-org:v3&quot;/&gt;\n                                                    &lt;urn:content xmlns:urn=&quot;urn:hl7-org:v3&quot;&gt;The main reason for the assessment was not an allergic reaction, heart attack, chest/upper back pain, probable stroke, recent fit/seizure or suicide attempt.&lt;/urn:content&gt;\n                                                    &lt;urn:br xmlns:urn=&quot;urn:hl7-org:v3&quot;/&gt;\n                                                    &lt;urn:content xmlns:urn=&quot;urn:hl7-org:v3&quot;&gt;The main reason for contact was not new confusion, declared diabetic hypo/hyperglycaemia, or ICD shock.&lt;/urn:content&gt;\n                                                    &lt;urn:br xmlns:urn=&quot;urn:hl7-org:v3&quot;/&gt;\n                                                    &lt;urn:content xmlns:urn=&quot;urn:hl7-org:v3&quot;&gt;The skin on the torso felt normal, warm or hot.&lt;/urn:content&gt;\n                                                    &lt;urn:br xmlns:urn=&quot;urn:hl7-org:v3&quot;/&gt;\n                                                    &lt;urn:content xmlns:urn=&quot;urn:hl7-org:v3&quot;&gt;Pathway selected - Skin Problems&lt;/urn:content&gt;\n                                                    &lt;urn:br xmlns:urn=&quot;urn:hl7-org:v3&quot;/&gt;\n                                                    &lt;urn:content xmlns:urn=&quot;urn:hl7-org:v3&quot;&gt;The main problem was not a rash, itch, jaundice, skin lumps or abnormal bruising.&lt;/urn:content&gt;\n                                                    &lt;urn:br xmlns:urn=&quot;urn:hl7-org:v3&quot;/&gt;\n                                                    &lt;urn:content xmlns:urn=&quot;urn:hl7-org:v3&quot;&gt;The main problem was head lice.&lt;/urn:content&gt;\n                                                    &lt;urn:br xmlns:urn=&quot;urn:hl7-org:v3&quot;/&gt;\n                                                    &lt;urn:content xmlns:urn=&quot;urn:hl7-org:v3&quot;&gt;There had been contact with somebody with head lice.&lt;/urn:content&gt;\n                                                    &lt;urn:br xmlns:urn=&quot;urn:hl7-org:v3&quot;/&gt;\n                                                    &lt;urn:content xmlns:urn=&quot;urn:hl7-org:v3&quot;&gt;There was recent patchy hair loss.&lt;/urn:content&gt;\n                                                    &lt;urn:br xmlns:urn=&quot;urn:hl7-org:v3&quot;/&gt;\n                                                    &lt;urn:content xmlns:urn=&quot;urn:hl7-org:v3&quot;&gt;User comment - 'GP - Spencer Street Surgery - Cumbria (Home GP)'&lt;/urn:content&gt;\n                                                    &lt;urn:br xmlns:urn=&quot;urn:hl7-org:v3&quot;/&gt;\n                                                    &lt;urn:br xmlns:urn=&quot;urn:hl7-org:v3&quot;/&gt;\n                                                    &lt;urn:content styleCode=&quot;bold&quot; xmlns:urn=&quot;urn:hl7-org:v3&quot;&gt;Advice Given:&lt;/urn:content&gt;\n                                                    &lt;urn:br xmlns:urn=&quot;urn:hl7-org:v3&quot;/&gt;\n                                                    &lt;urn:content xmlns:urn=&quot;urn:hl7-org:v3&quot;&gt;Head lice is common. Speak to a pharmacist for advice on suitable treatments.&lt;/urn:content&gt;\n                                                    &lt;urn:br xmlns:urn=&quot;urn:hl7-org:v3&quot;/&gt;\n                                                    &lt;urn:br xmlns:urn=&quot;urn:hl7-org:v3&quot;/&gt;\n                                                &lt;/xml-fragment&gt;</div>"
                                }
                            }
                        ]
                    },
                    {
                        "title": "ReferralRequest",
                        "entry": [
                            {
                                "reference": "urn:uuid:729ee2ed-0bdc-4b19-8263-12e9789d1bfe"
                            }
                        ]
                    },
                    {
                        "title": "QuestionnaireResponse",
                        "entry": [
                            {
                                "reference": "urn:uuid:5944a59e-c870-48c8-8862-2e9d0aa0ffdc"
                            }
                        ]
                    },
                    {
                        "title": "QuestionnaireResponse",
                        "entry": [
                            {
                                "reference": "urn:uuid:a4985d56-9f04-4e3a-9aaf-c9698cca3dd3"
                            }
                        ]
                    },
                    {
                        "title": "QuestionnaireResponse",
                        "entry": [
                            {
                                "reference": "urn:uuid:0f60ca41-574e-407f-b1da-a2a53d1e8bb6"
                            }
                        ]
                    },
                    {
                        "title": "QuestionnaireResponse",
                        "entry": [
                            {
                                "reference": "urn:uuid:a0038bb6-0177-400d-83dd-9e2359e967ea"
                            }
                        ]
                    },
                    {
                        "title": "QuestionnaireResponse",
                        "entry": [
                            {
                                "reference": "urn:uuid:74305ed0-8325-4054-ac16-823b6fb687b5"
                            }
                        ]
                    },
                    {
                        "title": "QuestionnaireResponse",
                        "entry": [
                            {
                                "reference": "urn:uuid:fbe59693-d0a0-41bd-9013-9085305a85a8"
                            }
                        ]
                    },
                    {
                        "title": "QuestionnaireResponse",
                        "entry": [
                            {
                                "reference": "urn:uuid:f6731a0c-13f4-41d4-9c5a-3f0538f9f208"
                            }
                        ]
                    },
                    {
                        "title": "QuestionnaireResponse",
                        "entry": [
                            {
                                "reference": "urn:uuid:50a8c5a8-8ed7-40e5-aa3d-6d3b6e5df20f"
                            }
                        ]
                    },
                    {
                        "title": "QuestionnaireResponse",
                        "entry": [
                            {
                                "reference": "urn:uuid:7364a698-eab5-4b9c-9c8f-8d1a920f6ab5"
                            }
                        ]
                    },
                    {
                        "title": "QuestionnaireResponse",
                        "entry": [
                            {
                                "reference": "urn:uuid:832dc754-d860-43af-933c-a7fb81a6b5f0"
                            }
                        ]
                    },
                    {
                        "title": "QuestionnaireResponse",
                        "entry": [
                            {
                                "reference": "urn:uuid:350b3d4a-06d6-4985-881d-cd62bbe6b83a"
                            }
                        ]
                    },
                    {
                        "title": "QuestionnaireResponse",
                        "entry": [
                            {
                                "reference": "urn:uuid:16b676e9-efbe-42f5-a75c-fc40d0533bf6"
                            }
                        ]
                    },
                    {
                        "title": "QuestionnaireResponse",
                        "entry": [
                            {
                                "reference": "urn:uuid:a5aa1e1b-5b4d-4df5-abda-9052294dfdae"
                            }
                        ]
                    },
                    {
                        "title": "QuestionnaireResponse",
                        "entry": [
                            {
                                "reference": "urn:uuid:b0f89be7-c35a-4637-be9d-e5e34ed6c019"
                            }
                        ]
                    },
                    {
                        "title": "QuestionnaireResponse",
                        "entry": [
                            {
                                "reference": "urn:uuid:67e560b1-d0bc-4d44-a932-01ec62852157"
                            }
                        ]
                    },
                    {
                        "title": "QuestionnaireResponse",
                        "entry": [
                            {
                                "reference": "urn:uuid:77beee7f-52b5-43b2-9024-004a5766d6f1"
                            }
                        ]
                    },
                    {
                        "title": "QuestionnaireResponse",
                        "entry": [
                            {
                                "reference": "urn:uuid:868b5955-2dcd-423d-bf6a-b77efc2aeccf"
                            }
                        ]
                    },
                    {
                        "title": "QuestionnaireResponse",
                        "entry": [
                            {
                                "reference": "urn:uuid:0aac87e0-dcd1-476e-9c4c-747ffe2261cb"
                            }
                        ]
                    },
                    {
                        "title": "QuestionnaireResponse",
                        "entry": [
                            {
                                "reference": "urn:uuid:4ba221d7-43bc-4931-8805-65f4dd2d6386"
                            }
                        ]
                    },
                    {
                        "title": "QuestionnaireResponse",
                        "entry": [
                            {
                                "reference": "urn:uuid:16d1c476-5303-404f-be80-36c09f4d88dc"
                            }
                        ]
                    },
                    {
                        "title": "QuestionnaireResponse",
                        "entry": [
                            {
                                "reference": "urn:uuid:bc3b9104-863b-496e-85f6-1106df6de44a"
                            }
                        ]
                    }
                ]
            }
        },
        {
            "fullUrl": "urn:uuid:edd3b82a-0cea-4775-8066-0c158ac6a91b",
            "resource": {
                "resourceType": "Consent",
                "id": "edd3b82a-0cea-4775-8066-0c158ac6a91b",
                "identifier": {
                    "use": "usual",
                    "value": "B5A4AC85-5A10-4D08-B956-83421A24BB81"
                },
                "status": "active",
                "patient": {
                    "reference": "urn:uuid:a81dd0c5-df31-41c5-bd9e-e5602044ec51"
                },
                "period": {
                    "start": "2021-08-03T13:07:14+00:00"
                },
                "consentingParty": [
                    {
                        "reference": "urn:uuid:a81dd0c5-df31-41c5-bd9e-e5602044ec51"
                    }
                ],
                "action": [
                    {
                        "coding": [
                            {
                                "system": "http://snomed.info/sct",
                                "code": "425691002",
                                "display": "Consent given for electronic record sharing"
                            }
                        ],
                        "text": "Consent given for electronic record sharing"
                    }
                ],
                "organization": [
                    {
                        "reference": "urn:uuid:374f2375-9a3f-446c-9e27-85238ac0b225"
                    }
                ],
                "policyRule": "http://hl7.org/fhir/ConsentPolicy/opt-out",
                "data": [
                    {
                        "meaning": "related",
                        "reference": {
                            "reference": "urn:uuid:f480ad61-2174-4bff-8739-4531dfb797d2"
                        }
                    }
                ]
            }
        },
        {
            "fullUrl": "urn:uuid:e2862d03-653a-4d5a-815c-7b29fde8eae1",
            "resource": {
                "resourceType": "Condition",
                "id": "e2862d03-653a-4d5a-815c-7b29fde8eae1",
                "clinicalStatus": "active",
                "verificationStatus": "unknown",
                "subject": {
                    "reference": "urn:uuid:a81dd0c5-df31-41c5-bd9e-e5602044ec51"
                },
                "context": {
                    "reference": "urn:uuid:f480ad61-2174-4bff-8739-4531dfb797d2"
                },
                "evidence": [
                    {
                        "detail": [
                            {
                                "reference": "urn:uuid:5944a59e-c870-48c8-8862-2e9d0aa0ffdc"
                            }
                        ]
                    },
                    {
                        "detail": [
                            {
                                "reference": "urn:uuid:a4985d56-9f04-4e3a-9aaf-c9698cca3dd3"
                            }
                        ]
                    },
                    {
                        "detail": [
                            {
                                "reference": "urn:uuid:0f60ca41-574e-407f-b1da-a2a53d1e8bb6"
                            }
                        ]
                    },
                    {
                        "detail": [
                            {
                                "reference": "urn:uuid:a0038bb6-0177-400d-83dd-9e2359e967ea"
                            }
                        ]
                    },
                    {
                        "detail": [
                            {
                                "reference": "urn:uuid:74305ed0-8325-4054-ac16-823b6fb687b5"
                            }
                        ]
                    },
                    {
                        "detail": [
                            {
                                "reference": "urn:uuid:fbe59693-d0a0-41bd-9013-9085305a85a8"
                            }
                        ]
                    },
                    {
                        "detail": [
                            {
                                "reference": "urn:uuid:f6731a0c-13f4-41d4-9c5a-3f0538f9f208"
                            }
                        ]
                    },
                    {
                        "detail": [
                            {
                                "reference": "urn:uuid:50a8c5a8-8ed7-40e5-aa3d-6d3b6e5df20f"
                            }
                        ]
                    },
                    {
                        "detail": [
                            {
                                "reference": "urn:uuid:7364a698-eab5-4b9c-9c8f-8d1a920f6ab5"
                            }
                        ]
                    },
                    {
                        "detail": [
                            {
                                "reference": "urn:uuid:832dc754-d860-43af-933c-a7fb81a6b5f0"
                            }
                        ]
                    },
                    {
                        "detail": [
                            {
                                "reference": "urn:uuid:350b3d4a-06d6-4985-881d-cd62bbe6b83a"
                            }
                        ]
                    },
                    {
                        "detail": [
                            {
                                "reference": "urn:uuid:16b676e9-efbe-42f5-a75c-fc40d0533bf6"
                            }
                        ]
                    },
                    {
                        "detail": [
                            {
                                "reference": "urn:uuid:a5aa1e1b-5b4d-4df5-abda-9052294dfdae"
                            }
                        ]
                    },
                    {
                        "detail": [
                            {
                                "reference": "urn:uuid:b0f89be7-c35a-4637-be9d-e5e34ed6c019"
                            }
                        ]
                    },
                    {
                        "detail": [
                            {
                                "reference": "urn:uuid:67e560b1-d0bc-4d44-a932-01ec62852157"
                            }
                        ]
                    },
                    {
                        "detail": [
                            {
                                "reference": "urn:uuid:77beee7f-52b5-43b2-9024-004a5766d6f1"
                            }
                        ]
                    },
                    {
                        "detail": [
                            {
                                "reference": "urn:uuid:868b5955-2dcd-423d-bf6a-b77efc2aeccf"
                            }
                        ]
                    },
                    {
                        "detail": [
                            {
                                "reference": "urn:uuid:0aac87e0-dcd1-476e-9c4c-747ffe2261cb"
                            }
                        ]
                    },
                    {
                        "detail": [
                            {
                                "reference": "urn:uuid:4ba221d7-43bc-4931-8805-65f4dd2d6386"
                            }
                        ]
                    },
                    {
                        "detail": [
                            {
                                "reference": "urn:uuid:16d1c476-5303-404f-be80-36c09f4d88dc"
                            }
                        ]
                    },
                    {
                        "detail": [
                            {
                                "reference": "urn:uuid:bc3b9104-863b-496e-85f6-1106df6de44a"
                            }
                        ]
                    }
                ]
            }
        },
        {
            "fullUrl": "urn:uuid:5944a59e-c870-48c8-8862-2e9d0aa0ffdc",
            "resource": {
                "resourceType": "QuestionnaireResponse",
                "id": "5944a59e-c870-48c8-8862-2e9d0aa0ffdc",
                "identifier": {
                    "value": "1766759"
                },
                "questionnaire": {
                    "reference": "urn:uuid:1cf51f2c-9f6a-411d-ab01-461e61a4e145"
                },
                "status": "completed",
                "subject": {
                    "reference": "urn:uuid:a81dd0c5-df31-41c5-bd9e-e5602044ec51"
                },
                "context": {
                    "reference": "urn:uuid:f480ad61-2174-4bff-8739-4531dfb797d2"
                },
                "authored": "2021-08-03T13:07:14+00:00",
                "item": [
                    {
                        "linkId": "Tx220109",
                        "text": "What is the reason for the contact?",
                        "answer": [
                            {
                                "valueString": "an injury or other health problem"
                            }
                        ]
                    }
                ]
            }
        },
        {
            "fullUrl": "urn:uuid:1cf51f2c-9f6a-411d-ab01-461e61a4e145",
            "resource": {
                "resourceType": "Questionnaire",
                "id": "1cf51f2c-9f6a-411d-ab01-461e61a4e145",
                "identifier": [
                    {
                        "value": "1766759"
                    }
                ],
                "version": "2021-08-03T13:07:14.000Z",
                "status": "active",
                "experimental": false,
                "date": "2021-08-03T13:07:14+00:00",
                "publisher": "User ID: '922' User name: 'AndrewJ.Walford' User skill set: 'T4'",
                "lastReviewDate": "2021-08-03",
                "contact": [
                    {
                        "telecom": [
                            {
                                "value": "07798501130"
                            }
                        ]
                    }
                ],
                "subjectType": [
                    "Patient"
                ],
                "item": [
                    {
                        "linkId": "1766759",
                        "prefix": "5",
                        "text": "What is the reason for the contact?",
                        "type": "choice",
                        "required": true,
                        "repeats": false,
                        "option": [
                            {
                                "valueString": "an injury or other health problem, Selected: true"
                            },
                            {
                                "valueString": "a need to access another healthcare service, Selected: false"
                            },
                            {
                                "valueString": "a healthcare professional requesting contact with another clinician, Selected: false"
                            },
                            {
                                "valueString": "a report of results or tests, Selected: false"
                            },
                            {
                                "valueString": "more, Selected: false"
                            }
                        ]
                    }
                ]
            }
        },
        {
            "fullUrl": "urn:uuid:a4985d56-9f04-4e3a-9aaf-c9698cca3dd3",
            "resource": {
                "resourceType": "QuestionnaireResponse",
                "id": "a4985d56-9f04-4e3a-9aaf-c9698cca3dd3",
                "identifier": {
                    "value": "1766759"
                },
                "questionnaire": {
                    "reference": "urn:uuid:16054c76-09a8-47b4-bf2e-58859321d85b"
                },
                "status": "completed",
                "subject": {
                    "reference": "urn:uuid:a81dd0c5-df31-41c5-bd9e-e5602044ec51"
                },
                "context": {
                    "reference": "urn:uuid:f480ad61-2174-4bff-8739-4531dfb797d2"
                },
                "authored": "2021-08-03T13:07:14+00:00",
                "item": [
                    {
                        "linkId": "Tx221788",
                        "text": "STRING:to'ImmediateThreatsToLife(SPA/OOHversion)'-'ABC'menu",
                        "answer": [
                            {
                                "valueString": "\"\"present\"\""
                            }
                        ]
                    }
                ]
            }
        },
        {
            "fullUrl": "urn:uuid:16054c76-09a8-47b4-bf2e-58859321d85b",
            "resource": {
                "resourceType": "Questionnaire",
                "id": "16054c76-09a8-47b4-bf2e-58859321d85b",
                "identifier": [
                    {
                        "value": "1766759"
                    }
                ],
                "version": "2021-08-03T13:07:14.000Z",
                "status": "active",
                "experimental": false,
                "date": "2021-08-03T13:07:14+00:00",
                "publisher": "User ID: '922' User name: 'AndrewJ.Walford' User skill set: 'T4'",
                "lastReviewDate": "2021-08-03",
                "contact": [
                    {
                        "telecom": [
                            {
                                "value": "07798501130"
                            }
                        ]
                    }
                ],
                "subjectType": [
                    "Patient"
                ],
                "item": [
                    {
                        "linkId": "1766759",
                        "prefix": "500",
                        "text": "STRING:to'ImmediateThreatsToLife(SPA/OOHversion)'-'ABC'menu",
                        "type": "choice",
                        "required": true,
                        "repeats": false,
                        "option": [
                            {
                                "valueString": "\"\"present\"\", Selected: true"
                            }
                        ]
                    }
                ]
            }
        },
        {
            "fullUrl": "urn:uuid:0f60ca41-574e-407f-b1da-a2a53d1e8bb6",
            "resource": {
                "resourceType": "QuestionnaireResponse",
                "id": "0f60ca41-574e-407f-b1da-a2a53d1e8bb6",
                "identifier": {
                    "value": "1766759"
                },
                "questionnaire": {
                    "reference": "urn:uuid:42df108e-bd70-4395-80f0-44926f19f83c"
                },
                "status": "completed",
                "subject": {
                    "reference": "urn:uuid:a81dd0c5-df31-41c5-bd9e-e5602044ec51"
                },
                "context": {
                    "reference": "urn:uuid:f480ad61-2174-4bff-8739-4531dfb797d2"
                },
                "authored": "2021-08-03T13:07:14+00:00",
                "item": [
                    {
                        "linkId": "Tx221814",
                        "text": "STRING:aninjuryorotherhealthproblemestablishedinEntryFlow",
                        "answer": [
                            {
                                "valueString": "\"\"present\"\""
                            }
                        ]
                    }
                ]
            }
        },
        {
            "fullUrl": "urn:uuid:42df108e-bd70-4395-80f0-44926f19f83c",
            "resource": {
                "resourceType": "Questionnaire",
                "id": "42df108e-bd70-4395-80f0-44926f19f83c",
                "identifier": [
                    {
                        "value": "1766759"
                    }
                ],
                "version": "2021-08-03T13:07:14.000Z",
                "status": "active",
                "experimental": false,
                "date": "2021-08-03T13:07:14+00:00",
                "publisher": "User ID: '922' User name: 'AndrewJ.Walford' User skill set: 'T4'",
                "lastReviewDate": "2021-08-03",
                "contact": [
                    {
                        "telecom": [
                            {
                                "value": "07798501130"
                            }
                        ]
                    }
                ],
                "subjectType": [
                    "Patient"
                ],
                "item": [
                    {
                        "linkId": "1766759",
                        "prefix": "0",
                        "text": "STRING:aninjuryorotherhealthproblemestablishedinEntryFlow",
                        "type": "choice",
                        "required": true,
                        "repeats": false,
                        "option": [
                            {
                                "valueString": "\"\"present\"\", Selected: true"
                            }
                        ]
                    }
                ]
            }
        },
        {
            "fullUrl": "urn:uuid:a0038bb6-0177-400d-83dd-9e2359e967ea",
            "resource": {
                "resourceType": "QuestionnaireResponse",
                "id": "a0038bb6-0177-400d-83dd-9e2359e967ea",
                "identifier": {
                    "value": "1766759"
                },
                "questionnaire": {
                    "reference": "urn:uuid:0283e0eb-972b-4ae7-a0c6-a960facad5eb"
                },
                "status": "completed",
                "subject": {
                    "reference": "urn:uuid:a81dd0c5-df31-41c5-bd9e-e5602044ec51"
                },
                "context": {
                    "reference": "urn:uuid:f480ad61-2174-4bff-8739-4531dfb797d2"
                },
                "authored": "2021-08-03T13:07:14+00:00",
                "item": [
                    {
                        "linkId": "Tx224120",
                        "text": "Have you been bleeding RED BLOOD very heavily IN THE LAST 2 HOURS?",
                        "answer": [
                            {
                                "valueString": "no"
                            }
                        ]
                    }
                ]
            }
        },
        {
            "fullUrl": "urn:uuid:0283e0eb-972b-4ae7-a0c6-a960facad5eb",
            "resource": {
                "resourceType": "Questionnaire",
                "id": "0283e0eb-972b-4ae7-a0c6-a960facad5eb",
                "identifier": [
                    {
                        "value": "1766759"
                    }
                ],
                "version": "2021-08-03T13:07:14.000Z",
                "status": "active",
                "experimental": false,
                "date": "2021-08-03T13:07:14+00:00",
                "publisher": "User ID: '922' User name: 'AndrewJ.Walford' User skill set: 'T4'",
                "lastReviewDate": "2021-08-03",
                "contact": [
                    {
                        "telecom": [
                            {
                                "value": "07798501130"
                            }
                        ]
                    }
                ],
                "subjectType": [
                    "Patient"
                ],
                "item": [
                    {
                        "linkId": "1766759",
                        "prefix": "7000",
                        "text": "Have you been bleeding RED BLOOD very heavily IN THE LAST 2 HOURS?",
                        "type": "choice",
                        "required": true,
                        "repeats": false,
                        "option": [
                            {
                                "valueString": "yes, Selected: false"
                            },
                            {
                                "valueString": "not sure, Selected: false"
                            },
                            {
                                "valueString": "no, Selected: true"
                            }
                        ]
                    }
                ]
            }
        },
        {
            "fullUrl": "urn:uuid:74305ed0-8325-4054-ac16-823b6fb687b5",
            "resource": {
                "resourceType": "QuestionnaireResponse",
                "id": "74305ed0-8325-4054-ac16-823b6fb687b5",
                "identifier": {
                    "value": "1766759"
                },
                "questionnaire": {
                    "reference": "urn:uuid:c2588913-3099-4f24-8da3-4e1cd5b23624"
                },
                "status": "completed",
                "subject": {
                    "reference": "urn:uuid:a81dd0c5-df31-41c5-bd9e-e5602044ec51"
                },
                "context": {
                    "reference": "urn:uuid:f480ad61-2174-4bff-8739-4531dfb797d2"
                },
                "authored": "2021-08-03T13:07:14+00:00",
                "item": [
                    {
                        "linkId": "Tx221343",
                        "text": "SocialConcernsExcluded",
                        "answer": [
                            {
                                "valueString": "*"
                            }
                        ]
                    }
                ]
            }
        },
        {
            "fullUrl": "urn:uuid:c2588913-3099-4f24-8da3-4e1cd5b23624",
            "resource": {
                "resourceType": "Questionnaire",
                "id": "c2588913-3099-4f24-8da3-4e1cd5b23624",
                "identifier": [
                    {
                        "value": "1766759"
                    }
                ],
                "version": "2021-08-03T13:07:14.000Z",
                "status": "active",
                "experimental": false,
                "date": "2021-08-03T13:07:14+00:00",
                "publisher": "User ID: '922' User name: 'AndrewJ.Walford' User skill set: 'T4'",
                "lastReviewDate": "2021-08-03",
                "contact": [
                    {
                        "telecom": [
                            {
                                "value": "07798501130"
                            }
                        ]
                    }
                ],
                "subjectType": [
                    "Patient"
                ],
                "item": [
                    {
                        "linkId": "1766759",
                        "prefix": "2700",
                        "text": "SocialConcernsExcluded",
                        "type": "choice",
                        "required": true,
                        "repeats": false,
                        "option": [
                            {
                                "valueString": "==\"\"present\"\", Selected: false"
                            },
                            {
                                "valueString": "*, Selected: true"
                            }
                        ]
                    }
                ]
            }
        },
        {
            "fullUrl": "urn:uuid:fbe59693-d0a0-41bd-9013-9085305a85a8",
            "resource": {
                "resourceType": "QuestionnaireResponse",
                "id": "fbe59693-d0a0-41bd-9013-9085305a85a8",
                "identifier": {
                    "value": "1766759"
                },
                "questionnaire": {
                    "reference": "urn:uuid:103a4d8d-9faa-4478-9da0-007d51156457"
                },
                "status": "completed",
                "subject": {
                    "reference": "urn:uuid:a81dd0c5-df31-41c5-bd9e-e5602044ec51"
                },
                "context": {
                    "reference": "urn:uuid:f480ad61-2174-4bff-8739-4531dfb797d2"
                },
                "authored": "2021-08-03T13:07:14+00:00",
                "item": [
                    {
                        "linkId": "Tx130011",
                        "text": "What is the main problem?",
                        "answer": [
                            {
                                "valueString": "illness or other health problem (specify)"
                            }
                        ]
                    }
                ]
            }
        },
        {
            "fullUrl": "urn:uuid:103a4d8d-9faa-4478-9da0-007d51156457",
            "resource": {
                "resourceType": "Questionnaire",
                "id": "103a4d8d-9faa-4478-9da0-007d51156457",
                "identifier": [
                    {
                        "value": "1766759"
                    }
                ],
                "version": "2021-08-03T13:07:14.000Z",
                "status": "active",
                "experimental": false,
                "date": "2021-08-03T13:07:14+00:00",
                "publisher": "User ID: '922' User name: 'AndrewJ.Walford' User skill set: 'T4'",
                "lastReviewDate": "2021-08-03",
                "contact": [
                    {
                        "telecom": [
                            {
                                "value": "07798501130"
                            }
                        ]
                    }
                ],
                "subjectType": [
                    "Patient"
                ],
                "item": [
                    {
                        "linkId": "1766759",
                        "prefix": "3400",
                        "text": "What is the main problem?",
                        "type": "choice",
                        "required": true,
                        "repeats": false,
                        "option": [
                            {
                                "valueString": "the individual has been told to follow a particular course of action (specify), Selected: false"
                            },
                            {
                                "valueString": "the individual is an identified frequent caller, Selected: false"
                            },
                            {
                                "valueString": "injury (specify), Selected: false"
                            },
                            {
                                "valueString": "illness or other health problem (specify), Selected: true"
                            },
                            {
                                "valueString": "child protection/vulnerable adult concern, Selected: false"
                            },
                            {
                                "valueString": "social or domestic emergency, Selected: false"
                            },
                            {
                                "valueString": "the environment potentially poses an immediate threat to life (specify), Selected: false"
                            }
                        ]
                    }
                ]
            }
        },
        {
            "fullUrl": "urn:uuid:f6731a0c-13f4-41d4-9c5a-3f0538f9f208",
            "resource": {
                "resourceType": "QuestionnaireResponse",
                "id": "f6731a0c-13f4-41d4-9c5a-3f0538f9f208",
                "identifier": {
                    "value": "1766759"
                },
                "questionnaire": {
                    "reference": "urn:uuid:42f91f1c-b39a-42d4-9def-78bcd0c9e06b"
                },
                "status": "completed",
                "subject": {
                    "reference": "urn:uuid:a81dd0c5-df31-41c5-bd9e-e5602044ec51"
                },
                "context": {
                    "reference": "urn:uuid:f480ad61-2174-4bff-8739-4531dfb797d2"
                },
                "authored": "2021-08-03T13:07:14+00:00",
                "item": [
                    {
                        "linkId": "Tx61025",
                        "text": "Are you so breathless that speaking more than a few words is impossible?",
                        "answer": [
                            {
                                "valueString": "no"
                            }
                        ]
                    }
                ]
            }
        },
        {
            "fullUrl": "urn:uuid:42f91f1c-b39a-42d4-9def-78bcd0c9e06b",
            "resource": {
                "resourceType": "Questionnaire",
                "id": "42f91f1c-b39a-42d4-9def-78bcd0c9e06b",
                "identifier": [
                    {
                        "value": "1766759"
                    }
                ],
                "version": "2021-08-03T13:07:14.000Z",
                "status": "active",
                "experimental": false,
                "date": "2021-08-03T13:07:14+00:00",
                "publisher": "User ID: '922' User name: 'AndrewJ.Walford' User skill set: 'T4'",
                "lastReviewDate": "2021-08-03",
                "contact": [
                    {
                        "telecom": [
                            {
                                "value": "07798501130"
                            }
                        ]
                    }
                ],
                "subjectType": [
                    "Patient"
                ],
                "item": [
                    {
                        "linkId": "1766759",
                        "prefix": "0",
                        "text": "Are you so breathless that speaking more than a few words is impossible?",
                        "type": "choice",
                        "required": true,
                        "repeats": false,
                        "option": [
                            {
                                "valueString": "yes, Selected: false"
                            },
                            {
                                "valueString": "not sure, Selected: false"
                            },
                            {
                                "valueString": "no, Selected: true"
                            }
                        ]
                    }
                ]
            }
        },
        {
            "fullUrl": "urn:uuid:50a8c5a8-8ed7-40e5-aa3d-6d3b6e5df20f",
            "resource": {
                "resourceType": "QuestionnaireResponse",
                "id": "50a8c5a8-8ed7-40e5-aa3d-6d3b6e5df20f",
                "identifier": {
                    "value": "1766759"
                },
                "questionnaire": {
                    "reference": "urn:uuid:98a4095e-bc82-4da6-96ac-1af27c52b9f2"
                },
                "status": "completed",
                "subject": {
                    "reference": "urn:uuid:a81dd0c5-df31-41c5-bd9e-e5602044ec51"
                },
                "context": {
                    "reference": "urn:uuid:f480ad61-2174-4bff-8739-4531dfb797d2"
                },
                "authored": "2021-08-03T13:07:14+00:00",
                "item": [
                    {
                        "linkId": "Tx220845",
                        "text": "SYSTEM_FLUPANDEMIC",
                        "answer": [
                            {
                                "valueString": "*"
                            }
                        ]
                    }
                ]
            }
        },
        {
            "fullUrl": "urn:uuid:98a4095e-bc82-4da6-96ac-1af27c52b9f2",
            "resource": {
                "resourceType": "Questionnaire",
                "id": "98a4095e-bc82-4da6-96ac-1af27c52b9f2",
                "identifier": [
                    {
                        "value": "1766759"
                    }
                ],
                "version": "2021-08-03T13:07:14.000Z",
                "status": "active",
                "experimental": false,
                "date": "2021-08-03T13:07:14+00:00",
                "publisher": "User ID: '922' User name: 'AndrewJ.Walford' User skill set: 'T4'",
                "lastReviewDate": "2021-08-03",
                "contact": [
                    {
                        "telecom": [
                            {
                                "value": "07798501130"
                            }
                        ]
                    }
                ],
                "subjectType": [
                    "Patient"
                ],
                "item": [
                    {
                        "linkId": "1766759",
                        "prefix": "100",
                        "text": "SYSTEM_FLUPANDEMIC",
                        "type": "choice",
                        "required": true,
                        "repeats": false,
                        "option": [
                            {
                                "valueString": "==\"\"pandemic\"\", Selected: false"
                            },
                            {
                                "valueString": "*, Selected: true"
                            }
                        ]
                    }
                ]
            }
        },
        {
            "fullUrl": "urn:uuid:7364a698-eab5-4b9c-9c8f-8d1a920f6ab5",
            "resource": {
                "resourceType": "QuestionnaireResponse",
                "id": "7364a698-eab5-4b9c-9c8f-8d1a920f6ab5",
                "identifier": {
                    "value": "1766759"
                },
                "questionnaire": {
                    "reference": "urn:uuid:a5e5afdb-0831-4f0a-ac45-e9dbea205b02"
                },
                "status": "completed",
                "subject": {
                    "reference": "urn:uuid:a81dd0c5-df31-41c5-bd9e-e5602044ec51"
                },
                "context": {
                    "reference": "urn:uuid:f480ad61-2174-4bff-8739-4531dfb797d2"
                },
                "authored": "2021-08-03T13:07:14+00:00",
                "item": [
                    {
                        "linkId": "Tx223440",
                        "text": "WHAT IS SAID TO BE THE MAIN REASON FOR THIS CONTACT?",
                        "answer": [
                            {
                                "valueString": "more"
                            }
                        ]
                    }
                ]
            }
        },
        {
            "fullUrl": "urn:uuid:a5e5afdb-0831-4f0a-ac45-e9dbea205b02",
            "resource": {
                "resourceType": "Questionnaire",
                "id": "a5e5afdb-0831-4f0a-ac45-e9dbea205b02",
                "identifier": [
                    {
                        "value": "1766759"
                    }
                ],
                "version": "2021-08-03T13:07:14.000Z",
                "status": "active",
                "experimental": false,
                "date": "2021-08-03T13:07:14+00:00",
                "publisher": "User ID: '922' User name: 'AndrewJ.Walford' User skill set: 'T4'",
                "lastReviewDate": "2021-08-03",
                "contact": [
                    {
                        "telecom": [
                            {
                                "value": "07798501130"
                            }
                        ]
                    }
                ],
                "subjectType": [
                    "Patient"
                ],
                "item": [
                    {
                        "linkId": "1766759",
                        "prefix": "5000",
                        "text": "WHAT IS SAID TO BE THE MAIN REASON FOR THIS CONTACT?",
                        "type": "choice",
                        "required": true,
                        "repeats": false,
                        "option": [
                            {
                                "valueString": "a probable allergic reaction now, Selected: false"
                            },
                            {
                                "valueString": "a probable heart attack, Selected: false"
                            },
                            {
                                "valueString": "chest or upper back pain, Selected: false"
                            },
                            {
                                "valueString": "a probable stroke or mini-stroke, Selected: false"
                            },
                            {
                                "valueString": "a probable fit or seizure within the last 12 hours, Selected: false"
                            },
                            {
                                "valueString": "a suicide attempt, Selected: false"
                            },
                            {
                                "valueString": "more, Selected: true"
                            }
                        ]
                    }
                ]
            }
        },
        {
            "fullUrl": "urn:uuid:832dc754-d860-43af-933c-a7fb81a6b5f0",
            "resource": {
                "resourceType": "QuestionnaireResponse",
                "id": "832dc754-d860-43af-933c-a7fb81a6b5f0",
                "identifier": {
                    "value": "1766759"
                },
                "questionnaire": {
                    "reference": "urn:uuid:b6104b72-97f4-49be-b427-85f90b4db2d8"
                },
                "status": "completed",
                "subject": {
                    "reference": "urn:uuid:a81dd0c5-df31-41c5-bd9e-e5602044ec51"
                },
                "context": {
                    "reference": "urn:uuid:f480ad61-2174-4bff-8739-4531dfb797d2"
                },
                "authored": "2021-08-03T13:07:14+00:00",
                "item": [
                    {
                        "linkId": "Tx220032",
                        "text": "WHAT IS SAID TO BE THE MAIN REASON FOR THIS CONTACT?",
                        "answer": [
                            {
                                "valueString": "none of the above"
                            }
                        ]
                    }
                ]
            }
        },
        {
            "fullUrl": "urn:uuid:b6104b72-97f4-49be-b427-85f90b4db2d8",
            "resource": {
                "resourceType": "Questionnaire",
                "id": "b6104b72-97f4-49be-b427-85f90b4db2d8",
                "identifier": [
                    {
                        "value": "1766759"
                    }
                ],
                "version": "2021-08-03T13:07:14.000Z",
                "status": "active",
                "experimental": false,
                "date": "2021-08-03T13:07:14+00:00",
                "publisher": "User ID: '922' User name: 'AndrewJ.Walford' User skill set: 'T4'",
                "lastReviewDate": "2021-08-03",
                "contact": [
                    {
                        "telecom": [
                            {
                                "value": "07798501130"
                            }
                        ]
                    }
                ],
                "subjectType": [
                    "Patient"
                ],
                "item": [
                    {
                        "linkId": "1766759",
                        "prefix": "1900",
                        "text": "WHAT IS SAID TO BE THE MAIN REASON FOR THIS CONTACT?",
                        "type": "choice",
                        "required": true,
                        "repeats": false,
                        "option": [
                            {
                                "valueString": "new confusion now, Selected: false"
                            },
                            {
                                "valueString": "a diabetic hypo (low blood sugar) or a diabetic hyper (high blood sugar), Selected: false"
                            },
                            {
                                "valueString": "recovery from an ICD (implanted cardioverter defibrillator) shock, Selected: false"
                            },
                            {
                                "valueString": "none of the above, Selected: true"
                            }
                        ]
                    }
                ]
            }
        },
        {
            "fullUrl": "urn:uuid:350b3d4a-06d6-4985-881d-cd62bbe6b83a",
            "resource": {
                "resourceType": "QuestionnaireResponse",
                "id": "350b3d4a-06d6-4985-881d-cd62bbe6b83a",
                "identifier": {
                    "value": "1766759"
                },
                "questionnaire": {
                    "reference": "urn:uuid:e18f5dc6-7a75-4c39-b658-219d83a4581b"
                },
                "status": "completed",
                "subject": {
                    "reference": "urn:uuid:a81dd0c5-df31-41c5-bd9e-e5602044ec51"
                },
                "context": {
                    "reference": "urn:uuid:f480ad61-2174-4bff-8739-4531dfb797d2"
                },
                "authored": "2021-08-03T13:07:14+00:00",
                "item": [
                    {
                        "linkId": "Tx223142",
                        "text": "Does the skin on the chest, back or abdomen feel a normal temperature?",
                        "answer": [
                            {
                                "valueString": "yes - normal, warm or hot"
                            }
                        ]
                    }
                ]
            }
        },
        {
            "fullUrl": "urn:uuid:e18f5dc6-7a75-4c39-b658-219d83a4581b",
            "resource": {
                "resourceType": "Questionnaire",
                "id": "e18f5dc6-7a75-4c39-b658-219d83a4581b",
                "identifier": [
                    {
                        "value": "1766759"
                    }
                ],
                "version": "2021-08-03T13:07:14.000Z",
                "status": "active",
                "experimental": false,
                "date": "2021-08-03T13:07:14+00:00",
                "publisher": "User ID: '922' User name: 'AndrewJ.Walford' User skill set: 'T4'",
                "lastReviewDate": "2021-08-03",
                "contact": [
                    {
                        "telecom": [
                            {
                                "value": "07798501130"
                            }
                        ]
                    }
                ],
                "subjectType": [
                    "Patient"
                ],
                "item": [
                    {
                        "linkId": "1766759",
                        "prefix": "4000",
                        "text": "Does the skin on the chest, back or abdomen feel a normal temperature?",
                        "type": "choice",
                        "required": true,
                        "repeats": false,
                        "option": [
                            {
                                "valueString": "yes - normal, warm or hot, Selected: true"
                            },
                            {
                                "valueString": "not sure, Selected: false"
                            },
                            {
                                "valueString": "no - cool OR cold, Selected: false"
                            },
                            {
                                "valueString": "not safe to touch, Selected: false"
                            }
                        ]
                    }
                ]
            }
        },
        {
            "fullUrl": "urn:uuid:16b676e9-efbe-42f5-a75c-fc40d0533bf6",
            "resource": {
                "resourceType": "QuestionnaireResponse",
                "id": "16b676e9-efbe-42f5-a75c-fc40d0533bf6",
                "identifier": {
                    "value": "1766759"
                },
                "questionnaire": {
                    "reference": "urn:uuid:61a78520-ae64-463d-959d-57351ff520f7"
                },
                "status": "completed",
                "subject": {
                    "reference": "urn:uuid:a81dd0c5-df31-41c5-bd9e-e5602044ec51"
                },
                "context": {
                    "reference": "urn:uuid:f480ad61-2174-4bff-8739-4531dfb797d2"
                },
                "authored": "2021-08-03T13:07:14+00:00",
                "item": [
                    {
                        "linkId": "Tx221724",
                        "text": "STRING:ShockAsked",
                        "answer": [
                            {
                                "valueString": "\"\"present\"\""
                            }
                        ]
                    }
                ]
            }
        },
        {
            "fullUrl": "urn:uuid:61a78520-ae64-463d-959d-57351ff520f7",
            "resource": {
                "resourceType": "Questionnaire",
                "id": "61a78520-ae64-463d-959d-57351ff520f7",
                "identifier": [
                    {
                        "value": "1766759"
                    }
                ],
                "version": "2021-08-03T13:07:14.000Z",
                "status": "active",
                "experimental": false,
                "date": "2021-08-03T13:07:14+00:00",
                "publisher": "User ID: '922' User name: 'AndrewJ.Walford' User skill set: 'T4'",
                "lastReviewDate": "2021-08-03",
                "contact": [
                    {
                        "telecom": [
                            {
                                "value": "07798501130"
                            }
                        ]
                    }
                ],
                "subjectType": [
                    "Patient"
                ],
                "item": [
                    {
                        "linkId": "1766759",
                        "prefix": "3300",
                        "text": "STRING:ShockAsked",
                        "type": "choice",
                        "required": true,
                        "repeats": false,
                        "option": [
                            {
                                "valueString": "\"\"present\"\", Selected: true"
                            }
                        ]
                    }
                ]
            }
        },
        {
            "fullUrl": "urn:uuid:a5aa1e1b-5b4d-4df5-abda-9052294dfdae",
            "resource": {
                "resourceType": "QuestionnaireResponse",
                "id": "a5aa1e1b-5b4d-4df5-abda-9052294dfdae",
                "identifier": {
                    "value": "1766759"
                },
                "questionnaire": {
                    "reference": "urn:uuid:4643750b-b823-43b6-a06f-f3d8e8142e25"
                },
                "status": "completed",
                "subject": {
                    "reference": "urn:uuid:a81dd0c5-df31-41c5-bd9e-e5602044ec51"
                },
                "context": {
                    "reference": "urn:uuid:f480ad61-2174-4bff-8739-4531dfb797d2"
                },
                "authored": "2021-08-03T13:07:14+00:00"
            }
        },
        {
            "fullUrl": "urn:uuid:4643750b-b823-43b6-a06f-f3d8e8142e25",
            "resource": {
                "resourceType": "Questionnaire",
                "id": "4643750b-b823-43b6-a06f-f3d8e8142e25",
                "identifier": [
                    {
                        "value": "1766759"
                    }
                ],
                "version": "2021-08-03T13:07:14.000Z",
                "status": "active",
                "experimental": false,
                "date": "2021-08-03T13:07:14+00:00",
                "publisher": "User ID: '922' User name: 'AndrewJ.Walford' User skill set: 'T4'",
                "lastReviewDate": "2021-08-03",
                "contact": [
                    {
                        "telecom": [
                            {
                                "value": "07798501130"
                            }
                        ]
                    }
                ],
                "subjectType": [
                    "Patient"
                ]
            }
        },
        {
            "fullUrl": "urn:uuid:b0f89be7-c35a-4637-be9d-e5e34ed6c019",
            "resource": {
                "resourceType": "QuestionnaireResponse",
                "id": "b0f89be7-c35a-4637-be9d-e5e34ed6c019",
                "identifier": {
                    "value": "1766759"
                },
                "questionnaire": {
                    "reference": "urn:uuid:767ce8fa-822a-45be-b1d9-7296f47855e2"
                },
                "status": "completed",
                "subject": {
                    "reference": "urn:uuid:a81dd0c5-df31-41c5-bd9e-e5602044ec51"
                },
                "context": {
                    "reference": "urn:uuid:f480ad61-2174-4bff-8739-4531dfb797d2"
                },
                "authored": "2021-08-03T13:07:14+00:00",
                "item": [
                    {
                        "linkId": "Tx222984",
                        "text": "WHAT IS THE MAIN PROBLEM?",
                        "answer": [
                            {
                                "valueString": "more"
                            }
                        ]
                    }
                ]
            }
        },
        {
            "fullUrl": "urn:uuid:767ce8fa-822a-45be-b1d9-7296f47855e2",
            "resource": {
                "resourceType": "Questionnaire",
                "id": "767ce8fa-822a-45be-b1d9-7296f47855e2",
                "identifier": [
                    {
                        "value": "1766759"
                    }
                ],
                "version": "2021-08-03T13:07:14.000Z",
                "status": "active",
                "experimental": false,
                "date": "2021-08-03T13:07:14+00:00",
                "publisher": "User ID: '922' User name: 'AndrewJ.Walford' User skill set: 'T4'",
                "lastReviewDate": "2021-08-03",
                "contact": [
                    {
                        "telecom": [
                            {
                                "value": "07798501130"
                            }
                        ]
                    }
                ],
                "subjectType": [
                    "Patient"
                ],
                "item": [
                    {
                        "linkId": "1766759",
                        "prefix": "0",
                        "text": "WHAT IS THE MAIN PROBLEM?",
                        "type": "choice",
                        "required": true,
                        "repeats": false,
                        "option": [
                            {
                                "valueString": "a rash, Selected: false"
                            },
                            {
                                "valueString": "itch, Selected: false"
                            },
                            {
                                "valueString": "yellow skin, Selected: false"
                            },
                            {
                                "valueString": "skin lumps, Selected: false"
                            },
                            {
                                "valueString": "easy or unexplained bruising, Selected: false"
                            },
                            {
                                "valueString": "more, Selected: true"
                            }
                        ]
                    }
                ]
            }
        },
        {
            "fullUrl": "urn:uuid:67e560b1-d0bc-4d44-a932-01ec62852157",
            "resource": {
                "resourceType": "QuestionnaireResponse",
                "id": "67e560b1-d0bc-4d44-a932-01ec62852157",
                "identifier": {
                    "value": "1766759"
                },
                "questionnaire": {
                    "reference": "urn:uuid:74c4df66-312b-42c6-8dad-17c6590799d6"
                },
                "status": "completed",
                "subject": {
                    "reference": "urn:uuid:a81dd0c5-df31-41c5-bd9e-e5602044ec51"
                },
                "context": {
                    "reference": "urn:uuid:f480ad61-2174-4bff-8739-4531dfb797d2"
                },
                "authored": "2021-08-03T13:07:14+00:00",
                "item": [
                    {
                        "linkId": "Tx222985",
                        "text": "WHAT IS THE MAIN PROBLEM?",
                        "answer": [
                            {
                                "valueString": "declared head lice"
                            }
                        ]
                    }
                ]
            }
        },
        {
            "fullUrl": "urn:uuid:74c4df66-312b-42c6-8dad-17c6590799d6",
            "resource": {
                "resourceType": "Questionnaire",
                "id": "74c4df66-312b-42c6-8dad-17c6590799d6",
                "identifier": [
                    {
                        "value": "1766759"
                    }
                ],
                "version": "2021-08-03T13:07:14.000Z",
                "status": "active",
                "experimental": false,
                "date": "2021-08-03T13:07:14+00:00",
                "publisher": "User ID: '922' User name: 'AndrewJ.Walford' User skill set: 'T4'",
                "lastReviewDate": "2021-08-03",
                "contact": [
                    {
                        "telecom": [
                            {
                                "value": "07798501130"
                            }
                        ]
                    }
                ],
                "subjectType": [
                    "Patient"
                ],
                "item": [
                    {
                        "linkId": "1766759",
                        "prefix": "700",
                        "text": "WHAT IS THE MAIN PROBLEM?",
                        "type": "choice",
                        "required": true,
                        "repeats": false,
                        "option": [
                            {
                                "valueString": "declared head lice, Selected: true"
                            },
                            {
                                "valueString": "declared pubic lice, Selected: false"
                            },
                            {
                                "valueString": "declared scabies, Selected: false"
                            },
                            {
                                "valueString": "declared athlete's foot, Selected: false"
                            },
                            {
                                "valueString": "acne, spots or pimples, Selected: false"
                            },
                            {
                                "valueString": "more, Selected: false"
                            }
                        ]
                    }
                ]
            }
        },
        {
            "fullUrl": "urn:uuid:77beee7f-52b5-43b2-9024-004a5766d6f1",
            "resource": {
                "resourceType": "QuestionnaireResponse",
                "id": "77beee7f-52b5-43b2-9024-004a5766d6f1",
                "identifier": {
                    "value": "1766759"
                },
                "questionnaire": {
                    "reference": "urn:uuid:8941e2d7-a3d0-4671-bf83-6c2a33796124"
                },
                "status": "completed",
                "subject": {
                    "reference": "urn:uuid:a81dd0c5-df31-41c5-bd9e-e5602044ec51"
                },
                "context": {
                    "reference": "urn:uuid:f480ad61-2174-4bff-8739-4531dfb797d2"
                },
                "authored": "2021-08-03T13:07:14+00:00",
                "item": [
                    {
                        "linkId": "Tx220667",
                        "text": "Have you been in contact with somebody with head lice or nits?",
                        "answer": [
                            {
                                "valueString": "yes"
                            }
                        ]
                    }
                ]
            }
        },
        {
            "fullUrl": "urn:uuid:8941e2d7-a3d0-4671-bf83-6c2a33796124",
            "resource": {
                "resourceType": "Questionnaire",
                "id": "8941e2d7-a3d0-4671-bf83-6c2a33796124",
                "identifier": [
                    {
                        "value": "1766759"
                    }
                ],
                "version": "2021-08-03T13:07:14.000Z",
                "status": "active",
                "experimental": false,
                "date": "2021-08-03T13:07:14+00:00",
                "publisher": "User ID: '922' User name: 'AndrewJ.Walford' User skill set: 'T4'",
                "lastReviewDate": "2021-08-03",
                "contact": [
                    {
                        "telecom": [
                            {
                                "value": "07798501130"
                            }
                        ]
                    }
                ],
                "subjectType": [
                    "Patient"
                ],
                "item": [
                    {
                        "linkId": "1766759",
                        "prefix": "0",
                        "text": "Have you been in contact with somebody with head lice or nits?",
                        "type": "choice",
                        "required": true,
                        "repeats": false,
                        "option": [
                            {
                                "valueString": "yes, Selected: true"
                            },
                            {
                                "valueString": "not sure, Selected: false"
                            },
                            {
                                "valueString": "no, Selected: false"
                            }
                        ]
                    }
                ]
            }
        },
        {
            "fullUrl": "urn:uuid:868b5955-2dcd-423d-bf6a-b77efc2aeccf",
            "resource": {
                "resourceType": "QuestionnaireResponse",
                "id": "868b5955-2dcd-423d-bf6a-b77efc2aeccf",
                "identifier": {
                    "value": "1766759"
                },
                "questionnaire": {
                    "reference": "urn:uuid:13354ab7-351a-4d16-84a7-a80f85e4edd6"
                },
                "status": "completed",
                "subject": {
                    "reference": "urn:uuid:a81dd0c5-df31-41c5-bd9e-e5602044ec51"
                },
                "context": {
                    "reference": "urn:uuid:f480ad61-2174-4bff-8739-4531dfb797d2"
                },
                "authored": "2021-08-03T13:07:14+00:00",
                "item": [
                    {
                        "linkId": "Tx220664",
                        "text": "Have you lost patches or clumps of hair OVER THE LAST FEW WEEKS?",
                        "answer": [
                            {
                                "valueString": "yes"
                            }
                        ]
                    }
                ]
            }
        },
        {
            "fullUrl": "urn:uuid:13354ab7-351a-4d16-84a7-a80f85e4edd6",
            "resource": {
                "resourceType": "Questionnaire",
                "id": "13354ab7-351a-4d16-84a7-a80f85e4edd6",
                "identifier": [
                    {
                        "value": "1766759"
                    }
                ],
                "version": "2021-08-03T13:07:14.000Z",
                "status": "active",
                "experimental": false,
                "date": "2021-08-03T13:07:14+00:00",
                "publisher": "User ID: '922' User name: 'AndrewJ.Walford' User skill set: 'T4'",
                "lastReviewDate": "2021-08-03",
                "contact": [
                    {
                        "telecom": [
                            {
                                "value": "07798501130"
                            }
                        ]
                    }
                ],
                "subjectType": [
                    "Patient"
                ],
                "item": [
                    {
                        "linkId": "1766759",
                        "prefix": "300",
                        "text": "Have you lost patches or clumps of hair OVER THE LAST FEW WEEKS?",
                        "type": "choice",
                        "required": true,
                        "repeats": false,
                        "option": [
                            {
                                "valueString": "yes, Selected: true"
                            },
                            {
                                "valueString": "not sure, Selected: false"
                            },
                            {
                                "valueString": "no, Selected: false"
                            }
                        ]
                    }
                ]
            }
        },
        {
            "fullUrl": "urn:uuid:0aac87e0-dcd1-476e-9c4c-747ffe2261cb",
            "resource": {
                "resourceType": "QuestionnaireResponse",
                "id": "0aac87e0-dcd1-476e-9c4c-747ffe2261cb",
                "identifier": {
                    "value": "1766759"
                },
                "questionnaire": {
                    "reference": "urn:uuid:3ccbeaa1-67c2-49a4-9a89-47a29dc15a12"
                },
                "status": "completed",
                "subject": {
                    "reference": "urn:uuid:a81dd0c5-df31-41c5-bd9e-e5602044ec51"
                },
                "context": {
                    "reference": "urn:uuid:f480ad61-2174-4bff-8739-4531dfb797d2"
                },
                "authored": "2021-08-03T13:07:14+00:00",
                "item": [
                    {
                        "linkId": "Tx221449",
                        "text": "STRING:SDPCFullPrimaryCareassessmentandprescribingcapability",
                        "answer": [
                            {
                                "valueString": "\"\"PC full Primary Care assessment and prescribing capability\"\""
                            }
                        ]
                    }
                ]
            }
        },
        {
            "fullUrl": "urn:uuid:3ccbeaa1-67c2-49a4-9a89-47a29dc15a12",
            "resource": {
                "resourceType": "Questionnaire",
                "id": "3ccbeaa1-67c2-49a4-9a89-47a29dc15a12",
                "identifier": [
                    {
                        "value": "1766759"
                    }
                ],
                "version": "2021-08-03T13:07:14.000Z",
                "status": "active",
                "experimental": false,
                "date": "2021-08-03T13:07:14+00:00",
                "publisher": "User ID: '922' User name: 'AndrewJ.Walford' User skill set: 'T4'",
                "lastReviewDate": "2021-08-03",
                "contact": [
                    {
                        "telecom": [
                            {
                                "value": "07798501130"
                            }
                        ]
                    }
                ],
                "subjectType": [
                    "Patient"
                ],
                "item": [
                    {
                        "linkId": "1766759",
                        "prefix": "500",
                        "text": "STRING:SDPCFullPrimaryCareassessmentandprescribingcapability",
                        "type": "choice",
                        "required": true,
                        "repeats": false,
                        "option": [
                            {
                                "valueString": "\"\"PC full Primary Care assessment and prescribing capability\"\", Selected: true"
                            }
                        ]
                    }
                ]
            }
        },
        {
            "fullUrl": "urn:uuid:4ba221d7-43bc-4931-8805-65f4dd2d6386",
            "resource": {
                "resourceType": "QuestionnaireResponse",
                "id": "4ba221d7-43bc-4931-8805-65f4dd2d6386",
                "identifier": {
                    "value": "1766759"
                },
                "questionnaire": {
                    "reference": "urn:uuid:d82390e4-9c43-49b2-8052-16fbd7ba33c6"
                },
                "status": "completed",
                "subject": {
                    "reference": "urn:uuid:a81dd0c5-df31-41c5-bd9e-e5602044ec51"
                },
                "context": {
                    "reference": "urn:uuid:f480ad61-2174-4bff-8739-4531dfb797d2"
                },
                "authored": "2021-08-03T13:07:14+00:00"
            }
        },
        {
            "fullUrl": "urn:uuid:d82390e4-9c43-49b2-8052-16fbd7ba33c6",
            "resource": {
                "resourceType": "Questionnaire",
                "id": "d82390e4-9c43-49b2-8052-16fbd7ba33c6",
                "identifier": [
                    {
                        "value": "1766759"
                    }
                ],
                "version": "2021-08-03T13:07:14.000Z",
                "status": "active",
                "experimental": false,
                "date": "2021-08-03T13:07:14+00:00",
                "publisher": "User ID: '922' User name: 'AndrewJ.Walford' User skill set: 'T4'",
                "lastReviewDate": "2021-08-03",
                "contact": [
                    {
                        "telecom": [
                            {
                                "value": "07798501130"
                            }
                        ]
                    }
                ],
                "subjectType": [
                    "Patient"
                ]
            }
        },
        {
            "fullUrl": "urn:uuid:16d1c476-5303-404f-be80-36c09f4d88dc",
            "resource": {
                "resourceType": "QuestionnaireResponse",
                "id": "16d1c476-5303-404f-be80-36c09f4d88dc",
                "identifier": {
                    "value": "1766759"
                },
                "questionnaire": {
                    "reference": "urn:uuid:5e355e85-be69-4a19-b32b-a4be3ac4f9f7"
                },
                "status": "completed",
                "subject": {
                    "reference": "urn:uuid:a81dd0c5-df31-41c5-bd9e-e5602044ec51"
                },
                "context": {
                    "reference": "urn:uuid:f480ad61-2174-4bff-8739-4531dfb797d2"
                },
                "authored": "2021-08-03T13:07:14+00:00",
                "item": [
                    {
                        "linkId": "N/A"
                    }
                ]
            }
        },
        {
            "fullUrl": "urn:uuid:5e355e85-be69-4a19-b32b-a4be3ac4f9f7",
            "resource": {
                "resourceType": "Questionnaire",
                "id": "5e355e85-be69-4a19-b32b-a4be3ac4f9f7",
                "identifier": [
                    {
                        "value": "1766759"
                    }
                ],
                "version": "2021-08-03T13:07:14.000Z",
                "status": "active",
                "experimental": false,
                "date": "2021-08-03T13:07:14+00:00",
                "publisher": "User ID: '922' User name: 'AndrewJ.Walford' User skill set: 'T4'",
                "lastReviewDate": "2021-08-03",
                "contact": [
                    {
                        "telecom": [
                            {
                                "value": "07798501130"
                            }
                        ]
                    }
                ],
                "subjectType": [
                    "Patient"
                ],
                "item": [
                    {
                        "linkId": "1766759",
                        "type": "choice",
                        "required": true,
                        "repeats": false,
                        "option": [
                            {
                                "valueString": ", Selected: false"
                            }
                        ]
                    }
                ]
            }
        },
        {
            "fullUrl": "urn:uuid:bc3b9104-863b-496e-85f6-1106df6de44a",
            "resource": {
                "resourceType": "QuestionnaireResponse",
                "id": "bc3b9104-863b-496e-85f6-1106df6de44a",
                "identifier": {
                    "value": "1766759"
                },
                "questionnaire": {
                    "reference": "urn:uuid:51b01e59-66ca-4d9e-872d-ce486f80b016"
                },
                "status": "completed",
                "subject": {
                    "reference": "urn:uuid:a81dd0c5-df31-41c5-bd9e-e5602044ec51"
                },
                "context": {
                    "reference": "urn:uuid:f480ad61-2174-4bff-8739-4531dfb797d2"
                },
                "authored": "2021-08-03T13:07:14+00:00"
            }
        },
        {
            "fullUrl": "urn:uuid:51b01e59-66ca-4d9e-872d-ce486f80b016",
            "resource": {
                "resourceType": "Questionnaire",
                "id": "51b01e59-66ca-4d9e-872d-ce486f80b016",
                "identifier": [
                    {
                        "value": "1766759"
                    }
                ],
                "version": "2021-08-03T13:07:14.000Z",
                "status": "active",
                "experimental": false,
                "date": "2021-08-03T13:07:14+00:00",
                "publisher": "User ID: '922' User name: 'AndrewJ.Walford' User skill set: 'T4'",
                "lastReviewDate": "2021-08-03",
                "contact": [
                    {
                        "telecom": [
                            {
                                "value": "07798501130"
                            }
                        ]
                    }
                ],
                "subjectType": [
                    "Patient"
                ]
            }
        },
        {
            "fullUrl": "urn:uuid:4168eb68-2d71-4f18-bbad-34dc649b613b",
            "resource": {
                "resourceType": "Observation",
                "id": "4168eb68-2d71-4f18-bbad-34dc649b613b",
                "status": "final",
                "code": {
                    "coding": [
                        {
                            "system": "http://snomed.info/sct",
                            "code": "33962009",
                            "display": "Presenting complaint"
                        }
                    ]
                },
                "subject": {
                    "reference": "urn:uuid:a81dd0c5-df31-41c5-bd9e-e5602044ec51"
                },
                "context": {
                    "reference": "urn:uuid:f480ad61-2174-4bff-8739-4531dfb797d2"
                }
            }
        },
        {
            "fullUrl": "urn:uuid:b43963cd-5e81-4b16-a2cc-894c8d0bdbce",
            "resource": {
                "resourceType": "PractitionerRole",
                "id": "b43963cd-5e81-4b16-a2cc-894c8d0bdbce",
                "practitioner": {
                    "reference": "urn:uuid:6335338b-8452-4964-bda7-6743ba8ffe58"
                },
                "organization": {
                    "reference": "urn:uuid:4271bd52-8cbc-4725-befc-d6b4401046ab"
                },
                "code": [
                    {
                        "coding": [
                            {
                                "system": "2.16.840.1.113883.2.1.3.2.4.17.339",
                                "code": "NP",
                                "display": "Nurse Practitioner"
                            }
                        ]
                    }
                ]
            }
        },
        {
            "fullUrl": "urn:uuid:4271bd52-8cbc-4725-befc-d6b4401046ab",
            "resource": {
                "resourceType": "Organization",
                "id": "4271bd52-8cbc-4725-befc-d6b4401046ab",
                "identifier": [
                    {
                        "value": "RX7"
                    }
                ],
                "name": "NWAS 111"
            }
        },
        {
            "fullUrl": "urn:uuid:af492e3d-d2cb-43c5-93c5-a87dc513b7f7",
            "resource": {
                "resourceType": "RelatedPerson",
                "id": "af492e3d-d2cb-43c5-93c5-a87dc513b7f7",
                "patient": {
                    "reference": "urn:uuid:a81dd0c5-df31-41c5-bd9e-e5602044ec51"
                },
                "relationship": {
                    "coding": [
                        {
                            "system": "http://hl7.org/fhir/v2/0131",
                            "code": "C",
                            "display": "Emergency Contact"
                        }
                    ]
                },
                "telecom": [
                    {
                        "system": "phone",
                        "value": "tel:07798501130"
                    }
                ]
            }
        },
        {
            "fullUrl": "urn:uuid:0ebed639-779a-45ae-813a-bb1138103184",
            "resource": {
                "resourceType": "Device",
                "id": "0ebed639-779a-45ae-813a-bb1138103184",
                "model": "111 Adaptor",
                "version": "0.8.0"
            }
        },
        {
            "fullUrl": "urn:uuid:1026f9f2-ca8a-46e3-a35b-f0f6e0375e3f",
            "resource": {
                "resourceType": "List",
                "id": "1026f9f2-ca8a-46e3-a35b-f0f6e0375e3f",
                "status": "current",
                "mode": "working",
                "title": "111 Report List",
                "code": {
                    "coding": [
                        {
                            "system": "http://snomed.info/sct",
                            "code": "225390008",
                            "display": "Triage"
                        }
                    ]
                },
                "subject": {
                    "reference": "urn:uuid:a81dd0c5-df31-41c5-bd9e-e5602044ec51"
                },
                "encounter": {
                    "reference": "urn:uuid:f480ad61-2174-4bff-8739-4531dfb797d2"
                },
                "date": "2021-09-10T15:48:12+00:00",
                "source": {
                    "reference": "urn:uuid:0ebed639-779a-45ae-813a-bb1138103184"
                },
                "orderedBy": {
                    "coding": [
                        {
                            "system": "http://hl7.org/fhir/list-order",
                            "code": "event-date",
                            "display": "Sorted by Event Date"
                        }
                    ]
                },
                "entry": [
                    {
                        "item": {
                            "reference": "urn:uuid:4271bd52-8cbc-4725-befc-d6b4401046ab"
                        }
                    },
                    {
                        "item": {
                            "reference": "urn:uuid:af492e3d-d2cb-43c5-93c5-a87dc513b7f7"
                        }
                    },
                    {
                        "item": {
                            "reference": "urn:uuid:4168eb68-2d71-4f18-bbad-34dc649b613b"
                        }
                    },
                    {
                        "item": {
                            "reference": "urn:uuid:c3a774d9-fdd0-4409-bb11-dadcb981b04b"
                        }
                    },
                    {
                        "item": {
                            "reference": "urn:uuid:1ada479c-5e9d-4fe1-a4c9-e2430b0a57ee"
                        }
                    },
                    {
                        "item": {
                            "reference": "urn:uuid:173b0d39-c6cd-4fc4-b091-0599f664ba1a"
                        }
                    },
                    {
                        "item": {
                            "reference": "urn:uuid:c5f0efea-655e-4e8d-aa0a-b28bbc033947"
                        }
                    },
                    {
                        "item": {
                            "reference": "urn:uuid:6335338b-8452-4964-bda7-6743ba8ffe58"
                        }
                    },
                    {
                        "item": {
                            "reference": "urn:uuid:e2862d03-653a-4d5a-815c-7b29fde8eae1"
                        }
                    },
                    {
                        "item": {
                            "reference": "urn:uuid:374f2375-9a3f-446c-9e27-85238ac0b225"
                        }
                    },
                    {
                        "item": {
                            "reference": "urn:uuid:67e560b1-d0bc-4d44-a932-01ec62852157"
                        }
                    },
                    {
                        "item": {
                            "reference": "urn:uuid:0aac87e0-dcd1-476e-9c4c-747ffe2261cb"
                        }
                    },
                    {
                        "item": {
                            "reference": "urn:uuid:d82390e4-9c43-49b2-8052-16fbd7ba33c6"
                        }
                    },
                    {
                        "item": {
                            "reference": "urn:uuid:b0f89be7-c35a-4637-be9d-e5e34ed6c019"
                        }
                    },
                    {
                        "item": {
                            "reference": "urn:uuid:0283e0eb-972b-4ae7-a0c6-a960facad5eb"
                        }
                    },
                    {
                        "item": {
                            "reference": "urn:uuid:42f91f1c-b39a-42d4-9def-78bcd0c9e06b"
                        }
                    },
                    {
                        "item": {
                            "reference": "urn:uuid:5944a59e-c870-48c8-8862-2e9d0aa0ffdc"
                        }
                    },
                    {
                        "item": {
                            "reference": "urn:uuid:50a8c5a8-8ed7-40e5-aa3d-6d3b6e5df20f"
                        }
                    },
                    {
                        "item": {
                            "reference": "urn:uuid:a5e5afdb-0831-4f0a-ac45-e9dbea205b02"
                        }
                    },
                    {
                        "item": {
                            "reference": "urn:uuid:868b5955-2dcd-423d-bf6a-b77efc2aeccf"
                        }
                    },
                    {
                        "item": {
                            "reference": "urn:uuid:bc3b9104-863b-496e-85f6-1106df6de44a"
                        }
                    },
                    {
                        "item": {
                            "reference": "urn:uuid:832dc754-d860-43af-933c-a7fb81a6b5f0"
                        }
                    },
                    {
                        "item": {
                            "reference": "urn:uuid:b6104b72-97f4-49be-b427-85f90b4db2d8"
                        }
                    },
                    {
                        "item": {
                            "reference": "urn:uuid:0f60ca41-574e-407f-b1da-a2a53d1e8bb6"
                        }
                    },
                    {
                        "item": {
                            "reference": "urn:uuid:8941e2d7-a3d0-4671-bf83-6c2a33796124"
                        }
                    },
                    {
                        "item": {
                            "reference": "urn:uuid:51b01e59-66ca-4d9e-872d-ce486f80b016"
                        }
                    },
                    {
                        "item": {
                            "reference": "urn:uuid:16054c76-09a8-47b4-bf2e-58859321d85b"
                        }
                    },
                    {
                        "item": {
                            "reference": "urn:uuid:f6731a0c-13f4-41d4-9c5a-3f0538f9f208"
                        }
                    },
                    {
                        "item": {
                            "reference": "urn:uuid:4ba221d7-43bc-4931-8805-65f4dd2d6386"
                        }
                    },
                    {
                        "item": {
                            "reference": "urn:uuid:7364a698-eab5-4b9c-9c8f-8d1a920f6ab5"
                        }
                    },
                    {
                        "item": {
                            "reference": "urn:uuid:61a78520-ae64-463d-959d-57351ff520f7"
                        }
                    },
                    {
                        "item": {
                            "reference": "urn:uuid:a5aa1e1b-5b4d-4df5-abda-9052294dfdae"
                        }
                    },
                    {
                        "item": {
                            "reference": "urn:uuid:767ce8fa-822a-45be-b1d9-7296f47855e2"
                        }
                    },
                    {
                        "item": {
                            "reference": "urn:uuid:a4985d56-9f04-4e3a-9aaf-c9698cca3dd3"
                        }
                    },
                    {
                        "item": {
                            "reference": "urn:uuid:a0038bb6-0177-400d-83dd-9e2359e967ea"
                        }
                    },
                    {
                        "item": {
                            "reference": "urn:uuid:3ccbeaa1-67c2-49a4-9a89-47a29dc15a12"
                        }
                    },
                    {
                        "item": {
                            "reference": "urn:uuid:77beee7f-52b5-43b2-9024-004a5766d6f1"
                        }
                    },
                    {
                        "item": {
                            "reference": "urn:uuid:e18f5dc6-7a75-4c39-b658-219d83a4581b"
                        }
                    },
                    {
                        "item": {
                            "reference": "urn:uuid:13354ab7-351a-4d16-84a7-a80f85e4edd6"
                        }
                    },
                    {
                        "item": {
                            "reference": "urn:uuid:fbe59693-d0a0-41bd-9013-9085305a85a8"
                        }
                    },
                    {
                        "item": {
                            "reference": "urn:uuid:16b676e9-efbe-42f5-a75c-fc40d0533bf6"
                        }
                    },
                    {
                        "item": {
                            "reference": "urn:uuid:74305ed0-8325-4054-ac16-823b6fb687b5"
                        }
                    },
                    {
                        "item": {
                            "reference": "urn:uuid:350b3d4a-06d6-4985-881d-cd62bbe6b83a"
                        }
                    },
                    {
                        "item": {
                            "reference": "urn:uuid:5e355e85-be69-4a19-b32b-a4be3ac4f9f7"
                        }
                    },
                    {
                        "item": {
                            "reference": "urn:uuid:1cf51f2c-9f6a-411d-ab01-461e61a4e145"
                        }
                    },
                    {
                        "item": {
                            "reference": "urn:uuid:74c4df66-312b-42c6-8dad-17c6590799d6"
                        }
                    },
                    {
                        "item": {
                            "reference": "urn:uuid:c2588913-3099-4f24-8da3-4e1cd5b23624"
                        }
                    },
                    {
                        "item": {
                            "reference": "urn:uuid:16d1c476-5303-404f-be80-36c09f4d88dc"
                        }
                    },
                    {
                        "item": {
                            "reference": "urn:uuid:98a4095e-bc82-4da6-96ac-1af27c52b9f2"
                        }
                    },
                    {
                        "item": {
                            "reference": "urn:uuid:103a4d8d-9faa-4478-9da0-007d51156457"
                        }
                    },
                    {
                        "item": {
                            "reference": "urn:uuid:4643750b-b823-43b6-a06f-f3d8e8142e25"
                        }
                    },
                    {
                        "item": {
                            "reference": "urn:uuid:42df108e-bd70-4395-80f0-44926f19f83c"
                        }
                    },
                    {
                        "item": {
                            "reference": "urn:uuid:729ee2ed-0bdc-4b19-8263-12e9789d1bfe"
                        }
                    }
                ]
            }
        }
    ]
}
