{
  "resourceType": "Bundle",
  "identifier": {
    "type": {
      "text": "ClinicalDocument VersionNumber"
    },
    "value": "1"
  },
  "type": "message",
  "entry": [ {
    "fullUrl": "urn:uuid:B447241A-CEBD-41DF-AC62-46FE8022876F",
    "resource": {
      "resourceType": "MessageHeader",
      "id": "B447241A-CEBD-41DF-AC62-46FE8022876F",
      "event": {
        "system": "https://fhir.nhs.uk/STU3/CodeSystem/EventType-1",
        "code": "referral-1",
        "display": "Referral"
      },
      "destination": [ {
        "endpoint": "urn:nhs-uk:addressing:ods:Y02837001:DOSServiceID:1340268940"
      } ],
      "timestamp": "2021-08-03T13:04:53.000+00:00",
      "source": {
        "name": "NHS 111 Adaptor",
        "endpoint": "http://localhost:8080/report"
      },
      "reason": {
        "coding": [ {
          "system": "urn:nhs-itk:ns:201005:interaction",
          "code": "urn:nhs-itk:interaction:primaryOutofHourRecipientNHS111CDADocument-v2-0"
        } ]
      }
    },
    "response": {
      "status": "success",
      "lastModified": "2022-05-09T13:25:18.985+00:00"
    }
  }, {
    "fullUrl": "urn:uuid:1a387b08-e754-4579-b5ea-476e3bcbbb95",
    "resource": {
      "resourceType": "Encounter",
      "id": "1a387b08-e754-4579-b5ea-476e3bcbbb95",
      "identifier": [ {
        "system": "2.16.840.1.113883.2.1.3.2.4.18.49",
        "value": "0163118D-0756-4A98-8F34-458721C6481F"
      }, {
        "system": "2.16.840.1.113883.2.1.3.2.4.18.34",
        "value": "1766749"
      }, {
        "system": "2.16.840.1.113883.2.1.3.2.4.18.35",
        "value": "1766749"
      } ],
      "status": "finished",
      "type": [ {
        "text": "111 Encounter Referral"
      } ],
      "subject": {
        "reference": "urn:uuid:7416fc1a-4d65-4ede-b7f1-048c454f9be0"
      },
      "participant": [ {
        "type": [ {
          "coding": [ {
            "system": "http://hl7.org/fhir/ValueSet/encounter-participant-type",
            "code": "PPRF",
            "display": "Author"
          } ]
        } ],
        "individual": {
          "reference": "urn:uuid:e71c459c-46eb-4698-a40d-75adbb14ffa1"
        }
      } ],
      "period": {
        "start": "2021-08-03T12:35:22+00:00",
        "end": "2021-08-03T13:04:53+00:00"
      },
      "location": [ {
        "location": {
          "reference": "urn:uuid:65e1219e-9f9c-41b1-9c41-d7c7188edb24"
        },
        "status": "completed"
      } ],
      "serviceProvider": {
        "reference": "urn:uuid:ebd9efda-4941-4b20-acd0-c05556de948c"
      }
    }
  }, {
    "fullUrl": "urn:uuid:ebd9efda-4941-4b20-acd0-c05556de948c",
    "resource": {
      "resourceType": "Organization",
      "id": "ebd9efda-4941-4b20-acd0-c05556de948c",
      "active": true,
      "type": [ {
        "text": "CST"
      } ],
      "name": "NWAS 111"
    }
  }, {
    "fullUrl": "urn:uuid:e71c459c-46eb-4698-a40d-75adbb14ffa1",
    "resource": {
      "resourceType": "Practitioner",
      "id": "e71c459c-46eb-4698-a40d-75adbb14ffa1",
      "active": true,
      "name": [ {
        "text": "AndrewJ.Walford"
      } ]
    }
  }, {
    "fullUrl": "urn:uuid:65e1219e-9f9c-41b1-9c41-d7c7188edb24",
    "resource": {
      "resourceType": "Location",
      "id": "65e1219e-9f9c-41b1-9c41-d7c7188edb24",
      "address": {
        "type": "physical",
        "line": [ "Fleetwood Health & Wellbeing Centre", "Dock Street", "Fleetwood" ],
        "postalCode": "FY7 6HP"
      }
    }
  }, {
    "fullUrl": "urn:uuid:7416fc1a-4d65-4ede-b7f1-048c454f9be0",
    "resource": {
      "resourceType": "Patient",
      "id": "7416fc1a-4d65-4ede-b7f1-048c454f9be0",
      "active": true,
      "name": [ {
        "use": "official",
        "family": "Please Disregard",
        "given": [ "Dx10 Test" ]
      } ],
      "telecom": [ {
        "system": "phone",
        "value": "tel:07798501130",
        "use": "mobile"
      }, {
        "system": "phone",
        "value": "tel:07798501130"
      } ],
      "gender": "male",
      "birthDate": "1980-01-01",
      "address": [ {
        "use": "home",
        "line": [ "Fleetwood Health & Wellbeing Centre", "Dock Street", "Fleetwood" ],
        "postalCode": "FY7 6HP"
      }, {
        "type": "physical",
        "line": [ "Fleetwood Health & Wellbeing Centre", "Dock Street", "Fleetwood" ],
        "postalCode": "FY7 6HP"
      } ]
    }
  }, {
    "fullUrl": "urn:uuid:9ca56534-216e-404d-96d2-23baa45f1f2c",
    "resource": {
      "resourceType": "HealthcareService",
      "id": "9ca56534-216e-404d-96d2-23baa45f1f2c",
      "active": true,
      "providedBy": {
        "reference": "urn:uuid:ddc9c461-d84d-41b3-a4d3-9e4bc4f05022"
      },
      "location": [ {
        "reference": "urn:uuid:b5f52202-7797-4c83-96bf-673a0e5c60f2"
      } ],
      "name": "Urgent Treatment Centre - Minor Injury Unit Same Day Health Cent",
      "telecom": [ {
        "system": "phone",
        "value": "tel:03001231144NP:01253955551",
        "use": "work"
      } ]
    }
  }, {
    "fullUrl": "urn:uuid:b5f52202-7797-4c83-96bf-673a0e5c60f2",
    "resource": {
      "resourceType": "Location",
      "id": "b5f52202-7797-4c83-96bf-673a0e5c60f2",
      "telecom": [ {
        "system": "phone",
        "value": "tel:03001231144NP:01253955551",
        "use": "work"
      } ],
      "address": {
        "use": "work",
        "line": [ "x", "x", "x" ],
        "postalCode": "FY7 6HP"
      },
      "managingOrganization": {
        "reference": "urn:uuid:ddc9c461-d84d-41b3-a4d3-9e4bc4f05022"
      }
    }
  }, {
    "fullUrl": "urn:uuid:ddc9c461-d84d-41b3-a4d3-9e4bc4f05022",
    "resource": {
      "resourceType": "Organization",
      "id": "ddc9c461-d84d-41b3-a4d3-9e4bc4f05022",
      "identifier": [ {
        "value": "Y02837001"
      } ],
      "type": [ {
        "coding": [ {
          "code": "PRCP",
          "display": "Urgent Treatment Centre - Minor Injury Unit Same Day Health Cent"
        } ]
      } ],
      "name": "Urgent Treatment Centre - Minor Injury Unit Same Day Health Cent"
    }
  }, {
    "fullUrl": "urn:uuid:317e984e-91c4-4bae-ae20-855884967d47",
    "resource": {
      "resourceType": "ReferralRequest",
      "id": "317e984e-91c4-4bae-ae20-855884967d47",
      "status": "active",
      "intent": "plan",
      "priority": "routine",
      "subject": {
        "reference": "urn:uuid:7416fc1a-4d65-4ede-b7f1-048c454f9be0"
      },
      "context": {
        "reference": "urn:uuid:1a387b08-e754-4579-b5ea-476e3bcbbb95"
      },
      "occurrencePeriod": {
        "start": "2021-08-03T13:04:53+00:00"
      },
      "authoredOn": "2021-08-03T12:35:22+00:00",
      "requester": {
        "agent": {
          "reference": "urn:uuid:6ca04a81-39d9-450e-8cfd-977de30c0990"
        },
        "onBehalfOf": {
          "reference": "urn:uuid:ebd9efda-4941-4b20-acd0-c05556de948c"
        }
      },
      "recipient": [ {
        "reference": "urn:uuid:d78ef0df-40ad-4ffe-b3d3-19ebccef6981"
      }, {
        "reference": "urn:uuid:9ca56534-216e-404d-96d2-23baa45f1f2c"
      } ],
      "reasonReference": [ {
        "reference": "urn:uuid:8b0e07b3-24f5-406d-8283-914354ee1d73"
      } ],
      "supportingInfo": [ {
        "reference": "urn:uuid:d4687f0d-63a0-445d-aa77-43fa88367259"
      } ]
    }
  }, {
    "fullUrl": "urn:uuid:d4687f0d-63a0-445d-aa77-43fa88367259",
    "resource": {
      "resourceType": "ProcedureRequest",
      "id": "d4687f0d-63a0-445d-aa77-43fa88367259",
      "status": "active",
      "intent": "plan",
      "priority": "routine",
      "doNotPerform": false,
      "code": {
        "coding": [ {
          "system": "2.16.840.1.113883.2.1.3.2.4.17.325",
          "code": "Dx10",
          "display": "Must Contact A Local Service For A Non-urgent Appointment"
        } ]
      },
      "subject": {
        "reference": "urn:uuid:7416fc1a-4d65-4ede-b7f1-048c454f9be0"
      },
      "occurrencePeriod": {
        "start": "2021-08-03T13:04:53+00:00"
      },
      "reasonReference": [ {
        "reference": "urn:uuid:8b0e07b3-24f5-406d-8283-914354ee1d73"
      } ]
    }
  }, {
    "fullUrl": "urn:uuid:d78ef0df-40ad-4ffe-b3d3-19ebccef6981",
    "resource": {
      "resourceType": "Practitioner",
      "id": "d78ef0df-40ad-4ffe-b3d3-19ebccef6981",
      "active": true,
      "telecom": [ {
        "system": "phone",
        "value": "tel:03001231144NP:01253955551",
        "use": "work"
      } ],
      "address": [ {
        "type": "physical",
        "line": [ "x", "x", "x" ],
        "postalCode": "FY7 6HP"
      } ]
    }
  }, {
    "fullUrl": "urn:uuid:49ffa2d9-9f6f-44a8-8f19-a14f8f166f10",
    "resource": {
      "resourceType": "Composition",
      "id": "49ffa2d9-9f6f-44a8-8f19-a14f8f166f10",
      "identifier": {
        "use": "usual",
        "value": "DEF337D1-08BF-4631-B11E-28F64349A031"
      },
      "status": "final",
      "type": {
        "coding": [ {
          "system": "http://snomed.info/sct",
          "code": "371531000",
          "display": "Report of clinical encounter (record artifact)"
        } ]
      },
      "subject": {
        "reference": "urn:uuid:7416fc1a-4d65-4ede-b7f1-048c454f9be0"
      },
      "encounter": {
        "reference": "urn:uuid:1a387b08-e754-4579-b5ea-476e3bcbbb95"
      },
      "date": "2021-08-03T13:04:53+00:00",
      "author": [ {
        "reference": "urn:uuid:e71c459c-46eb-4698-a40d-75adbb14ffa1"
      } ],
      "title": "111 Report",
      "confidentiality": "N",
      "section": [ {
        "section": [ {
          "title": "Patient's Reported Condition",
          "text": {
            "status": "generated",
            "div": "<div xmlns=\"http://www.w3.org/1999/xhtml\">**test From Nwas111 - No Action Required - Please Disregard Test</div>"
          }
        }, {
          "title": "Case Summary",
          "text": {
            "status": "generated",
            "div": "<div xmlns=\"http://www.w3.org/1999/xhtml\">&lt;content styleCode=&quot;bold&quot;&gt;Pathways Disposition: Dx10&lt;/content&gt;\n                                                    &lt;br/&gt;\n                                                    &lt;content&gt;Must Contact A Local Service For A Non-urgent Appointment User comment - '**Test From NWAS111 - No Action required - Please Disregard Test case**'&lt;/content&gt;\n                                                    &lt;br/&gt;\n                                                    &lt;br/&gt;\n                                                    &lt;content styleCode=&quot;bold&quot;&gt;Consultation Summary:&lt;/content&gt;\n                                                    &lt;br/&gt;\n                                                    &lt;content&gt;Illness - '**Test From NWAS111 - No Action required - Please Disregard Test case**'&lt;/content&gt;\n                                                    &lt;br/&gt;\n                                                    &lt;content&gt;Warm to touch&lt;/content&gt;\n                                                    &lt;br/&gt;\n                                                    &lt;br/&gt;\n                                                    &lt;content styleCode=&quot;bold&quot;&gt;Pathways Assessment:&lt;/content&gt;\n                                                    &lt;br/&gt;\n                                                    &lt;content&gt;An injury or health problem was the reason for the contact.&lt;/content&gt;\n                                                    &lt;br/&gt;\n                                                    &lt;content&gt;User comment - '**Test From NWAS111 - No Action required - Please Disregard Test case**'&lt;/content&gt;\n                                                    &lt;br/&gt;\n                                                    &lt;content&gt;Heavy bleeding had not occurred in the previous 2 hours.&lt;/content&gt;\n                                                    &lt;br/&gt;\n                                                    &lt;content&gt;An illness or health problem was the main problem.&lt;/content&gt;\n                                                    &lt;br/&gt;\n                                                    &lt;content&gt;User comment - '**Test From NWAS111 - No Action required - Please Disregard Test case**'&lt;/content&gt;\n                                                    &lt;br/&gt;\n                                                    &lt;content&gt;The individual was not fighting for breath.&lt;/content&gt;\n                                                    &lt;br/&gt;\n                                                    &lt;content&gt;The main reason for the assessment was not an allergic reaction, heart attack, chest/upper back pain, probable stroke, recent fit/seizure or suicide attempt.&lt;/content&gt;\n                                                    &lt;br/&gt;\n                                                    &lt;content&gt;The main reason for contact was not new confusion, declared diabetic hypo/hyperglycaemia, or ICD shock.&lt;/content&gt;\n                                                    &lt;br/&gt;\n                                                    &lt;content&gt;The skin on the torso felt normal, warm or hot.&lt;/content&gt;\n                                                    &lt;br/&gt;\n                                                    &lt;content&gt;Pathway selected - Difficulty Passing Urine&lt;/content&gt;\n                                                    &lt;br/&gt;\n                                                    &lt;content&gt;The individual was able to carry out most or all normal activities.&lt;/content&gt;\n                                                    &lt;br/&gt;\n                                                    &lt;content&gt;There was no new loss of bowel control or leg movement and no saddle or lower limb paraesthesia.&lt;/content&gt;\n                                                    &lt;br/&gt;\n                                                    &lt;content&gt;There was no inability to pass urine over the last 12 hours.&lt;/content&gt;\n                                                    &lt;br/&gt;\n                                                    &lt;content&gt;There was no new or worsening confusion.&lt;/content&gt;\n                                                    &lt;br/&gt;\n                                                    &lt;content&gt;Breathing harder or faster when doing nothing was not described.&lt;/content&gt;\n                                                    &lt;br/&gt;\n                                                    &lt;content&gt;There was no spinal pain.&lt;/content&gt;\n                                                    &lt;br/&gt;\n                                                    &lt;content&gt;The pain was not getting worse.&lt;/content&gt;\n                                                    &lt;br/&gt;\n                                                    &lt;content&gt;There was no fever at the time of assessment or within the previous 12 hours.&lt;/content&gt;\n                                                    &lt;br/&gt;\n                                                    &lt;content&gt;The individual had not experienced a back injury within the previous 4 weeks.&lt;/content&gt;\n                                                    &lt;br/&gt;\n                                                    &lt;content&gt;Medication type or dosage had not changed within the previous 2 weeks.&lt;/content&gt;\n                                                    &lt;br/&gt;\n                                                    &lt;content&gt;User comment - 'Urgent Treatment Centre - Same Day Health Centre - Fleetwood'&lt;/content&gt;\n                                                    &lt;br/&gt;\n                                                    &lt;br/&gt;\n                                                    &lt;content styleCode=&quot;bold&quot;&gt;Advice Given:&lt;/content&gt;\n                                                    &lt;br/&gt;\n                                                    &lt;content&gt;Unless advised not to, paracetamol may be used to relieve pain or fever. Follow the instructions in the pack. If in doubt ask a pharmacist.&lt;/content&gt;\n                                                    &lt;br/&gt;\n                                                    &lt;br/&gt;</div>"
          }
        } ]
      }, {
        "title": "ReferralRequest",
        "entry": [ {
          "reference": "urn:uuid:317e984e-91c4-4bae-ae20-855884967d47"
        } ]
      }, {
        "title": "QuestionnaireResponse",
        "entry": [ {
          "reference": "urn:uuid:06dff1f7-b08b-44ad-93a1-d6dd9020060b"
        } ]
      }, {
        "title": "QuestionnaireResponse",
        "entry": [ {
          "reference": "urn:uuid:6c273476-4dc2-4fe6-9788-8f9a979daca9"
        } ]
      }, {
        "title": "QuestionnaireResponse",
        "entry": [ {
          "reference": "urn:uuid:5fa3f5cc-f1be-46a1-9759-7ca376278833"
        } ]
      }, {
        "title": "QuestionnaireResponse",
        "entry": [ {
          "reference": "urn:uuid:cbd9ea5d-3e2f-4c1e-b7bf-d60f83f7912e"
        } ]
      }, {
        "title": "QuestionnaireResponse",
        "entry": [ {
          "reference": "urn:uuid:921716b6-08c1-4887-a939-2e43752a72c5"
        } ]
      }, {
        "title": "QuestionnaireResponse",
        "entry": [ {
          "reference": "urn:uuid:aa24a4f1-9822-4935-a4f8-c52abdcb835f"
        } ]
      }, {
        "title": "QuestionnaireResponse",
        "entry": [ {
          "reference": "urn:uuid:69a829bd-a629-41ea-a32b-d07a5b30238d"
        } ]
      }, {
        "title": "QuestionnaireResponse",
        "entry": [ {
          "reference": "urn:uuid:cf3a8c5c-ba4d-47ef-8e36-6dcea0910861"
        } ]
      }, {
        "title": "QuestionnaireResponse",
        "entry": [ {
          "reference": "urn:uuid:45b3d68e-89bf-4a38-a872-5ece18e9de81"
        } ]
      }, {
        "title": "QuestionnaireResponse",
        "entry": [ {
          "reference": "urn:uuid:768728d2-e696-45fc-b083-451c26d6b39c"
        } ]
      }, {
        "title": "QuestionnaireResponse",
        "entry": [ {
          "reference": "urn:uuid:16841c10-2d98-4d84-89f4-c725e4f0c508"
        } ]
      }, {
        "title": "QuestionnaireResponse",
        "entry": [ {
          "reference": "urn:uuid:841a3865-ff56-4b05-b917-9381fbc27731"
        } ]
      }, {
        "title": "QuestionnaireResponse",
        "entry": [ {
          "reference": "urn:uuid:ef69d0d3-27de-4b5e-89b7-963bd0b1649c"
        } ]
      }, {
        "title": "QuestionnaireResponse",
        "entry": [ {
          "reference": "urn:uuid:c0322257-bfeb-43f2-ac71-a7c846119341"
        } ]
      }, {
        "title": "QuestionnaireResponse",
        "entry": [ {
          "reference": "urn:uuid:345222c8-4784-4c5b-9fd9-8c441c7b8bf8"
        } ]
      }, {
        "title": "QuestionnaireResponse",
        "entry": [ {
          "reference": "urn:uuid:694b5e4d-e9de-41e0-9276-7b1ddafe0e61"
        } ]
      }, {
        "title": "QuestionnaireResponse",
        "entry": [ {
          "reference": "urn:uuid:8abb309c-bba1-41ff-9118-a97fcb0973d5"
        } ]
      }, {
        "title": "QuestionnaireResponse",
        "entry": [ {
          "reference": "urn:uuid:8334b1d5-a160-4ef4-8d59-f229e3db8173"
        } ]
      }, {
        "title": "QuestionnaireResponse",
        "entry": [ {
          "reference": "urn:uuid:aeeb2efc-d70f-49e3-8f0d-b5ddfd84dbbb"
        } ]
      }, {
        "title": "QuestionnaireResponse",
        "entry": [ {
          "reference": "urn:uuid:4befbce8-4eec-412c-bb26-9ca1dc0760a8"
        } ]
      }, {
        "title": "QuestionnaireResponse",
        "entry": [ {
          "reference": "urn:uuid:18bef781-bd99-4703-951f-2d07057ef455"
        } ]
      }, {
        "title": "QuestionnaireResponse",
        "entry": [ {
          "reference": "urn:uuid:de265d5d-fd23-4973-9732-63d009a53dd5"
        } ]
      }, {
        "title": "QuestionnaireResponse",
        "entry": [ {
          "reference": "urn:uuid:ad83f718-17c6-4cbf-a230-5fdc166de586"
        } ]
      }, {
        "title": "QuestionnaireResponse",
        "entry": [ {
          "reference": "urn:uuid:c667d2c1-9c7a-4c5e-81e0-a887104c37e6"
        } ]
      }, {
        "title": "QuestionnaireResponse",
        "entry": [ {
          "reference": "urn:uuid:395453aa-d232-4541-aca9-84ae1a10babb"
        } ]
      }, {
        "title": "QuestionnaireResponse",
        "entry": [ {
          "reference": "urn:uuid:e1864fd1-1c9e-4420-9d08-4f8bb330ad93"
        } ]
      }, {
        "title": "QuestionnaireResponse",
        "entry": [ {
          "reference": "urn:uuid:d7c5eb6d-609e-4070-84d0-a855c2059e02"
        } ]
      }, {
        "title": "QuestionnaireResponse",
        "entry": [ {
          "reference": "urn:uuid:1ccf33d9-666d-4199-9dd5-5f267d8dc6b1"
        } ]
      }, {
        "title": "QuestionnaireResponse",
        "entry": [ {
          "reference": "urn:uuid:1e5d8033-eccd-4f9d-8c2e-523df7c103ce"
        } ]
      }, {
        "title": "QuestionnaireResponse",
        "entry": [ {
          "reference": "urn:uuid:4d24a3b0-2e5e-48e8-a0c5-49d53ba67afa"
        } ]
      }, {
        "title": "QuestionnaireResponse",
        "entry": [ {
          "reference": "urn:uuid:da9b4053-3bc8-4580-bbbb-9a9ca5197681"
        } ]
      }, {
        "title": "QuestionnaireResponse",
        "entry": [ {
          "reference": "urn:uuid:7139ccae-71ea-4c67-936f-20f4cbc907e2"
        } ]
      } ]
    }
  }, {
    "fullUrl": "urn:uuid:fed60ecc-2d6f-4eaf-8790-4ce17200a45e",
    "resource": {
      "resourceType": "Consent",
      "id": "fed60ecc-2d6f-4eaf-8790-4ce17200a45e",
      "identifier": {
        "use": "usual",
        "value": "DEF337D1-08BF-4631-B11E-28F64349A031"
      },
      "status": "active",
      "patient": {
        "reference": "urn:uuid:7416fc1a-4d65-4ede-b7f1-048c454f9be0"
      },
      "period": {
        "start": "2021-08-03T12:35:22+00:00",
        "end": "2021-08-03T13:04:53+00:00"
      },
      "consentingParty": [ {
        "reference": "urn:uuid:7416fc1a-4d65-4ede-b7f1-048c454f9be0"
      } ],
      "action": [ {
        "coding": [ {
          "system": "http://snomed.info/sct",
          "code": "425691002",
          "display": "Consent given for electronic record sharing"
        } ],
        "text": "Consent given for electronic record sharing"
      } ],
      "organization": [ {
        "reference": "urn:uuid:ebd9efda-4941-4b20-acd0-c05556de948c"
      } ],
      "policyRule": "http://hl7.org/fhir/ConsentPolicy/opt-out",
      "data": [ {
        "meaning": "related",
        "reference": {
          "reference": "urn:uuid:1a387b08-e754-4579-b5ea-476e3bcbbb95"
        }
      } ]
    }
  }, {
    "fullUrl": "urn:uuid:8b0e07b3-24f5-406d-8283-914354ee1d73",
    "resource": {
      "resourceType": "Condition",
      "id": "8b0e07b3-24f5-406d-8283-914354ee1d73",
      "clinicalStatus": "active",
      "verificationStatus": "unknown",
      "subject": {
        "reference": "urn:uuid:7416fc1a-4d65-4ede-b7f1-048c454f9be0"
      },
      "context": {
        "reference": "urn:uuid:1a387b08-e754-4579-b5ea-476e3bcbbb95"
      },
      "evidence": [ {
        "detail": [ {
          "reference": "urn:uuid:06dff1f7-b08b-44ad-93a1-d6dd9020060b"
        } ]
      }, {
        "detail": [ {
          "reference": "urn:uuid:6c273476-4dc2-4fe6-9788-8f9a979daca9"
        } ]
      }, {
        "detail": [ {
          "reference": "urn:uuid:5fa3f5cc-f1be-46a1-9759-7ca376278833"
        } ]
      }, {
        "detail": [ {
          "reference": "urn:uuid:cbd9ea5d-3e2f-4c1e-b7bf-d60f83f7912e"
        } ]
      }, {
        "detail": [ {
          "reference": "urn:uuid:921716b6-08c1-4887-a939-2e43752a72c5"
        } ]
      }, {
        "detail": [ {
          "reference": "urn:uuid:aa24a4f1-9822-4935-a4f8-c52abdcb835f"
        } ]
      }, {
        "detail": [ {
          "reference": "urn:uuid:69a829bd-a629-41ea-a32b-d07a5b30238d"
        } ]
      }, {
        "detail": [ {
          "reference": "urn:uuid:cf3a8c5c-ba4d-47ef-8e36-6dcea0910861"
        } ]
      }, {
        "detail": [ {
          "reference": "urn:uuid:45b3d68e-89bf-4a38-a872-5ece18e9de81"
        } ]
      }, {
        "detail": [ {
          "reference": "urn:uuid:768728d2-e696-45fc-b083-451c26d6b39c"
        } ]
      }, {
        "detail": [ {
          "reference": "urn:uuid:16841c10-2d98-4d84-89f4-c725e4f0c508"
        } ]
      }, {
        "detail": [ {
          "reference": "urn:uuid:841a3865-ff56-4b05-b917-9381fbc27731"
        } ]
      }, {
        "detail": [ {
          "reference": "urn:uuid:ef69d0d3-27de-4b5e-89b7-963bd0b1649c"
        } ]
      }, {
        "detail": [ {
          "reference": "urn:uuid:c0322257-bfeb-43f2-ac71-a7c846119341"
        } ]
      }, {
        "detail": [ {
          "reference": "urn:uuid:345222c8-4784-4c5b-9fd9-8c441c7b8bf8"
        } ]
      }, {
        "detail": [ {
          "reference": "urn:uuid:694b5e4d-e9de-41e0-9276-7b1ddafe0e61"
        } ]
      }, {
        "detail": [ {
          "reference": "urn:uuid:8abb309c-bba1-41ff-9118-a97fcb0973d5"
        } ]
      }, {
        "detail": [ {
          "reference": "urn:uuid:8334b1d5-a160-4ef4-8d59-f229e3db8173"
        } ]
      }, {
        "detail": [ {
          "reference": "urn:uuid:aeeb2efc-d70f-49e3-8f0d-b5ddfd84dbbb"
        } ]
      }, {
        "detail": [ {
          "reference": "urn:uuid:4befbce8-4eec-412c-bb26-9ca1dc0760a8"
        } ]
      }, {
        "detail": [ {
          "reference": "urn:uuid:18bef781-bd99-4703-951f-2d07057ef455"
        } ]
      }, {
        "detail": [ {
          "reference": "urn:uuid:de265d5d-fd23-4973-9732-63d009a53dd5"
        } ]
      }, {
        "detail": [ {
          "reference": "urn:uuid:ad83f718-17c6-4cbf-a230-5fdc166de586"
        } ]
      }, {
        "detail": [ {
          "reference": "urn:uuid:c667d2c1-9c7a-4c5e-81e0-a887104c37e6"
        } ]
      }, {
        "detail": [ {
          "reference": "urn:uuid:395453aa-d232-4541-aca9-84ae1a10babb"
        } ]
      }, {
        "detail": [ {
          "reference": "urn:uuid:e1864fd1-1c9e-4420-9d08-4f8bb330ad93"
        } ]
      }, {
        "detail": [ {
          "reference": "urn:uuid:d7c5eb6d-609e-4070-84d0-a855c2059e02"
        } ]
      }, {
        "detail": [ {
          "reference": "urn:uuid:1ccf33d9-666d-4199-9dd5-5f267d8dc6b1"
        } ]
      }, {
        "detail": [ {
          "reference": "urn:uuid:1e5d8033-eccd-4f9d-8c2e-523df7c103ce"
        } ]
      }, {
        "detail": [ {
          "reference": "urn:uuid:4d24a3b0-2e5e-48e8-a0c5-49d53ba67afa"
        } ]
      }, {
        "detail": [ {
          "reference": "urn:uuid:da9b4053-3bc8-4580-bbbb-9a9ca5197681"
        } ]
      }, {
        "detail": [ {
          "reference": "urn:uuid:7139ccae-71ea-4c67-936f-20f4cbc907e2"
        } ]
      } ]
    }
  }, {
    "fullUrl": "urn:uuid:06dff1f7-b08b-44ad-93a1-d6dd9020060b",
    "resource": {
      "resourceType": "QuestionnaireResponse",
      "id": "06dff1f7-b08b-44ad-93a1-d6dd9020060b",
      "identifier": {
        "value": "1766749"
      },
      "questionnaire": {
        "reference": "urn:uuid:64b0648d-a553-49d0-b9a3-ca220a3d7383"
      },
      "status": "completed",
      "subject": {
        "reference": "urn:uuid:7416fc1a-4d65-4ede-b7f1-048c454f9be0"
      },
      "context": {
        "reference": "urn:uuid:1a387b08-e754-4579-b5ea-476e3bcbbb95"
      },
      "authored": "2021-08-03T13:04:53+00:00",
      "item": [ {
        "linkId": "Tx220109",
        "text": "What is the reason for the contact?",
        "answer": [ {
          "valueString": "an injury or other health problem"
        } ]
      } ]
    }
  }, {
    "fullUrl": "urn:uuid:64b0648d-a553-49d0-b9a3-ca220a3d7383",
    "resource": {
      "resourceType": "Questionnaire",
      "id": "64b0648d-a553-49d0-b9a3-ca220a3d7383",
      "identifier": [ {
        "value": "1766749"
      } ],
      "version": "2021-08-03T13:04:53.000Z",
      "status": "active",
      "experimental": false,
      "date": "2021-08-03T13:04:53+00:00",
      "publisher": "User ID: '922' User name: 'AndrewJ.Walford' User skill set: 'T4'",
      "lastReviewDate": "2021-08-03",
      "contact": [ {
        "telecom": [ {
          "system": "phone",
          "value": "07798501130"
        } ]
      } ],
      "subjectType": [ "Patient" ],
      "item": [ {
        "linkId": "1766749",
        "prefix": "5",
        "text": "What is the reason for the contact?",
        "type": "choice",
        "required": true,
        "repeats": false,
        "option": [ {
          "valueString": "an injury or other health problem, Selected: true"
        }, {
          "valueString": "a need to access another healthcare service, Selected: false"
        }, {
          "valueString": "a healthcare professional requesting contact with another clinician, Selected: false"
        }, {
          "valueString": "a report of results or tests, Selected: false"
        }, {
          "valueString": "more, Selected: false"
        } ]
      } ]
    }
  }, {
    "fullUrl": "urn:uuid:6c273476-4dc2-4fe6-9788-8f9a979daca9",
    "resource": {
      "resourceType": "QuestionnaireResponse",
      "id": "6c273476-4dc2-4fe6-9788-8f9a979daca9",
      "identifier": {
        "value": "1766749"
      },
      "questionnaire": {
        "reference": "urn:uuid:ff0afa87-ab4a-4aaf-ad63-0a3f348b7846"
      },
      "status": "completed",
      "subject": {
        "reference": "urn:uuid:7416fc1a-4d65-4ede-b7f1-048c454f9be0"
      },
      "context": {
        "reference": "urn:uuid:1a387b08-e754-4579-b5ea-476e3bcbbb95"
      },
      "authored": "2021-08-03T13:04:53+00:00",
      "item": [ {
        "linkId": "Tx221788",
        "text": "STRING:to'ImmediateThreatsToLife(SPA/OOHversion)'-'ABC'menu",
        "answer": [ {
          "valueString": "\"\"present\"\""
        } ]
      } ]
    }
  }, {
    "fullUrl": "urn:uuid:ff0afa87-ab4a-4aaf-ad63-0a3f348b7846",
    "resource": {
      "resourceType": "Questionnaire",
      "id": "ff0afa87-ab4a-4aaf-ad63-0a3f348b7846",
      "identifier": [ {
        "value": "1766749"
      } ],
      "version": "2021-08-03T13:04:53.000Z",
      "status": "active",
      "experimental": false,
      "date": "2021-08-03T13:04:53+00:00",
      "publisher": "User ID: '922' User name: 'AndrewJ.Walford' User skill set: 'T4'",
      "lastReviewDate": "2021-08-03",
      "contact": [ {
        "telecom": [ {
          "system": "phone",
          "value": "07798501130"
        } ]
      } ],
      "subjectType": [ "Patient" ],
      "item": [ {
        "linkId": "1766749",
        "prefix": "500",
        "text": "STRING:to'ImmediateThreatsToLife(SPA/OOHversion)'-'ABC'menu",
        "type": "choice",
        "required": true,
        "repeats": false,
        "option": [ {
          "valueString": "\"\"present\"\", Selected: true"
        } ]
      } ]
    }
  }, {
    "fullUrl": "urn:uuid:5fa3f5cc-f1be-46a1-9759-7ca376278833",
    "resource": {
      "resourceType": "QuestionnaireResponse",
      "id": "5fa3f5cc-f1be-46a1-9759-7ca376278833",
      "identifier": {
        "value": "1766749"
      },
      "questionnaire": {
        "reference": "urn:uuid:cda4a98f-dea8-410f-8020-42d6cd767bb5"
      },
      "status": "completed",
      "subject": {
        "reference": "urn:uuid:7416fc1a-4d65-4ede-b7f1-048c454f9be0"
      },
      "context": {
        "reference": "urn:uuid:1a387b08-e754-4579-b5ea-476e3bcbbb95"
      },
      "authored": "2021-08-03T13:04:53+00:00",
      "item": [ {
        "linkId": "Tx221814",
        "text": "STRING:aninjuryorotherhealthproblemestablishedinEntryFlow",
        "answer": [ {
          "valueString": "\"\"present\"\""
        } ]
      } ]
    }
  }, {
    "fullUrl": "urn:uuid:cda4a98f-dea8-410f-8020-42d6cd767bb5",
    "resource": {
      "resourceType": "Questionnaire",
      "id": "cda4a98f-dea8-410f-8020-42d6cd767bb5",
      "identifier": [ {
        "value": "1766749"
      } ],
      "version": "2021-08-03T13:04:53.000Z",
      "status": "active",
      "experimental": false,
      "date": "2021-08-03T13:04:53+00:00",
      "publisher": "User ID: '922' User name: 'AndrewJ.Walford' User skill set: 'T4'",
      "lastReviewDate": "2021-08-03",
      "contact": [ {
        "telecom": [ {
          "system": "phone",
          "value": "07798501130"
        } ]
      } ],
      "subjectType": [ "Patient" ],
      "item": [ {
        "linkId": "1766749",
        "prefix": "0",
        "text": "STRING:aninjuryorotherhealthproblemestablishedinEntryFlow",
        "type": "choice",
        "required": true,
        "repeats": false,
        "option": [ {
          "valueString": "\"\"present\"\", Selected: true"
        } ]
      } ]
    }
  }, {
    "fullUrl": "urn:uuid:cbd9ea5d-3e2f-4c1e-b7bf-d60f83f7912e",
    "resource": {
      "resourceType": "QuestionnaireResponse",
      "id": "cbd9ea5d-3e2f-4c1e-b7bf-d60f83f7912e",
      "identifier": {
        "value": "1766749"
      },
      "questionnaire": {
        "reference": "urn:uuid:81c9d550-df06-4d36-9140-e58625b15689"
      },
      "status": "completed",
      "subject": {
        "reference": "urn:uuid:7416fc1a-4d65-4ede-b7f1-048c454f9be0"
      },
      "context": {
        "reference": "urn:uuid:1a387b08-e754-4579-b5ea-476e3bcbbb95"
      },
      "authored": "2021-08-03T13:04:53+00:00",
      "item": [ {
        "linkId": "Tx224120",
        "text": "Have you been bleeding RED BLOOD very heavily IN THE LAST 2 HOURS?",
        "answer": [ {
          "valueString": "no"
        } ]
      } ]
    }
  }, {
    "fullUrl": "urn:uuid:81c9d550-df06-4d36-9140-e58625b15689",
    "resource": {
      "resourceType": "Questionnaire",
      "id": "81c9d550-df06-4d36-9140-e58625b15689",
      "identifier": [ {
        "value": "1766749"
      } ],
      "version": "2021-08-03T13:04:53.000Z",
      "status": "active",
      "experimental": false,
      "date": "2021-08-03T13:04:53+00:00",
      "publisher": "User ID: '922' User name: 'AndrewJ.Walford' User skill set: 'T4'",
      "lastReviewDate": "2021-08-03",
      "contact": [ {
        "telecom": [ {
          "system": "phone",
          "value": "07798501130"
        } ]
      } ],
      "subjectType": [ "Patient" ],
      "item": [ {
        "linkId": "1766749",
        "prefix": "7000",
        "text": "Have you been bleeding RED BLOOD very heavily IN THE LAST 2 HOURS?",
        "type": "choice",
        "required": true,
        "repeats": false,
        "option": [ {
          "valueString": "yes, Selected: false"
        }, {
          "valueString": "not sure, Selected: false"
        }, {
          "valueString": "no, Selected: true"
        } ]
      } ]
    }
  }, {
    "fullUrl": "urn:uuid:921716b6-08c1-4887-a939-2e43752a72c5",
    "resource": {
      "resourceType": "QuestionnaireResponse",
      "id": "921716b6-08c1-4887-a939-2e43752a72c5",
      "identifier": {
        "value": "1766749"
      },
      "questionnaire": {
        "reference": "urn:uuid:da79979f-2e59-4855-baa5-35d25fd7593c"
      },
      "status": "completed",
      "subject": {
        "reference": "urn:uuid:7416fc1a-4d65-4ede-b7f1-048c454f9be0"
      },
      "context": {
        "reference": "urn:uuid:1a387b08-e754-4579-b5ea-476e3bcbbb95"
      },
      "authored": "2021-08-03T13:04:53+00:00",
      "item": [ {
        "linkId": "Tx221343",
        "text": "SocialConcernsExcluded",
        "answer": [ {
          "valueString": "*"
        } ]
      } ]
    }
  }, {
    "fullUrl": "urn:uuid:da79979f-2e59-4855-baa5-35d25fd7593c",
    "resource": {
      "resourceType": "Questionnaire",
      "id": "da79979f-2e59-4855-baa5-35d25fd7593c",
      "identifier": [ {
        "value": "1766749"
      } ],
      "version": "2021-08-03T13:04:53.000Z",
      "status": "active",
      "experimental": false,
      "date": "2021-08-03T13:04:53+00:00",
      "publisher": "User ID: '922' User name: 'AndrewJ.Walford' User skill set: 'T4'",
      "lastReviewDate": "2021-08-03",
      "contact": [ {
        "telecom": [ {
          "system": "phone",
          "value": "07798501130"
        } ]
      } ],
      "subjectType": [ "Patient" ],
      "item": [ {
        "linkId": "1766749",
        "prefix": "2700",
        "text": "SocialConcernsExcluded",
        "type": "choice",
        "required": true,
        "repeats": false,
        "option": [ {
          "valueString": "==\"\"present\"\", Selected: false"
        }, {
          "valueString": "*, Selected: true"
        } ]
      } ]
    }
  }, {
    "fullUrl": "urn:uuid:aa24a4f1-9822-4935-a4f8-c52abdcb835f",
    "resource": {
      "resourceType": "QuestionnaireResponse",
      "id": "aa24a4f1-9822-4935-a4f8-c52abdcb835f",
      "identifier": {
        "value": "1766749"
      },
      "questionnaire": {
        "reference": "urn:uuid:20be41d5-c396-4229-87ed-c02b6ceb51e4"
      },
      "status": "completed",
      "subject": {
        "reference": "urn:uuid:7416fc1a-4d65-4ede-b7f1-048c454f9be0"
      },
      "context": {
        "reference": "urn:uuid:1a387b08-e754-4579-b5ea-476e3bcbbb95"
      },
      "authored": "2021-08-03T13:04:53+00:00",
      "item": [ {
        "linkId": "Tx130011",
        "text": "What is the main problem?",
        "answer": [ {
          "valueString": "illness or other health problem (specify)"
        } ]
      } ]
    }
  }, {
    "fullUrl": "urn:uuid:20be41d5-c396-4229-87ed-c02b6ceb51e4",
    "resource": {
      "resourceType": "Questionnaire",
      "id": "20be41d5-c396-4229-87ed-c02b6ceb51e4",
      "identifier": [ {
        "value": "1766749"
      } ],
      "version": "2021-08-03T13:04:53.000Z",
      "status": "active",
      "experimental": false,
      "date": "2021-08-03T13:04:53+00:00",
      "publisher": "User ID: '922' User name: 'AndrewJ.Walford' User skill set: 'T4'",
      "lastReviewDate": "2021-08-03",
      "contact": [ {
        "telecom": [ {
          "system": "phone",
          "value": "07798501130"
        } ]
      } ],
      "subjectType": [ "Patient" ],
      "item": [ {
        "linkId": "1766749",
        "prefix": "3400",
        "text": "What is the main problem?",
        "type": "choice",
        "required": true,
        "repeats": false,
        "option": [ {
          "valueString": "the individual has been told to follow a particular course of action (specify), Selected: false"
        }, {
          "valueString": "the individual is an identified frequent caller, Selected: false"
        }, {
          "valueString": "injury (specify), Selected: false"
        }, {
          "valueString": "illness or other health problem (specify), Selected: true"
        }, {
          "valueString": "child protection/vulnerable adult concern, Selected: false"
        }, {
          "valueString": "social or domestic emergency, Selected: false"
        }, {
          "valueString": "the environment potentially poses an immediate threat to life (specify), Selected: false"
        } ]
      } ]
    }
  }, {
    "fullUrl": "urn:uuid:69a829bd-a629-41ea-a32b-d07a5b30238d",
    "resource": {
      "resourceType": "QuestionnaireResponse",
      "id": "69a829bd-a629-41ea-a32b-d07a5b30238d",
      "identifier": {
        "value": "1766749"
      },
      "questionnaire": {
        "reference": "urn:uuid:b61fa6bc-7f1a-4847-b9f6-9cf555a2f0fa"
      },
      "status": "completed",
      "subject": {
        "reference": "urn:uuid:7416fc1a-4d65-4ede-b7f1-048c454f9be0"
      },
      "context": {
        "reference": "urn:uuid:1a387b08-e754-4579-b5ea-476e3bcbbb95"
      },
      "authored": "2021-08-03T13:04:53+00:00",
      "item": [ {
        "linkId": "Tx61025",
        "text": "Are you so breathless that speaking more than a few words is impossible?",
        "answer": [ {
          "valueString": "no"
        } ]
      } ]
    }
  }, {
    "fullUrl": "urn:uuid:b61fa6bc-7f1a-4847-b9f6-9cf555a2f0fa",
    "resource": {
      "resourceType": "Questionnaire",
      "id": "b61fa6bc-7f1a-4847-b9f6-9cf555a2f0fa",
      "identifier": [ {
        "value": "1766749"
      } ],
      "version": "2021-08-03T13:04:53.000Z",
      "status": "active",
      "experimental": false,
      "date": "2021-08-03T13:04:53+00:00",
      "publisher": "User ID: '922' User name: 'AndrewJ.Walford' User skill set: 'T4'",
      "lastReviewDate": "2021-08-03",
      "contact": [ {
        "telecom": [ {
          "system": "phone",
          "value": "07798501130"
        } ]
      } ],
      "subjectType": [ "Patient" ],
      "item": [ {
        "linkId": "1766749",
        "prefix": "0",
        "text": "Are you so breathless that speaking more than a few words is impossible?",
        "type": "choice",
        "required": true,
        "repeats": false,
        "option": [ {
          "valueString": "yes, Selected: false"
        }, {
          "valueString": "not sure, Selected: false"
        }, {
          "valueString": "no, Selected: true"
        } ]
      } ]
    }
  }, {
    "fullUrl": "urn:uuid:cf3a8c5c-ba4d-47ef-8e36-6dcea0910861",
    "resource": {
      "resourceType": "QuestionnaireResponse",
      "id": "cf3a8c5c-ba4d-47ef-8e36-6dcea0910861",
      "identifier": {
        "value": "1766749"
      },
      "questionnaire": {
        "reference": "urn:uuid:898984a0-7192-49bb-a948-8ae89368fd43"
      },
      "status": "completed",
      "subject": {
        "reference": "urn:uuid:7416fc1a-4d65-4ede-b7f1-048c454f9be0"
      },
      "context": {
        "reference": "urn:uuid:1a387b08-e754-4579-b5ea-476e3bcbbb95"
      },
      "authored": "2021-08-03T13:04:53+00:00",
      "item": [ {
        "linkId": "Tx220845",
        "text": "SYSTEM_FLUPANDEMIC",
        "answer": [ {
          "valueString": "*"
        } ]
      } ]
    }
  }, {
    "fullUrl": "urn:uuid:898984a0-7192-49bb-a948-8ae89368fd43",
    "resource": {
      "resourceType": "Questionnaire",
      "id": "898984a0-7192-49bb-a948-8ae89368fd43",
      "identifier": [ {
        "value": "1766749"
      } ],
      "version": "2021-08-03T13:04:53.000Z",
      "status": "active",
      "experimental": false,
      "date": "2021-08-03T13:04:53+00:00",
      "publisher": "User ID: '922' User name: 'AndrewJ.Walford' User skill set: 'T4'",
      "lastReviewDate": "2021-08-03",
      "contact": [ {
        "telecom": [ {
          "system": "phone",
          "value": "07798501130"
        } ]
      } ],
      "subjectType": [ "Patient" ],
      "item": [ {
        "linkId": "1766749",
        "prefix": "100",
        "text": "SYSTEM_FLUPANDEMIC",
        "type": "choice",
        "required": true,
        "repeats": false,
        "option": [ {
          "valueString": "==\"\"pandemic\"\", Selected: false"
        }, {
          "valueString": "*, Selected: true"
        } ]
      } ]
    }
  }, {
    "fullUrl": "urn:uuid:45b3d68e-89bf-4a38-a872-5ece18e9de81",
    "resource": {
      "resourceType": "QuestionnaireResponse",
      "id": "45b3d68e-89bf-4a38-a872-5ece18e9de81",
      "identifier": {
        "value": "1766749"
      },
      "questionnaire": {
        "reference": "urn:uuid:41377adb-3b5a-4258-a84e-295943c3045e"
      },
      "status": "completed",
      "subject": {
        "reference": "urn:uuid:7416fc1a-4d65-4ede-b7f1-048c454f9be0"
      },
      "context": {
        "reference": "urn:uuid:1a387b08-e754-4579-b5ea-476e3bcbbb95"
      },
      "authored": "2021-08-03T13:04:53+00:00",
      "item": [ {
        "linkId": "Tx223440",
        "text": "WHAT IS SAID TO BE THE MAIN REASON FOR THIS CONTACT?",
        "answer": [ {
          "valueString": "more"
        } ]
      } ]
    }
  }, {
    "fullUrl": "urn:uuid:41377adb-3b5a-4258-a84e-295943c3045e",
    "resource": {
      "resourceType": "Questionnaire",
      "id": "41377adb-3b5a-4258-a84e-295943c3045e",
      "identifier": [ {
        "value": "1766749"
      } ],
      "version": "2021-08-03T13:04:53.000Z",
      "status": "active",
      "experimental": false,
      "date": "2021-08-03T13:04:53+00:00",
      "publisher": "User ID: '922' User name: 'AndrewJ.Walford' User skill set: 'T4'",
      "lastReviewDate": "2021-08-03",
      "contact": [ {
        "telecom": [ {
          "system": "phone",
          "value": "07798501130"
        } ]
      } ],
      "subjectType": [ "Patient" ],
      "item": [ {
        "linkId": "1766749",
        "prefix": "5000",
        "text": "WHAT IS SAID TO BE THE MAIN REASON FOR THIS CONTACT?",
        "type": "choice",
        "required": true,
        "repeats": false,
        "option": [ {
          "valueString": "a probable allergic reaction now, Selected: false"
        }, {
          "valueString": "a probable heart attack, Selected: false"
        }, {
          "valueString": "chest or upper back pain, Selected: false"
        }, {
          "valueString": "a probable stroke or mini-stroke, Selected: false"
        }, {
          "valueString": "a probable fit or seizure within the last 12 hours, Selected: false"
        }, {
          "valueString": "a suicide attempt, Selected: false"
        }, {
          "valueString": "more, Selected: true"
        } ]
      } ]
    }
  }, {
    "fullUrl": "urn:uuid:768728d2-e696-45fc-b083-451c26d6b39c",
    "resource": {
      "resourceType": "QuestionnaireResponse",
      "id": "768728d2-e696-45fc-b083-451c26d6b39c",
      "identifier": {
        "value": "1766749"
      },
      "questionnaire": {
        "reference": "urn:uuid:ff52eafe-35d1-455e-88a9-bf4b8f4e13cd"
      },
      "status": "completed",
      "subject": {
        "reference": "urn:uuid:7416fc1a-4d65-4ede-b7f1-048c454f9be0"
      },
      "context": {
        "reference": "urn:uuid:1a387b08-e754-4579-b5ea-476e3bcbbb95"
      },
      "authored": "2021-08-03T13:04:53+00:00",
      "item": [ {
        "linkId": "Tx220032",
        "text": "WHAT IS SAID TO BE THE MAIN REASON FOR THIS CONTACT?",
        "answer": [ {
          "valueString": "none of the above"
        } ]
      } ]
    }
  }, {
    "fullUrl": "urn:uuid:ff52eafe-35d1-455e-88a9-bf4b8f4e13cd",
    "resource": {
      "resourceType": "Questionnaire",
      "id": "ff52eafe-35d1-455e-88a9-bf4b8f4e13cd",
      "identifier": [ {
        "value": "1766749"
      } ],
      "version": "2021-08-03T13:04:53.000Z",
      "status": "active",
      "experimental": false,
      "date": "2021-08-03T13:04:53+00:00",
      "publisher": "User ID: '922' User name: 'AndrewJ.Walford' User skill set: 'T4'",
      "lastReviewDate": "2021-08-03",
      "contact": [ {
        "telecom": [ {
          "system": "phone",
          "value": "07798501130"
        } ]
      } ],
      "subjectType": [ "Patient" ],
      "item": [ {
        "linkId": "1766749",
        "prefix": "1900",
        "text": "WHAT IS SAID TO BE THE MAIN REASON FOR THIS CONTACT?",
        "type": "choice",
        "required": true,
        "repeats": false,
        "option": [ {
          "valueString": "new confusion now, Selected: false"
        }, {
          "valueString": "a diabetic hypo (low blood sugar) or a diabetic hyper (high blood sugar), Selected: false"
        }, {
          "valueString": "recovery from an ICD (implanted cardioverter defibrillator) shock, Selected: false"
        }, {
          "valueString": "none of the above, Selected: true"
        } ]
      } ]
    }
  }, {
    "fullUrl": "urn:uuid:16841c10-2d98-4d84-89f4-c725e4f0c508",
    "resource": {
      "resourceType": "QuestionnaireResponse",
      "id": "16841c10-2d98-4d84-89f4-c725e4f0c508",
      "identifier": {
        "value": "1766749"
      },
      "questionnaire": {
        "reference": "urn:uuid:f9099fda-178e-4adc-9674-70de719a57e3"
      },
      "status": "completed",
      "subject": {
        "reference": "urn:uuid:7416fc1a-4d65-4ede-b7f1-048c454f9be0"
      },
      "context": {
        "reference": "urn:uuid:1a387b08-e754-4579-b5ea-476e3bcbbb95"
      },
      "authored": "2021-08-03T13:04:53+00:00",
      "item": [ {
        "linkId": "Tx223142",
        "text": "Does the skin on the chest, back or abdomen feel a normal temperature?",
        "answer": [ {
          "valueString": "yes - normal, warm or hot"
        } ]
      } ]
    }
  }, {
    "fullUrl": "urn:uuid:f9099fda-178e-4adc-9674-70de719a57e3",
    "resource": {
      "resourceType": "Questionnaire",
      "id": "f9099fda-178e-4adc-9674-70de719a57e3",
      "identifier": [ {
        "value": "1766749"
      } ],
      "version": "2021-08-03T13:04:53.000Z",
      "status": "active",
      "experimental": false,
      "date": "2021-08-03T13:04:53+00:00",
      "publisher": "User ID: '922' User name: 'AndrewJ.Walford' User skill set: 'T4'",
      "lastReviewDate": "2021-08-03",
      "contact": [ {
        "telecom": [ {
          "system": "phone",
          "value": "07798501130"
        } ]
      } ],
      "subjectType": [ "Patient" ],
      "item": [ {
        "linkId": "1766749",
        "prefix": "4000",
        "text": "Does the skin on the chest, back or abdomen feel a normal temperature?",
        "type": "choice",
        "required": true,
        "repeats": false,
        "option": [ {
          "valueString": "yes - normal, warm or hot, Selected: true"
        }, {
          "valueString": "not sure, Selected: false"
        }, {
          "valueString": "no - cool OR cold, Selected: false"
        }, {
          "valueString": "not safe to touch, Selected: false"
        } ]
      } ]
    }
  }, {
    "fullUrl": "urn:uuid:841a3865-ff56-4b05-b917-9381fbc27731",
    "resource": {
      "resourceType": "QuestionnaireResponse",
      "id": "841a3865-ff56-4b05-b917-9381fbc27731",
      "identifier": {
        "value": "1766749"
      },
      "questionnaire": {
        "reference": "urn:uuid:1edc5abb-c8f6-417c-a493-820b2fa8e2ba"
      },
      "status": "completed",
      "subject": {
        "reference": "urn:uuid:7416fc1a-4d65-4ede-b7f1-048c454f9be0"
      },
      "context": {
        "reference": "urn:uuid:1a387b08-e754-4579-b5ea-476e3bcbbb95"
      },
      "authored": "2021-08-03T13:04:53+00:00",
      "item": [ {
        "linkId": "Tx221724",
        "text": "STRING:ShockAsked",
        "answer": [ {
          "valueString": "\"\"present\"\""
        } ]
      } ]
    }
  }, {
    "fullUrl": "urn:uuid:1edc5abb-c8f6-417c-a493-820b2fa8e2ba",
    "resource": {
      "resourceType": "Questionnaire",
      "id": "1edc5abb-c8f6-417c-a493-820b2fa8e2ba",
      "identifier": [ {
        "value": "1766749"
      } ],
      "version": "2021-08-03T13:04:53.000Z",
      "status": "active",
      "experimental": false,
      "date": "2021-08-03T13:04:53+00:00",
      "publisher": "User ID: '922' User name: 'AndrewJ.Walford' User skill set: 'T4'",
      "lastReviewDate": "2021-08-03",
      "contact": [ {
        "telecom": [ {
          "system": "phone",
          "value": "07798501130"
        } ]
      } ],
      "subjectType": [ "Patient" ],
      "item": [ {
        "linkId": "1766749",
        "prefix": "3300",
        "text": "STRING:ShockAsked",
        "type": "choice",
        "required": true,
        "repeats": false,
        "option": [ {
          "valueString": "\"\"present\"\", Selected: true"
        } ]
      } ]
    }
  }, {
    "fullUrl": "urn:uuid:ef69d0d3-27de-4b5e-89b7-963bd0b1649c",
    "resource": {
      "resourceType": "QuestionnaireResponse",
      "id": "ef69d0d3-27de-4b5e-89b7-963bd0b1649c",
      "identifier": {
        "value": "1766749"
      },
      "questionnaire": {
        "reference": "urn:uuid:f87f31e9-10c7-4d48-83eb-214d890f209b"
      },
      "status": "completed",
      "subject": {
        "reference": "urn:uuid:7416fc1a-4d65-4ede-b7f1-048c454f9be0"
      },
      "context": {
        "reference": "urn:uuid:1a387b08-e754-4579-b5ea-476e3bcbbb95"
      },
      "authored": "2021-08-03T13:04:53+00:00"
    }
  }, {
    "fullUrl": "urn:uuid:f87f31e9-10c7-4d48-83eb-214d890f209b",
    "resource": {
      "resourceType": "Questionnaire",
      "id": "f87f31e9-10c7-4d48-83eb-214d890f209b",
      "identifier": [ {
        "value": "1766749"
      } ],
      "version": "2021-08-03T13:04:53.000Z",
      "status": "active",
      "experimental": false,
      "date": "2021-08-03T13:04:53+00:00",
      "publisher": "User ID: '922' User name: 'AndrewJ.Walford' User skill set: 'T4'",
      "lastReviewDate": "2021-08-03",
      "contact": [ {
        "telecom": [ {
          "system": "phone",
          "value": "07798501130"
        } ]
      } ],
      "subjectType": [ "Patient" ]
    }
  }, {
    "fullUrl": "urn:uuid:c0322257-bfeb-43f2-ac71-a7c846119341",
    "resource": {
      "resourceType": "QuestionnaireResponse",
      "id": "c0322257-bfeb-43f2-ac71-a7c846119341",
      "identifier": {
        "value": "1766749"
      },
      "questionnaire": {
        "reference": "urn:uuid:157f2e0d-1393-45a9-bb80-5bf3d9ae791e"
      },
      "status": "completed",
      "subject": {
        "reference": "urn:uuid:7416fc1a-4d65-4ede-b7f1-048c454f9be0"
      },
      "context": {
        "reference": "urn:uuid:1a387b08-e754-4579-b5ea-476e3bcbbb95"
      },
      "authored": "2021-08-03T13:04:53+00:00"
    }
  }, {
    "fullUrl": "urn:uuid:157f2e0d-1393-45a9-bb80-5bf3d9ae791e",
    "resource": {
      "resourceType": "Questionnaire",
      "id": "157f2e0d-1393-45a9-bb80-5bf3d9ae791e",
      "identifier": [ {
        "value": "1766749"
      } ],
      "version": "2021-08-03T13:04:53.000Z",
      "status": "active",
      "experimental": false,
      "date": "2021-08-03T13:04:53+00:00",
      "publisher": "User ID: '922' User name: 'AndrewJ.Walford' User skill set: 'T4'",
      "lastReviewDate": "2021-08-03",
      "contact": [ {
        "telecom": [ {
          "system": "phone",
          "value": "07798501130"
        } ]
      } ],
      "subjectType": [ "Patient" ]
    }
  }, {
    "fullUrl": "urn:uuid:345222c8-4784-4c5b-9fd9-8c441c7b8bf8",
    "resource": {
      "resourceType": "QuestionnaireResponse",
      "id": "345222c8-4784-4c5b-9fd9-8c441c7b8bf8",
      "identifier": {
        "value": "1766749"
      },
      "questionnaire": {
        "reference": "urn:uuid:8fb19c32-7165-4b77-a988-7b864d922de9"
      },
      "status": "completed",
      "subject": {
        "reference": "urn:uuid:7416fc1a-4d65-4ede-b7f1-048c454f9be0"
      },
      "context": {
        "reference": "urn:uuid:1a387b08-e754-4579-b5ea-476e3bcbbb95"
      },
      "authored": "2021-08-03T13:04:53+00:00",
      "item": [ {
        "linkId": "Tx224190",
        "text": "Does the problem stop you from doing ALL of your normal activities?",
        "answer": [ {
          "valueString": "no - able to do most or all of their activities"
        } ]
      } ]
    }
  }, {
    "fullUrl": "urn:uuid:8fb19c32-7165-4b77-a988-7b864d922de9",
    "resource": {
      "resourceType": "Questionnaire",
      "id": "8fb19c32-7165-4b77-a988-7b864d922de9",
      "identifier": [ {
        "value": "1766749"
      } ],
      "version": "2021-08-03T13:04:53.000Z",
      "status": "active",
      "experimental": false,
      "date": "2021-08-03T13:04:53+00:00",
      "publisher": "User ID: '922' User name: 'AndrewJ.Walford' User skill set: 'T4'",
      "lastReviewDate": "2021-08-03",
      "contact": [ {
        "telecom": [ {
          "system": "phone",
          "value": "07798501130"
        } ]
      } ],
      "subjectType": [ "Patient" ],
      "item": [ {
        "linkId": "1766749",
        "prefix": "4900",
        "text": "Does the problem stop you from doing ALL of your normal activities?",
        "type": "choice",
        "required": true,
        "repeats": false,
        "option": [ {
          "valueString": "yes - unable to do all of their normal activities, Selected: false"
        }, {
          "valueString": "no - able to do some of their normal activities, Selected: false"
        }, {
          "valueString": "no - able to do most or all of their activities, Selected: true"
        } ]
      } ]
    }
  }, {
    "fullUrl": "urn:uuid:694b5e4d-e9de-41e0-9276-7b1ddafe0e61",
    "resource": {
      "resourceType": "QuestionnaireResponse",
      "id": "694b5e4d-e9de-41e0-9276-7b1ddafe0e61",
      "identifier": {
        "value": "1766749"
      },
      "questionnaire": {
        "reference": "urn:uuid:7e1512d0-2315-463d-982b-14b5c1df1414"
      },
      "status": "completed",
      "subject": {
        "reference": "urn:uuid:7416fc1a-4d65-4ede-b7f1-048c454f9be0"
      },
      "context": {
        "reference": "urn:uuid:1a387b08-e754-4579-b5ea-476e3bcbbb95"
      },
      "authored": "2021-08-03T13:04:53+00:00",
      "item": [ {
        "linkId": "Tx220244",
        "text": "Have you got any of the following new symptoms?",
        "answer": [ {
          "valueString": "no"
        } ]
      } ]
    }
  }, {
    "fullUrl": "urn:uuid:7e1512d0-2315-463d-982b-14b5c1df1414",
    "resource": {
      "resourceType": "Questionnaire",
      "id": "7e1512d0-2315-463d-982b-14b5c1df1414",
      "identifier": [ {
        "value": "1766749"
      } ],
      "version": "2021-08-03T13:04:53.000Z",
      "status": "active",
      "experimental": false,
      "date": "2021-08-03T13:04:53+00:00",
      "publisher": "User ID: '922' User name: 'AndrewJ.Walford' User skill set: 'T4'",
      "lastReviewDate": "2021-08-03",
      "contact": [ {
        "telecom": [ {
          "system": "phone",
          "value": "07798501130"
        } ]
      } ],
      "subjectType": [ "Patient" ],
      "item": [ {
        "linkId": "1766749",
        "prefix": "17",
        "text": "Have you got any of the following new symptoms?",
        "type": "choice",
        "required": true,
        "repeats": false,
        "option": [ {
          "valueString": "unable to control the bowels, Selected: false"
        }, {
          "valueString": "unable to move one or both legs, Selected: false"
        }, {
          "valueString": "numbness or pins and needles in both legs or around the back passage, Selected: false"
        }, {
          "valueString": "not sure, Selected: false"
        }, {
          "valueString": "no, Selected: true"
        } ]
      } ]
    }
  }, {
    "fullUrl": "urn:uuid:8abb309c-bba1-41ff-9118-a97fcb0973d5",
    "resource": {
      "resourceType": "QuestionnaireResponse",
      "id": "8abb309c-bba1-41ff-9118-a97fcb0973d5",
      "identifier": {
        "value": "1766749"
      },
      "questionnaire": {
        "reference": "urn:uuid:6223d9e6-0a21-46d8-b39d-88959a48cfbf"
      },
      "status": "completed",
      "subject": {
        "reference": "urn:uuid:7416fc1a-4d65-4ede-b7f1-048c454f9be0"
      },
      "context": {
        "reference": "urn:uuid:1a387b08-e754-4579-b5ea-476e3bcbbb95"
      },
      "authored": "2021-08-03T13:04:53+00:00",
      "item": [ {
        "linkId": "Tx221119",
        "text": "FunctionallyImpaired",
        "answer": [ {
          "valueString": "*"
        } ]
      } ]
    }
  }, {
    "fullUrl": "urn:uuid:6223d9e6-0a21-46d8-b39d-88959a48cfbf",
    "resource": {
      "resourceType": "Questionnaire",
      "id": "6223d9e6-0a21-46d8-b39d-88959a48cfbf",
      "identifier": [ {
        "value": "1766749"
      } ],
      "version": "2021-08-03T13:04:53.000Z",
      "status": "active",
      "experimental": false,
      "date": "2021-08-03T13:04:53+00:00",
      "publisher": "User ID: '922' User name: 'AndrewJ.Walford' User skill set: 'T4'",
      "lastReviewDate": "2021-08-03",
      "contact": [ {
        "telecom": [ {
          "system": "phone",
          "value": "07798501130"
        } ]
      } ],
      "subjectType": [ "Patient" ],
      "item": [ {
        "linkId": "1766749",
        "prefix": "5400",
        "text": "FunctionallyImpaired",
        "type": "choice",
        "required": true,
        "repeats": false,
        "option": [ {
          "valueString": "==\"\"present\"\", Selected: false"
        }, {
          "valueString": "*, Selected: true"
        } ]
      } ]
    }
  }, {
    "fullUrl": "urn:uuid:8334b1d5-a160-4ef4-8d59-f229e3db8173",
    "resource": {
      "resourceType": "QuestionnaireResponse",
      "id": "8334b1d5-a160-4ef4-8d59-f229e3db8173",
      "identifier": {
        "value": "1766749"
      },
      "questionnaire": {
        "reference": "urn:uuid:7b26e1df-3dd1-49cb-99e8-6b8e12dc5f8c"
      },
      "status": "completed",
      "subject": {
        "reference": "urn:uuid:7416fc1a-4d65-4ede-b7f1-048c454f9be0"
      },
      "context": {
        "reference": "urn:uuid:1a387b08-e754-4579-b5ea-476e3bcbbb95"
      },
      "authored": "2021-08-03T13:04:53+00:00",
      "item": [ {
        "linkId": "Tx221639",
        "text": "Have you been unable to pass urine for the last 12 hours, except for a few drops?",
        "answer": [ {
          "valueString": "no (ABLE TO pass urine)"
        } ]
      } ]
    }
  }, {
    "fullUrl": "urn:uuid:7b26e1df-3dd1-49cb-99e8-6b8e12dc5f8c",
    "resource": {
      "resourceType": "Questionnaire",
      "id": "7b26e1df-3dd1-49cb-99e8-6b8e12dc5f8c",
      "identifier": [ {
        "value": "1766749"
      } ],
      "version": "2021-08-03T13:04:53.000Z",
      "status": "active",
      "experimental": false,
      "date": "2021-08-03T13:04:53+00:00",
      "publisher": "User ID: '922' User name: 'AndrewJ.Walford' User skill set: 'T4'",
      "lastReviewDate": "2021-08-03",
      "contact": [ {
        "telecom": [ {
          "system": "phone",
          "value": "07798501130"
        } ]
      } ],
      "subjectType": [ "Patient" ],
      "item": [ {
        "linkId": "1766749",
        "prefix": "6100",
        "text": "Have you been unable to pass urine for the last 12 hours, except for a few drops?",
        "type": "choice",
        "required": true,
        "repeats": false,
        "option": [ {
          "valueString": "yes (UNABLE TO pass urine), Selected: false"
        }, {
          "valueString": "not sure, Selected: false"
        }, {
          "valueString": "no (ABLE TO pass urine), Selected: true"
        } ]
      } ]
    }
  }, {
    "fullUrl": "urn:uuid:aeeb2efc-d70f-49e3-8f0d-b5ddfd84dbbb",
    "resource": {
      "resourceType": "QuestionnaireResponse",
      "id": "aeeb2efc-d70f-49e3-8f0d-b5ddfd84dbbb",
      "identifier": {
        "value": "1766749"
      },
      "questionnaire": {
        "reference": "urn:uuid:57251c77-96db-4412-a3b0-17308bb70b10"
      },
      "status": "completed",
      "subject": {
        "reference": "urn:uuid:7416fc1a-4d65-4ede-b7f1-048c454f9be0"
      },
      "context": {
        "reference": "urn:uuid:1a387b08-e754-4579-b5ea-476e3bcbbb95"
      },
      "authored": "2021-08-03T13:04:53+00:00",
      "item": [ {
        "linkId": "Tx221119",
        "text": "FunctionallyImpaired",
        "answer": [ {
          "valueString": "*"
        } ]
      } ]
    }
  }, {
    "fullUrl": "urn:uuid:57251c77-96db-4412-a3b0-17308bb70b10",
    "resource": {
      "resourceType": "Questionnaire",
      "id": "57251c77-96db-4412-a3b0-17308bb70b10",
      "identifier": [ {
        "value": "1766749"
      } ],
      "version": "2021-08-03T13:04:53.000Z",
      "status": "active",
      "experimental": false,
      "date": "2021-08-03T13:04:53+00:00",
      "publisher": "User ID: '922' User name: 'AndrewJ.Walford' User skill set: 'T4'",
      "lastReviewDate": "2021-08-03",
      "contact": [ {
        "telecom": [ {
          "system": "phone",
          "value": "07798501130"
        } ]
      } ],
      "subjectType": [ "Patient" ],
      "item": [ {
        "linkId": "1766749",
        "prefix": "7200",
        "text": "FunctionallyImpaired",
        "type": "choice",
        "required": true,
        "repeats": false,
        "option": [ {
          "valueString": "==\"\"present\"\", Selected: false"
        }, {
          "valueString": "*, Selected: true"
        } ]
      } ]
    }
  }, {
    "fullUrl": "urn:uuid:4befbce8-4eec-412c-bb26-9ca1dc0760a8",
    "resource": {
      "resourceType": "QuestionnaireResponse",
      "id": "4befbce8-4eec-412c-bb26-9ca1dc0760a8",
      "identifier": {
        "value": "1766749"
      },
      "questionnaire": {
        "reference": "urn:uuid:3d301312-3684-4087-809b-d1686807618d"
      },
      "status": "completed",
      "subject": {
        "reference": "urn:uuid:7416fc1a-4d65-4ede-b7f1-048c454f9be0"
      },
      "context": {
        "reference": "urn:uuid:1a387b08-e754-4579-b5ea-476e3bcbbb95"
      },
      "authored": "2021-08-03T13:04:53+00:00",
      "item": [ {
        "linkId": "Tx223485",
        "text": "ConfusionDeclared",
        "answer": [ {
          "valueString": "*"
        } ]
      } ]
    }
  }, {
    "fullUrl": "urn:uuid:3d301312-3684-4087-809b-d1686807618d",
    "resource": {
      "resourceType": "Questionnaire",
      "id": "3d301312-3684-4087-809b-d1686807618d",
      "identifier": [ {
        "value": "1766749"
      } ],
      "version": "2021-08-03T13:04:53.000Z",
      "status": "active",
      "experimental": false,
      "date": "2021-08-03T13:04:53+00:00",
      "publisher": "User ID: '922' User name: 'AndrewJ.Walford' User skill set: 'T4'",
      "lastReviewDate": "2021-08-03",
      "contact": [ {
        "telecom": [ {
          "system": "phone",
          "value": "07798501130"
        } ]
      } ],
      "subjectType": [ "Patient" ],
      "item": [ {
        "linkId": "1766749",
        "prefix": "2900",
        "text": "ConfusionDeclared",
        "type": "choice",
        "required": true,
        "repeats": false,
        "option": [ {
          "valueString": "==\"\"present\"\", Selected: false"
        }, {
          "valueString": "*, Selected: true"
        } ]
      } ]
    }
  }, {
    "fullUrl": "urn:uuid:18bef781-bd99-4703-951f-2d07057ef455",
    "resource": {
      "resourceType": "QuestionnaireResponse",
      "id": "18bef781-bd99-4703-951f-2d07057ef455",
      "identifier": {
        "value": "1766749"
      },
      "questionnaire": {
        "reference": "urn:uuid:330e8d44-0603-4d1e-b765-e7155615f083"
      },
      "status": "completed",
      "subject": {
        "reference": "urn:uuid:7416fc1a-4d65-4ede-b7f1-048c454f9be0"
      },
      "context": {
        "reference": "urn:uuid:1a387b08-e754-4579-b5ea-476e3bcbbb95"
      },
      "authored": "2021-08-03T13:04:53+00:00",
      "item": [ {
        "linkId": "Tx1213",
        "text": "Have you suddenly become confused OR more confused than usual?",
        "answer": [ {
          "valueString": "no"
        } ]
      } ]
    }
  }, {
    "fullUrl": "urn:uuid:330e8d44-0603-4d1e-b765-e7155615f083",
    "resource": {
      "resourceType": "Questionnaire",
      "id": "330e8d44-0603-4d1e-b765-e7155615f083",
      "identifier": [ {
        "value": "1766749"
      } ],
      "version": "2021-08-03T13:04:53.000Z",
      "status": "active",
      "experimental": false,
      "date": "2021-08-03T13:04:53+00:00",
      "publisher": "User ID: '922' User name: 'AndrewJ.Walford' User skill set: 'T4'",
      "lastReviewDate": "2021-08-03",
      "contact": [ {
        "telecom": [ {
          "system": "phone",
          "value": "07798501130"
        } ]
      } ],
      "subjectType": [ "Patient" ],
      "item": [ {
        "linkId": "1766749",
        "prefix": "7700",
        "text": "Have you suddenly become confused OR more confused than usual?",
        "type": "choice",
        "required": true,
        "repeats": false,
        "option": [ {
          "valueString": "yes, Selected: false"
        }, {
          "valueString": "not sure, Selected: false"
        }, {
          "valueString": "no, Selected: true"
        } ]
      } ]
    }
  }, {
    "fullUrl": "urn:uuid:de265d5d-fd23-4973-9732-63d009a53dd5",
    "resource": {
      "resourceType": "QuestionnaireResponse",
      "id": "de265d5d-fd23-4973-9732-63d009a53dd5",
      "identifier": {
        "value": "1766749"
      },
      "questionnaire": {
        "reference": "urn:uuid:5b5fe3f7-292d-485f-9c7d-d0299b59a7ab"
      },
      "status": "completed",
      "subject": {
        "reference": "urn:uuid:7416fc1a-4d65-4ede-b7f1-048c454f9be0"
      },
      "context": {
        "reference": "urn:uuid:1a387b08-e754-4579-b5ea-476e3bcbbb95"
      },
      "authored": "2021-08-03T13:04:53+00:00",
      "item": [ {
        "linkId": "Tx220164",
        "text": "Are you breathing faster or harder when doing nothing at all?",
        "answer": [ {
          "valueString": "no"
        } ]
      } ]
    }
  }, {
    "fullUrl": "urn:uuid:5b5fe3f7-292d-485f-9c7d-d0299b59a7ab",
    "resource": {
      "resourceType": "Questionnaire",
      "id": "5b5fe3f7-292d-485f-9c7d-d0299b59a7ab",
      "identifier": [ {
        "value": "1766749"
      } ],
      "version": "2021-08-03T13:04:53.000Z",
      "status": "active",
      "experimental": false,
      "date": "2021-08-03T13:04:53+00:00",
      "publisher": "User ID: '922' User name: 'AndrewJ.Walford' User skill set: 'T4'",
      "lastReviewDate": "2021-08-03",
      "contact": [ {
        "telecom": [ {
          "system": "phone",
          "value": "07798501130"
        } ]
      } ],
      "subjectType": [ "Patient" ],
      "item": [ {
        "linkId": "1766749",
        "prefix": "3400",
        "text": "Are you breathing faster or harder when doing nothing at all?",
        "type": "choice",
        "required": true,
        "repeats": false,
        "option": [ {
          "valueString": "yes, Selected: false"
        }, {
          "valueString": "not sure, Selected: false"
        }, {
          "valueString": "no, Selected: true"
        } ]
      } ]
    }
  }, {
    "fullUrl": "urn:uuid:ad83f718-17c6-4cbf-a230-5fdc166de586",
    "resource": {
      "resourceType": "QuestionnaireResponse",
      "id": "ad83f718-17c6-4cbf-a230-5fdc166de586",
      "identifier": {
        "value": "1766749"
      },
      "questionnaire": {
        "reference": "urn:uuid:39039715-2191-4160-a580-155d398ea93e"
      },
      "status": "completed",
      "subject": {
        "reference": "urn:uuid:7416fc1a-4d65-4ede-b7f1-048c454f9be0"
      },
      "context": {
        "reference": "urn:uuid:1a387b08-e754-4579-b5ea-476e3bcbbb95"
      },
      "authored": "2021-08-03T13:04:53+00:00",
      "item": [ {
        "linkId": "Tx224506",
        "text": "UnableToPassUrine",
        "answer": [ {
          "valueString": "*"
        } ]
      } ]
    }
  }, {
    "fullUrl": "urn:uuid:39039715-2191-4160-a580-155d398ea93e",
    "resource": {
      "resourceType": "Questionnaire",
      "id": "39039715-2191-4160-a580-155d398ea93e",
      "identifier": [ {
        "value": "1766749"
      } ],
      "version": "2021-08-03T13:04:53.000Z",
      "status": "active",
      "experimental": false,
      "date": "2021-08-03T13:04:53+00:00",
      "publisher": "User ID: '922' User name: 'AndrewJ.Walford' User skill set: 'T4'",
      "lastReviewDate": "2021-08-03",
      "contact": [ {
        "telecom": [ {
          "system": "phone",
          "value": "07798501130"
        } ]
      } ],
      "subjectType": [ "Patient" ],
      "item": [ {
        "linkId": "1766749",
        "prefix": "8300",
        "text": "UnableToPassUrine",
        "type": "choice",
        "required": true,
        "repeats": false,
        "option": [ {
          "valueString": "==\"\"present\"\", Selected: false"
        }, {
          "valueString": "*, Selected: true"
        } ]
      } ]
    }
  }, {
    "fullUrl": "urn:uuid:c667d2c1-9c7a-4c5e-81e0-a887104c37e6",
    "resource": {
      "resourceType": "QuestionnaireResponse",
      "id": "c667d2c1-9c7a-4c5e-81e0-a887104c37e6",
      "identifier": {
        "value": "1766749"
      },
      "questionnaire": {
        "reference": "urn:uuid:9ea7efda-bd94-4ebb-8b9c-b2135d3cfff6"
      },
      "status": "completed",
      "subject": {
        "reference": "urn:uuid:7416fc1a-4d65-4ede-b7f1-048c454f9be0"
      },
      "context": {
        "reference": "urn:uuid:1a387b08-e754-4579-b5ea-476e3bcbbb95"
      },
      "authored": "2021-08-03T13:04:53+00:00",
      "item": [ {
        "linkId": "Tx222078",
        "text": "Have you got pain in the spine?",
        "answer": [ {
          "valueString": "no"
        } ]
      } ]
    }
  }, {
    "fullUrl": "urn:uuid:9ea7efda-bd94-4ebb-8b9c-b2135d3cfff6",
    "resource": {
      "resourceType": "Questionnaire",
      "id": "9ea7efda-bd94-4ebb-8b9c-b2135d3cfff6",
      "identifier": [ {
        "value": "1766749"
      } ],
      "version": "2021-08-03T13:04:53.000Z",
      "status": "active",
      "experimental": false,
      "date": "2021-08-03T13:04:53+00:00",
      "publisher": "User ID: '922' User name: 'AndrewJ.Walford' User skill set: 'T4'",
      "lastReviewDate": "2021-08-03",
      "contact": [ {
        "telecom": [ {
          "system": "phone",
          "value": "07798501130"
        } ]
      } ],
      "subjectType": [ "Patient" ],
      "item": [ {
        "linkId": "1766749",
        "prefix": "400",
        "text": "Have you got pain in the spine?",
        "type": "choice",
        "required": true,
        "repeats": false,
        "option": [ {
          "valueString": "yes, Selected: false"
        }, {
          "valueString": "not sure, Selected: false"
        }, {
          "valueString": "no, Selected: true"
        } ]
      } ]
    }
  }, {
    "fullUrl": "urn:uuid:395453aa-d232-4541-aca9-84ae1a10babb",
    "resource": {
      "resourceType": "QuestionnaireResponse",
      "id": "395453aa-d232-4541-aca9-84ae1a10babb",
      "identifier": {
        "value": "1766749"
      },
      "questionnaire": {
        "reference": "urn:uuid:b095668b-73c1-4c81-870a-e8e1a8c725be"
      },
      "status": "completed",
      "subject": {
        "reference": "urn:uuid:7416fc1a-4d65-4ede-b7f1-048c454f9be0"
      },
      "context": {
        "reference": "urn:uuid:1a387b08-e754-4579-b5ea-476e3bcbbb95"
      },
      "authored": "2021-08-03T13:04:53+00:00",
      "item": [ {
        "linkId": "Tx220168",
        "text": "Have you got pain that is getting worse?",
        "answer": [ {
          "valueString": "no"
        } ]
      } ]
    }
  }, {
    "fullUrl": "urn:uuid:b095668b-73c1-4c81-870a-e8e1a8c725be",
    "resource": {
      "resourceType": "Questionnaire",
      "id": "b095668b-73c1-4c81-870a-e8e1a8c725be",
      "identifier": [ {
        "value": "1766749"
      } ],
      "version": "2021-08-03T13:04:53.000Z",
      "status": "active",
      "experimental": false,
      "date": "2021-08-03T13:04:53+00:00",
      "publisher": "User ID: '922' User name: 'AndrewJ.Walford' User skill set: 'T4'",
      "lastReviewDate": "2021-08-03",
      "contact": [ {
        "telecom": [ {
          "system": "phone",
          "value": "07798501130"
        } ]
      } ],
      "subjectType": [ "Patient" ],
      "item": [ {
        "linkId": "1766749",
        "prefix": "300",
        "text": "Have you got pain that is getting worse?",
        "type": "choice",
        "required": true,
        "repeats": false,
        "option": [ {
          "valueString": "yes, Selected: false"
        }, {
          "valueString": "not sure, Selected: false"
        }, {
          "valueString": "no, Selected: true"
        } ]
      } ]
    }
  }, {
    "fullUrl": "urn:uuid:e1864fd1-1c9e-4420-9d08-4f8bb330ad93",
    "resource": {
      "resourceType": "QuestionnaireResponse",
      "id": "e1864fd1-1c9e-4420-9d08-4f8bb330ad93",
      "identifier": {
        "value": "1766749"
      },
      "questionnaire": {
        "reference": "urn:uuid:841f9613-d729-47ca-b678-7b71bade4067"
      },
      "status": "completed",
      "subject": {
        "reference": "urn:uuid:7416fc1a-4d65-4ede-b7f1-048c454f9be0"
      },
      "context": {
        "reference": "urn:uuid:1a387b08-e754-4579-b5ea-476e3bcbbb95"
      },
      "authored": "2021-08-03T13:04:53+00:00",
      "item": [ {
        "linkId": "Tx1122",
        "text": "Have you felt hot or feverish at any time in the last 12 hours?",
        "answer": [ {
          "valueString": "no"
        } ]
      } ]
    }
  }, {
    "fullUrl": "urn:uuid:841f9613-d729-47ca-b678-7b71bade4067",
    "resource": {
      "resourceType": "Questionnaire",
      "id": "841f9613-d729-47ca-b678-7b71bade4067",
      "identifier": [ {
        "value": "1766749"
      } ],
      "version": "2021-08-03T13:04:53.000Z",
      "status": "active",
      "experimental": false,
      "date": "2021-08-03T13:04:53+00:00",
      "publisher": "User ID: '922' User name: 'AndrewJ.Walford' User skill set: 'T4'",
      "lastReviewDate": "2021-08-03",
      "contact": [ {
        "telecom": [ {
          "system": "phone",
          "value": "07798501130"
        } ]
      } ],
      "subjectType": [ "Patient" ],
      "item": [ {
        "linkId": "1766749",
        "prefix": "500",
        "text": "Have you felt hot or feverish at any time in the last 12 hours?",
        "type": "choice",
        "required": true,
        "repeats": false,
        "option": [ {
          "valueString": "yes - temperature not taken, Selected: false"
        }, {
          "valueString": "yes - temperature taken (specify), Selected: false"
        }, {
          "valueString": "not sure, Selected: false"
        }, {
          "valueString": "no, Selected: true"
        } ]
      } ]
    }
  }, {
    "fullUrl": "urn:uuid:d7c5eb6d-609e-4070-84d0-a855c2059e02",
    "resource": {
      "resourceType": "QuestionnaireResponse",
      "id": "d7c5eb6d-609e-4070-84d0-a855c2059e02",
      "identifier": {
        "value": "1766749"
      },
      "questionnaire": {
        "reference": "urn:uuid:c3ea7f53-80d8-41a4-9b4d-224b72e444cc"
      },
      "status": "completed",
      "subject": {
        "reference": "urn:uuid:7416fc1a-4d65-4ede-b7f1-048c454f9be0"
      },
      "context": {
        "reference": "urn:uuid:1a387b08-e754-4579-b5ea-476e3bcbbb95"
      },
      "authored": "2021-08-03T13:04:53+00:00",
      "item": [ {
        "linkId": "Tx1233",
        "text": "Have you had a back injury IN THE LAST 4 WEEKS?",
        "answer": [ {
          "valueString": "no"
        } ]
      } ]
    }
  }, {
    "fullUrl": "urn:uuid:c3ea7f53-80d8-41a4-9b4d-224b72e444cc",
    "resource": {
      "resourceType": "Questionnaire",
      "id": "c3ea7f53-80d8-41a4-9b4d-224b72e444cc",
      "identifier": [ {
        "value": "1766749"
      } ],
      "version": "2021-08-03T13:04:53.000Z",
      "status": "active",
      "experimental": false,
      "date": "2021-08-03T13:04:53+00:00",
      "publisher": "User ID: '922' User name: 'AndrewJ.Walford' User skill set: 'T4'",
      "lastReviewDate": "2021-08-03",
      "contact": [ {
        "telecom": [ {
          "system": "phone",
          "value": "07798501130"
        } ]
      } ],
      "subjectType": [ "Patient" ],
      "item": [ {
        "linkId": "1766749",
        "prefix": "900",
        "text": "Have you had a back injury IN THE LAST 4 WEEKS?",
        "type": "choice",
        "required": true,
        "repeats": false,
        "option": [ {
          "valueString": "yes, Selected: false"
        }, {
          "valueString": "not sure, Selected: false"
        }, {
          "valueString": "no, Selected: true"
        } ]
      } ]
    }
  }, {
    "fullUrl": "urn:uuid:1ccf33d9-666d-4199-9dd5-5f267d8dc6b1",
    "resource": {
      "resourceType": "QuestionnaireResponse",
      "id": "1ccf33d9-666d-4199-9dd5-5f267d8dc6b1",
      "identifier": {
        "value": "1766749"
      },
      "questionnaire": {
        "reference": "urn:uuid:9d4b0153-6369-4c6b-bb78-3e13a2837f20"
      },
      "status": "completed",
      "subject": {
        "reference": "urn:uuid:7416fc1a-4d65-4ede-b7f1-048c454f9be0"
      },
      "context": {
        "reference": "urn:uuid:1a387b08-e754-4579-b5ea-476e3bcbbb95"
      },
      "authored": "2021-08-03T13:04:53+00:00",
      "item": [ {
        "linkId": "Tx2947",
        "text": "Have you had any change of medication IN THE LAST 2 WEEKS?",
        "answer": [ {
          "valueString": "no"
        } ]
      } ]
    }
  }, {
    "fullUrl": "urn:uuid:9d4b0153-6369-4c6b-bb78-3e13a2837f20",
    "resource": {
      "resourceType": "Questionnaire",
      "id": "9d4b0153-6369-4c6b-bb78-3e13a2837f20",
      "identifier": [ {
        "value": "1766749"
      } ],
      "version": "2021-08-03T13:04:53.000Z",
      "status": "active",
      "experimental": false,
      "date": "2021-08-03T13:04:53+00:00",
      "publisher": "User ID: '922' User name: 'AndrewJ.Walford' User skill set: 'T4'",
      "lastReviewDate": "2021-08-03",
      "contact": [ {
        "telecom": [ {
          "system": "phone",
          "value": "07798501130"
        } ]
      } ],
      "subjectType": [ "Patient" ],
      "item": [ {
        "linkId": "1766749",
        "prefix": "1000",
        "text": "Have you had any change of medication IN THE LAST 2 WEEKS?",
        "type": "choice",
        "required": true,
        "repeats": false,
        "option": [ {
          "valueString": "started new medication, Selected: false"
        }, {
          "valueString": "changed the dose of medication, Selected: false"
        }, {
          "valueString": "stopped medication, Selected: false"
        }, {
          "valueString": "not sure, Selected: false"
        }, {
          "valueString": "no, Selected: true"
        } ]
      } ]
    }
  }, {
    "fullUrl": "urn:uuid:1e5d8033-eccd-4f9d-8c2e-523df7c103ce",
    "resource": {
      "resourceType": "QuestionnaireResponse",
      "id": "1e5d8033-eccd-4f9d-8c2e-523df7c103ce",
      "identifier": {
        "value": "1766749"
      },
      "questionnaire": {
        "reference": "urn:uuid:b98477e1-c505-4acd-8e68-0a526971af80"
      },
      "status": "completed",
      "subject": {
        "reference": "urn:uuid:7416fc1a-4d65-4ede-b7f1-048c454f9be0"
      },
      "context": {
        "reference": "urn:uuid:1a387b08-e754-4579-b5ea-476e3bcbbb95"
      },
      "authored": "2021-08-03T13:04:53+00:00",
      "item": [ {
        "linkId": "Tx221449",
        "text": "STRING:SDPCFullPrimaryCareassessmentandprescribingcapability",
        "answer": [ {
          "valueString": "\"\"PC full Primary Care assessment and prescribing capability\"\""
        } ]
      } ]
    }
  }, {
    "fullUrl": "urn:uuid:b98477e1-c505-4acd-8e68-0a526971af80",
    "resource": {
      "resourceType": "Questionnaire",
      "id": "b98477e1-c505-4acd-8e68-0a526971af80",
      "identifier": [ {
        "value": "1766749"
      } ],
      "version": "2021-08-03T13:04:53.000Z",
      "status": "active",
      "experimental": false,
      "date": "2021-08-03T13:04:53+00:00",
      "publisher": "User ID: '922' User name: 'AndrewJ.Walford' User skill set: 'T4'",
      "lastReviewDate": "2021-08-03",
      "contact": [ {
        "telecom": [ {
          "system": "phone",
          "value": "07798501130"
        } ]
      } ],
      "subjectType": [ "Patient" ],
      "item": [ {
        "linkId": "1766749",
        "prefix": "1200",
        "text": "STRING:SDPCFullPrimaryCareassessmentandprescribingcapability",
        "type": "choice",
        "required": true,
        "repeats": false,
        "option": [ {
          "valueString": "\"\"PC full Primary Care assessment and prescribing capability\"\", Selected: true"
        } ]
      } ]
    }
  }, {
    "fullUrl": "urn:uuid:4d24a3b0-2e5e-48e8-a0c5-49d53ba67afa",
    "resource": {
      "resourceType": "QuestionnaireResponse",
      "id": "4d24a3b0-2e5e-48e8-a0c5-49d53ba67afa",
      "identifier": {
        "value": "1766749"
      },
      "questionnaire": {
        "reference": "urn:uuid:f66dd462-54e5-4d02-bdc7-5d2007e32b77"
      },
      "status": "completed",
      "subject": {
        "reference": "urn:uuid:7416fc1a-4d65-4ede-b7f1-048c454f9be0"
      },
      "context": {
        "reference": "urn:uuid:1a387b08-e754-4579-b5ea-476e3bcbbb95"
      },
      "authored": "2021-08-03T13:04:53+00:00"
    }
  }, {
    "fullUrl": "urn:uuid:f66dd462-54e5-4d02-bdc7-5d2007e32b77",
    "resource": {
      "resourceType": "Questionnaire",
      "id": "f66dd462-54e5-4d02-bdc7-5d2007e32b77",
      "identifier": [ {
        "value": "1766749"
      } ],
      "version": "2021-08-03T13:04:53.000Z",
      "status": "active",
      "experimental": false,
      "date": "2021-08-03T13:04:53+00:00",
      "publisher": "User ID: '922' User name: 'AndrewJ.Walford' User skill set: 'T4'",
      "lastReviewDate": "2021-08-03",
      "contact": [ {
        "telecom": [ {
          "system": "phone",
          "value": "07798501130"
        } ]
      } ],
      "subjectType": [ "Patient" ]
    }
  }, {
    "fullUrl": "urn:uuid:da9b4053-3bc8-4580-bbbb-9a9ca5197681",
    "resource": {
      "resourceType": "QuestionnaireResponse",
      "id": "da9b4053-3bc8-4580-bbbb-9a9ca5197681",
      "identifier": {
        "value": "1766749"
      },
      "questionnaire": {
        "reference": "urn:uuid:8c5bf065-02b2-4619-ba24-43399e91f295"
      },
      "status": "completed",
      "subject": {
        "reference": "urn:uuid:7416fc1a-4d65-4ede-b7f1-048c454f9be0"
      },
      "context": {
        "reference": "urn:uuid:1a387b08-e754-4579-b5ea-476e3bcbbb95"
      },
      "authored": "2021-08-03T13:04:53+00:00",
      "item": [ {
        "linkId": "N/A"
      } ]
    }
  }, {
    "fullUrl": "urn:uuid:8c5bf065-02b2-4619-ba24-43399e91f295",
    "resource": {
      "resourceType": "Questionnaire",
      "id": "8c5bf065-02b2-4619-ba24-43399e91f295",
      "identifier": [ {
        "value": "1766749"
      } ],
      "version": "2021-08-03T13:04:53.000Z",
      "status": "active",
      "experimental": false,
      "date": "2021-08-03T13:04:53+00:00",
      "publisher": "User ID: '922' User name: 'AndrewJ.Walford' User skill set: 'T4'",
      "lastReviewDate": "2021-08-03",
      "contact": [ {
        "telecom": [ {
          "system": "phone",
          "value": "07798501130"
        } ]
      } ],
      "subjectType": [ "Patient" ],
      "item": [ {
        "linkId": "1766749",
        "type": "choice",
        "required": true,
        "repeats": false,
        "option": [ {
          "valueString": ", Selected: false"
        } ]
      } ]
    }
  }, {
    "fullUrl": "urn:uuid:7139ccae-71ea-4c67-936f-20f4cbc907e2",
    "resource": {
      "resourceType": "QuestionnaireResponse",
      "id": "7139ccae-71ea-4c67-936f-20f4cbc907e2",
      "identifier": {
        "value": "1766749"
      },
      "questionnaire": {
        "reference": "urn:uuid:775512bc-85a4-4b49-890a-bb0223f5c2f9"
      },
      "status": "completed",
      "subject": {
        "reference": "urn:uuid:7416fc1a-4d65-4ede-b7f1-048c454f9be0"
      },
      "context": {
        "reference": "urn:uuid:1a387b08-e754-4579-b5ea-476e3bcbbb95"
      },
      "authored": "2021-08-03T13:04:53+00:00"
    }
  }, {
    "fullUrl": "urn:uuid:775512bc-85a4-4b49-890a-bb0223f5c2f9",
    "resource": {
      "resourceType": "Questionnaire",
      "id": "775512bc-85a4-4b49-890a-bb0223f5c2f9",
      "identifier": [ {
        "value": "1766749"
      } ],
      "version": "2021-08-03T13:04:53.000Z",
      "status": "active",
      "experimental": false,
      "date": "2021-08-03T13:04:53+00:00",
      "publisher": "User ID: '922' User name: 'AndrewJ.Walford' User skill set: 'T4'",
      "lastReviewDate": "2021-08-03",
      "contact": [ {
        "telecom": [ {
          "system": "phone",
          "value": "07798501130"
        } ]
      } ],
      "subjectType": [ "Patient" ]
    }
  }, {
    "fullUrl": "urn:uuid:6440fa01-b3b7-47f6-8dfc-5741fb7a2c63",
    "resource": {
      "resourceType": "Observation",
      "id": "6440fa01-b3b7-47f6-8dfc-5741fb7a2c63",
      "status": "final",
      "code": {
        "coding": [ {
          "system": "http://snomed.info/sct",
          "code": "33962009",
          "display": "Presenting complaint"
        } ]
      },
      "subject": {
        "reference": "urn:uuid:7416fc1a-4d65-4ede-b7f1-048c454f9be0"
      },
      "context": {
        "reference": "urn:uuid:1a387b08-e754-4579-b5ea-476e3bcbbb95"
      }
    }
  }, {
    "fullUrl": "urn:uuid:b64b7457-97ef-4635-8af3-8696a8c47fd8",
    "resource": {
      "resourceType": "PractitionerRole",
      "id": "b64b7457-97ef-4635-8af3-8696a8c47fd8",
      "practitioner": {
        "reference": "urn:uuid:e71c459c-46eb-4698-a40d-75adbb14ffa1"
      },
      "organization": {
        "reference": "urn:uuid:92688db1-87ad-48a0-be76-0c667e98807f"
      },
      "code": [ {
        "coding": [ {
          "system": "2.16.840.1.113883.2.1.3.2.4.17.339",
          "code": "NP",
          "display": "Nurse Practitioner"
        } ]
      } ]
    }
  }, {
    "fullUrl": "urn:uuid:92688db1-87ad-48a0-be76-0c667e98807f",
    "resource": {
      "resourceType": "Organization",
      "id": "92688db1-87ad-48a0-be76-0c667e98807f",
      "identifier": [ {
        "value": "RX7"
      } ],
      "name": "NWAS 111"
    }
  }, {
    "fullUrl": "urn:uuid:4132976d-cb6c-46c8-8422-b127c40da970",
    "resource": {
      "resourceType": "RelatedPerson",
      "id": "4132976d-cb6c-46c8-8422-b127c40da970",
      "patient": {
        "reference": "urn:uuid:7416fc1a-4d65-4ede-b7f1-048c454f9be0"
      },
      "relationship": {
        "coding": [ {
          "system": "http://hl7.org/fhir/v2/0131",
          "code": "C",
          "display": "Emergency Contact"
        } ]
      },
      "telecom": [ {
        "system": "phone",
        "value": "tel:07798501130"
      } ]
    }
  }, {
    "fullUrl": "urn:uuid:6ca04a81-39d9-450e-8cfd-977de30c0990",
    "resource": {
      "resourceType": "Device",
      "id": "6ca04a81-39d9-450e-8cfd-977de30c0990",
      "model": "111 Adaptor",
      "version": "1.0.1"
    }
  }, {
    "fullUrl": "urn:uuid:7ceb3dd0-6b0c-4eaf-8daa-fdbd86c6f43c",
    "resource": {
      "resourceType": "List",
      "id": "7ceb3dd0-6b0c-4eaf-8daa-fdbd86c6f43c",
      "status": "current",
      "mode": "working",
      "title": "111 Report List",
      "code": {
        "coding": [ {
          "system": "http://snomed.info/sct",
          "code": "225390008",
          "display": "Triage"
        } ]
      },
      "subject": {
        "reference": "urn:uuid:7416fc1a-4d65-4ede-b7f1-048c454f9be0"
      },
      "encounter": {
        "reference": "urn:uuid:1a387b08-e754-4579-b5ea-476e3bcbbb95"
      },
      "date": "2021-08-03T13:04:53+00:00",
      "source": {
        "reference": "urn:uuid:6ca04a81-39d9-450e-8cfd-977de30c0990"
      },
      "orderedBy": {
        "coding": [ {
          "system": "http://hl7.org/fhir/list-order",
          "code": "event-date",
          "display": "Sorted by Event Date"
        } ]
      },
      "entry": [ {
        "item": {
          "reference": "urn:uuid:e71c459c-46eb-4698-a40d-75adbb14ffa1"
        }
      }, {
        "item": {
          "reference": "urn:uuid:d78ef0df-40ad-4ffe-b3d3-19ebccef6981"
        }
      }, {
        "item": {
          "reference": "urn:uuid:6440fa01-b3b7-47f6-8dfc-5741fb7a2c63"
        }
      }, {
        "item": {
          "reference": "urn:uuid:92688db1-87ad-48a0-be76-0c667e98807f"
        }
      }, {
        "item": {
          "reference": "urn:uuid:8b0e07b3-24f5-406d-8283-914354ee1d73"
        }
      }, {
        "item": {
          "reference": "urn:uuid:ddc9c461-d84d-41b3-a4d3-9e4bc4f05022"
        }
      }, {
        "item": {
          "reference": "urn:uuid:4132976d-cb6c-46c8-8422-b127c40da970"
        }
      }, {
        "item": {
          "reference": "urn:uuid:ebd9efda-4941-4b20-acd0-c05556de948c"
        }
      }, {
        "item": {
          "reference": "urn:uuid:69a829bd-a629-41ea-a32b-d07a5b30238d"
        }
      }, {
        "item": {
          "reference": "urn:uuid:da79979f-2e59-4855-baa5-35d25fd7593c"
        }
      }, {
        "item": {
          "reference": "urn:uuid:3d301312-3684-4087-809b-d1686807618d"
        }
      }, {
        "item": {
          "reference": "urn:uuid:ff0afa87-ab4a-4aaf-ad63-0a3f348b7846"
        }
      }, {
        "item": {
          "reference": "urn:uuid:cda4a98f-dea8-410f-8020-42d6cd767bb5"
        }
      }, {
        "item": {
          "reference": "urn:uuid:b095668b-73c1-4c81-870a-e8e1a8c725be"
        }
      }, {
        "item": {
          "reference": "urn:uuid:64b0648d-a553-49d0-b9a3-ca220a3d7383"
        }
      }, {
        "item": {
          "reference": "urn:uuid:8fb19c32-7165-4b77-a988-7b864d922de9"
        }
      }, {
        "item": {
          "reference": "urn:uuid:f87f31e9-10c7-4d48-83eb-214d890f209b"
        }
      }, {
        "item": {
          "reference": "urn:uuid:57251c77-96db-4412-a3b0-17308bb70b10"
        }
      }, {
        "item": {
          "reference": "urn:uuid:06dff1f7-b08b-44ad-93a1-d6dd9020060b"
        }
      }, {
        "item": {
          "reference": "urn:uuid:aeeb2efc-d70f-49e3-8f0d-b5ddfd84dbbb"
        }
      }, {
        "item": {
          "reference": "urn:uuid:c3ea7f53-80d8-41a4-9b4d-224b72e444cc"
        }
      }, {
        "item": {
          "reference": "urn:uuid:345222c8-4784-4c5b-9fd9-8c441c7b8bf8"
        }
      }, {
        "item": {
          "reference": "urn:uuid:898984a0-7192-49bb-a948-8ae89368fd43"
        }
      }, {
        "item": {
          "reference": "urn:uuid:1e5d8033-eccd-4f9d-8c2e-523df7c103ce"
        }
      }, {
        "item": {
          "reference": "urn:uuid:f66dd462-54e5-4d02-bdc7-5d2007e32b77"
        }
      }, {
        "item": {
          "reference": "urn:uuid:9d4b0153-6369-4c6b-bb78-3e13a2837f20"
        }
      }, {
        "item": {
          "reference": "urn:uuid:6c273476-4dc2-4fe6-9788-8f9a979daca9"
        }
      }, {
        "item": {
          "reference": "urn:uuid:d7c5eb6d-609e-4070-84d0-a855c2059e02"
        }
      }, {
        "item": {
          "reference": "urn:uuid:8334b1d5-a160-4ef4-8d59-f229e3db8173"
        }
      }, {
        "item": {
          "reference": "urn:uuid:c0322257-bfeb-43f2-ac71-a7c846119341"
        }
      }, {
        "item": {
          "reference": "urn:uuid:8abb309c-bba1-41ff-9118-a97fcb0973d5"
        }
      }, {
        "item": {
          "reference": "urn:uuid:7139ccae-71ea-4c67-936f-20f4cbc907e2"
        }
      }, {
        "item": {
          "reference": "urn:uuid:841a3865-ff56-4b05-b917-9381fbc27731"
        }
      }, {
        "item": {
          "reference": "urn:uuid:c667d2c1-9c7a-4c5e-81e0-a887104c37e6"
        }
      }, {
        "item": {
          "reference": "urn:uuid:ff52eafe-35d1-455e-88a9-bf4b8f4e13cd"
        }
      }, {
        "item": {
          "reference": "urn:uuid:41377adb-3b5a-4258-a84e-295943c3045e"
        }
      }, {
        "item": {
          "reference": "urn:uuid:ef69d0d3-27de-4b5e-89b7-963bd0b1649c"
        }
      }, {
        "item": {
          "reference": "urn:uuid:7b26e1df-3dd1-49cb-99e8-6b8e12dc5f8c"
        }
      }, {
        "item": {
          "reference": "urn:uuid:b98477e1-c505-4acd-8e68-0a526971af80"
        }
      }, {
        "item": {
          "reference": "urn:uuid:16841c10-2d98-4d84-89f4-c725e4f0c508"
        }
      }, {
        "item": {
          "reference": "urn:uuid:aa24a4f1-9822-4935-a4f8-c52abdcb835f"
        }
      }, {
        "item": {
          "reference": "urn:uuid:330e8d44-0603-4d1e-b765-e7155615f083"
        }
      }, {
        "item": {
          "reference": "urn:uuid:841f9613-d729-47ca-b678-7b71bade4067"
        }
      }, {
        "item": {
          "reference": "urn:uuid:768728d2-e696-45fc-b083-451c26d6b39c"
        }
      }, {
        "item": {
          "reference": "urn:uuid:de265d5d-fd23-4973-9732-63d009a53dd5"
        }
      }, {
        "item": {
          "reference": "urn:uuid:e1864fd1-1c9e-4420-9d08-4f8bb330ad93"
        }
      }, {
        "item": {
          "reference": "urn:uuid:81c9d550-df06-4d36-9140-e58625b15689"
        }
      }, {
        "item": {
          "reference": "urn:uuid:7e1512d0-2315-463d-982b-14b5c1df1414"
        }
      }, {
        "item": {
          "reference": "urn:uuid:921716b6-08c1-4887-a939-2e43752a72c5"
        }
      }, {
        "item": {
          "reference": "urn:uuid:20be41d5-c396-4229-87ed-c02b6ceb51e4"
        }
      }, {
        "item": {
          "reference": "urn:uuid:4d24a3b0-2e5e-48e8-a0c5-49d53ba67afa"
        }
      }, {
        "item": {
          "reference": "urn:uuid:395453aa-d232-4541-aca9-84ae1a10babb"
        }
      }, {
        "item": {
          "reference": "urn:uuid:8c5bf065-02b2-4619-ba24-43399e91f295"
        }
      }, {
        "item": {
          "reference": "urn:uuid:694b5e4d-e9de-41e0-9276-7b1ddafe0e61"
        }
      }, {
        "item": {
          "reference": "urn:uuid:5fa3f5cc-f1be-46a1-9759-7ca376278833"
        }
      }, {
        "item": {
          "reference": "urn:uuid:cf3a8c5c-ba4d-47ef-8e36-6dcea0910861"
        }
      }, {
        "item": {
          "reference": "urn:uuid:f9099fda-178e-4adc-9674-70de719a57e3"
        }
      }, {
        "item": {
          "reference": "urn:uuid:39039715-2191-4160-a580-155d398ea93e"
        }
      }, {
        "item": {
          "reference": "urn:uuid:157f2e0d-1393-45a9-bb80-5bf3d9ae791e"
        }
      }, {
        "item": {
          "reference": "urn:uuid:da9b4053-3bc8-4580-bbbb-9a9ca5197681"
        }
      }, {
        "item": {
          "reference": "urn:uuid:cbd9ea5d-3e2f-4c1e-b7bf-d60f83f7912e"
        }
      }, {
        "item": {
          "reference": "urn:uuid:4befbce8-4eec-412c-bb26-9ca1dc0760a8"
        }
      }, {
        "item": {
          "reference": "urn:uuid:5b5fe3f7-292d-485f-9c7d-d0299b59a7ab"
        }
      }, {
        "item": {
          "reference": "urn:uuid:1edc5abb-c8f6-417c-a493-820b2fa8e2ba"
        }
      }, {
        "item": {
          "reference": "urn:uuid:b61fa6bc-7f1a-4847-b9f6-9cf555a2f0fa"
        }
      }, {
        "item": {
          "reference": "urn:uuid:6223d9e6-0a21-46d8-b39d-88959a48cfbf"
        }
      }, {
        "item": {
          "reference": "urn:uuid:1ccf33d9-666d-4199-9dd5-5f267d8dc6b1"
        }
      }, {
        "item": {
          "reference": "urn:uuid:45b3d68e-89bf-4a38-a872-5ece18e9de81"
        }
      }, {
        "item": {
          "reference": "urn:uuid:9ea7efda-bd94-4ebb-8b9c-b2135d3cfff6"
        }
      }, {
        "item": {
          "reference": "urn:uuid:18bef781-bd99-4703-951f-2d07057ef455"
        }
      }, {
        "item": {
          "reference": "urn:uuid:ad83f718-17c6-4cbf-a230-5fdc166de586"
        }
      }, {
        "item": {
          "reference": "urn:uuid:775512bc-85a4-4b49-890a-bb0223f5c2f9"
        }
      }, {
        "item": {
          "reference": "urn:uuid:317e984e-91c4-4bae-ae20-855884967d47"
        }
      } ]
    }
  } ]
}