{
  "resourceType": "Bundle",
  "identifier": {
    "type": {
      "text": "ClinicalDocument VersionNumber"
    },
    "value": "1"
  },
  "type": "message",
  "entry": [ {
    "fullUrl": "urn:uuid:B447241A-CEBD-41DF-AC62-46FE8022876F",
    "resource": {
      "resourceType": "MessageHeader",
      "id": "B447241A-CEBD-41DF-AC62-46FE8022876F",
      "event": {
        "system": "https://fhir.nhs.uk/STU3/CodeSystem/EventType-1",
        "code": "referral-1",
        "display": "Referral"
      },
      "destination": [ {
        "endpoint": "urn:nhs-uk:addressing:ods:Y02837001:DOSServiceID:1340268940"
      } ],
      "timestamp": "2021-08-03T13:04:53.000+00:00",
      "source": {
        "name": "NHS 111 Adaptor",
        "endpoint": "http://localhost:8080/report"
      },
      "reason": {
        "coding": [ {
          "system": "urn:nhs-itk:ns:201005:interaction",
          "code": "urn:nhs-itk:interaction:primaryOutofHourRecipientNHS111CDADocument-v2-0"
        } ]
      }
    },
    "response": {
      "status": "success",
      "lastModified": "2022-05-05T12:27:58.296+00:00"
    }
  }, {
    "fullUrl": "urn:uuid:5b15e5aa-0d0c-4013-84ac-fd2608f573ae",
    "resource": {
      "resourceType": "Encounter",
      "id": "5b15e5aa-0d0c-4013-84ac-fd2608f573ae",
      "identifier": [ {
        "system": "2.16.840.1.113883.2.1.3.2.4.18.49",
        "value": "0163118D-0756-4A98-8F34-458721C6481F"
      }, {
        "system": "2.16.840.1.113883.2.1.3.2.4.18.34",
        "value": "1766749"
      }, {
        "system": "2.16.840.1.113883.2.1.3.2.4.18.35",
        "value": "1766749"
      } ],
      "status": "finished",
      "type": [ {
        "text": "111 Encounter Referral"
      } ],
      "subject": {
        "reference": "urn:uuid:99a27dca-3594-4835-aad4-4a832718713e"
      },
      "participant": [ {
        "type": [ {
          "coding": [ {
            "system": "http://hl7.org/fhir/ValueSet/encounter-participant-type",
            "code": "PPRF",
            "display": "Author"
          } ]
        } ],
        "individual": {
          "reference": "urn:uuid:d4e77739-5872-4c48-b51c-df587f5a8101"
        }
      } ],
      "period": {
        "start": "2021-08-03T12:35:22+00:00",
        "end": "2021-08-03T13:04:53+00:00"
      },
      "location": [ {
        "location": {
          "reference": "urn:uuid:e142c64f-e87c-4963-a380-51e3b80f07b7"
        },
        "status": "completed"
      } ],
      "serviceProvider": {
        "reference": "urn:uuid:bcc599df-254e-4c75-b30c-acf7def4c4fa"
      }
    }
  }, {
    "fullUrl": "urn:uuid:bcc599df-254e-4c75-b30c-acf7def4c4fa",
    "resource": {
      "resourceType": "Organization",
      "id": "bcc599df-254e-4c75-b30c-acf7def4c4fa",
      "active": true,
      "type": [ {
        "text": "CST"
      } ],
      "name": "NWAS 111"
    }
  }, {
    "fullUrl": "urn:uuid:d4e77739-5872-4c48-b51c-df587f5a8101",
    "resource": {
      "resourceType": "Practitioner",
      "id": "d4e77739-5872-4c48-b51c-df587f5a8101",
      "active": true,
      "name": [ {
        "text": "AndrewJ.Walford"
      } ]
    }
  }, {
    "fullUrl": "urn:uuid:e142c64f-e87c-4963-a380-51e3b80f07b7",
    "resource": {
      "resourceType": "Location",
      "id": "e142c64f-e87c-4963-a380-51e3b80f07b7",
      "address": {
        "type": "physical",
        "line": [ "Fleetwood Health & Wellbeing Centre", "Dock Street", "Fleetwood" ],
        "postalCode": "FY7 6HP"
      }
    }
  }, {
    "fullUrl": "urn:uuid:99a27dca-3594-4835-aad4-4a832718713e",
    "resource": {
      "resourceType": "Patient",
      "id": "99a27dca-3594-4835-aad4-4a832718713e",
      "active": true,
      "name": [ {
        "use": "official",
        "family": "Please Disregard",
        "given": [ "Dx10 Test" ]
      } ],
      "telecom": [ {
        "system": "phone",
        "value": "tel:07798501130",
        "use": "mobile"
      }, {
        "system": "phone",
        "value": "tel:07798501130"
      } ],
      "gender": "male",
      "birthDate": "1980-01-01",
      "address": [ {
        "use": "home",
        "line": [ "Fleetwood Health & Wellbeing Centre", "Dock Street", "Fleetwood" ],
        "postalCode": "FY7 6HP"
      }, {
        "type": "physical",
        "line": [ "Fleetwood Health & Wellbeing Centre", "Dock Street", "Fleetwood" ],
        "postalCode": "FY7 6HP"
      } ]
    }
  }, {
    "fullUrl": "urn:uuid:5e873ce0-ab92-4d09-bb61-5a51df314afc",
    "resource": {
      "resourceType": "HealthcareService",
      "id": "5e873ce0-ab92-4d09-bb61-5a51df314afc",
      "active": true,
      "providedBy": {
        "reference": "urn:uuid:faa2edb0-f60a-454f-9ec6-bb299f0346aa"
      },
      "location": [ {
        "reference": "urn:uuid:a950a237-81dd-40a4-8ab7-9f5e8625db5b"
      } ],
      "name": "Urgent Treatment Centre - Minor Injury Unit Same Day Health Cent",
      "telecom": [ {
        "system": "phone",
        "value": "tel:03001231144NP:01253955551",
        "use": "work"
      } ]
    }
  }, {
    "fullUrl": "urn:uuid:a950a237-81dd-40a4-8ab7-9f5e8625db5b",
    "resource": {
      "resourceType": "Location",
      "id": "a950a237-81dd-40a4-8ab7-9f5e8625db5b",
      "telecom": [ {
        "system": "phone",
        "value": "tel:03001231144NP:01253955551",
        "use": "work"
      } ],
      "address": {
        "use": "work",
        "line": [ "x", "x", "x" ],
        "postalCode": "FY7 6HP"
      },
      "managingOrganization": {
        "reference": "urn:uuid:faa2edb0-f60a-454f-9ec6-bb299f0346aa"
      }
    }
  }, {
    "fullUrl": "urn:uuid:faa2edb0-f60a-454f-9ec6-bb299f0346aa",
    "resource": {
      "resourceType": "Organization",
      "id": "faa2edb0-f60a-454f-9ec6-bb299f0346aa",
      "identifier": [ {
        "value": "Y02837001"
      } ],
      "type": [ {
        "coding": [ {
          "code": "PRCP",
          "display": "Urgent Treatment Centre - Minor Injury Unit Same Day Health Cent"
        } ]
      } ],
      "name": "Urgent Treatment Centre - Minor Injury Unit Same Day Health Cent"
    }
  }, {
    "fullUrl": "urn:uuid:e5ed7595-72cf-4d33-b86c-47789a12751b",
    "resource": {
      "resourceType": "ReferralRequest",
      "id": "e5ed7595-72cf-4d33-b86c-47789a12751b",
      "status": "active",
      "intent": "plan",
      "priority": "routine",
      "subject": {
        "reference": "urn:uuid:99a27dca-3594-4835-aad4-4a832718713e"
      },
      "context": {
        "reference": "urn:uuid:5b15e5aa-0d0c-4013-84ac-fd2608f573ae"
      },
      "occurrencePeriod": {
        "start": "2021-08-03T13:04:53+00:00"
      },
      "authoredOn": "2021-08-03T12:35:22+00:00",
      "requester": {
        "agent": {
          "reference": "urn:uuid:408089c0-85a8-4ce0-97a7-0e5f6193073e"
        },
        "onBehalfOf": {
          "reference": "urn:uuid:bcc599df-254e-4c75-b30c-acf7def4c4fa"
        }
      },
      "recipient": [ {
        "reference": "urn:uuid:3000e400-27b0-422e-b8c2-9b2feea254f4"
      }, {
        "reference": "urn:uuid:5e873ce0-ab92-4d09-bb61-5a51df314afc"
      } ],
      "reasonReference": [ {
        "reference": "urn:uuid:3dbe3773-55bf-451b-a7f5-29e81c092bd2"
      } ],
      "supportingInfo": [ {
        "reference": "urn:uuid:86f6efdb-fc1f-45c8-87d8-b1be390130b0"
      } ]
    }
  }, {
    "fullUrl": "urn:uuid:86f6efdb-fc1f-45c8-87d8-b1be390130b0",
    "resource": {
      "resourceType": "ProcedureRequest",
      "id": "86f6efdb-fc1f-45c8-87d8-b1be390130b0",
      "status": "active",
      "intent": "plan",
      "priority": "routine",
      "doNotPerform": false,
      "code": {
        "coding": [ {
          "system": "2.16.840.1.113883.2.1.3.2.4.17.325",
          "code": "Dx10",
          "display": "Must Contact A Local Service For A Non-urgent Appointment"
        } ]
      },
      "subject": {
        "reference": "urn:uuid:99a27dca-3594-4835-aad4-4a832718713e"
      },
      "occurrencePeriod": {
        "start": "2021-08-03T13:04:53+00:00"
      },
      "reasonReference": [ {
        "reference": "urn:uuid:3dbe3773-55bf-451b-a7f5-29e81c092bd2"
      } ]
    }
  }, {
    "fullUrl": "urn:uuid:3000e400-27b0-422e-b8c2-9b2feea254f4",
    "resource": {
      "resourceType": "Practitioner",
      "id": "3000e400-27b0-422e-b8c2-9b2feea254f4",
      "active": true,
      "telecom": [ {
        "system": "phone",
        "value": "tel:03001231144NP:01253955551",
        "use": "work"
      } ],
      "address": [ {
        "type": "physical",
        "line": [ "x", "x", "x" ],
        "postalCode": "FY7 6HP"
      } ]
    }
  }, {
    "fullUrl": "urn:uuid:8ee20974-40f2-4b70-940d-81853f36583e",
    "resource": {
      "resourceType": "Composition",
      "id": "8ee20974-40f2-4b70-940d-81853f36583e",
      "identifier": {
        "use": "usual",
        "value": "DEF337D1-08BF-4631-B11E-28F64349A031"
      },
      "status": "final",
      "type": {
        "coding": [ {
          "system": "http://snomed.info/sct",
          "code": "371531000",
          "display": "Report of clinical encounter (record artifact)"
        } ]
      },
      "subject": {
        "reference": "urn:uuid:99a27dca-3594-4835-aad4-4a832718713e"
      },
      "encounter": {
        "reference": "urn:uuid:5b15e5aa-0d0c-4013-84ac-fd2608f573ae"
      },
      "date": "2021-08-03T13:04:53+00:00",
      "author": [ {
        "reference": "urn:uuid:d4e77739-5872-4c48-b51c-df587f5a8101"
      } ],
      "title": "111 Report",
      "confidentiality": "N",
      "section": [ {
        "section": [ {
          "title": "Patient's Reported Condition",
          "text": {
            "status": "generated",
            "div": "<div xmlns=\"http://www.w3.org/1999/xhtml\">**test From Nwas111 - No Action Required - Please Disregard Test</div>"
          }
        }, {
          "title": "Case Summary",
          "text": {
            "status": "generated",
            "div": "<div xmlns=\"http://www.w3.org/1999/xhtml\">&lt;content styleCode=&quot;bold&quot;&gt;Pathways Disposition: Dx10&lt;/content&gt;\n                                                    &lt;br/&gt;\n                                                    &lt;content&gt;Must Contact A Local Service For A Non-urgent Appointment User comment - '**Test From NWAS111 - No Action required - Please Disregard Test case**'&lt;/content&gt;\n                                                    &lt;br/&gt;\n                                                    &lt;br/&gt;\n                                                    &lt;content styleCode=&quot;bold&quot;&gt;Consultation Summary:&lt;/content&gt;\n                                                    &lt;br/&gt;\n                                                    &lt;content&gt;Illness - '**Test From NWAS111 - No Action required - Please Disregard Test case**'&lt;/content&gt;\n                                                    &lt;br/&gt;\n                                                    &lt;content&gt;Warm to touch&lt;/content&gt;\n                                                    &lt;br/&gt;\n                                                    &lt;br/&gt;\n                                                    &lt;content styleCode=&quot;bold&quot;&gt;Pathways Assessment:&lt;/content&gt;\n                                                    &lt;br/&gt;\n                                                    &lt;content&gt;An injury or health problem was the reason for the contact.&lt;/content&gt;\n                                                    &lt;br/&gt;\n                                                    &lt;content&gt;User comment - '**Test From NWAS111 - No Action required - Please Disregard Test case**'&lt;/content&gt;\n                                                    &lt;br/&gt;\n                                                    &lt;content&gt;Heavy bleeding had not occurred in the previous 2 hours.&lt;/content&gt;\n                                                    &lt;br/&gt;\n                                                    &lt;content&gt;An illness or health problem was the main problem.&lt;/content&gt;\n                                                    &lt;br/&gt;\n                                                    &lt;content&gt;User comment - '**Test From NWAS111 - No Action required - Please Disregard Test case**'&lt;/content&gt;\n                                                    &lt;br/&gt;\n                                                    &lt;content&gt;The individual was not fighting for breath.&lt;/content&gt;\n                                                    &lt;br/&gt;\n                                                    &lt;content&gt;The main reason for the assessment was not an allergic reaction, heart attack, chest/upper back pain, probable stroke, recent fit/seizure or suicide attempt.&lt;/content&gt;\n                                                    &lt;br/&gt;\n                                                    &lt;content&gt;The main reason for contact was not new confusion, declared diabetic hypo/hyperglycaemia, or ICD shock.&lt;/content&gt;\n                                                    &lt;br/&gt;\n                                                    &lt;content&gt;The skin on the torso felt normal, warm or hot.&lt;/content&gt;\n                                                    &lt;br/&gt;\n                                                    &lt;content&gt;Pathway selected - Difficulty Passing Urine&lt;/content&gt;\n                                                    &lt;br/&gt;\n                                                    &lt;content&gt;The individual was able to carry out most or all normal activities.&lt;/content&gt;\n                                                    &lt;br/&gt;\n                                                    &lt;content&gt;There was no new loss of bowel control or leg movement and no saddle or lower limb paraesthesia.&lt;/content&gt;\n                                                    &lt;br/&gt;\n                                                    &lt;content&gt;There was no inability to pass urine over the last 12 hours.&lt;/content&gt;\n                                                    &lt;br/&gt;\n                                                    &lt;content&gt;There was no new or worsening confusion.&lt;/content&gt;\n                                                    &lt;br/&gt;\n                                                    &lt;content&gt;Breathing harder or faster when doing nothing was not described.&lt;/content&gt;\n                                                    &lt;br/&gt;\n                                                    &lt;content&gt;There was no spinal pain.&lt;/content&gt;\n                                                    &lt;br/&gt;\n                                                    &lt;content&gt;The pain was not getting worse.&lt;/content&gt;\n                                                    &lt;br/&gt;\n                                                    &lt;content&gt;There was no fever at the time of assessment or within the previous 12 hours.&lt;/content&gt;\n                                                    &lt;br/&gt;\n                                                    &lt;content&gt;The individual had not experienced a back injury within the previous 4 weeks.&lt;/content&gt;\n                                                    &lt;br/&gt;\n                                                    &lt;content&gt;Medication type or dosage had not changed within the previous 2 weeks.&lt;/content&gt;\n                                                    &lt;br/&gt;\n                                                    &lt;content&gt;User comment - 'Urgent Treatment Centre - Same Day Health Centre - Fleetwood'&lt;/content&gt;\n                                                    &lt;br/&gt;\n                                                    &lt;br/&gt;\n                                                    &lt;content styleCode=&quot;bold&quot;&gt;Advice Given:&lt;/content&gt;\n                                                    &lt;br/&gt;\n                                                    &lt;content&gt;Unless advised not to, paracetamol may be used to relieve pain or fever. Follow the instructions in the pack. If in doubt ask a pharmacist.&lt;/content&gt;\n                                                    &lt;br/&gt;\n                                                    &lt;br/&gt;</div>"
          }
        } ]
      }, {
        "title": "ReferralRequest",
        "entry": [ {
          "reference": "urn:uuid:e5ed7595-72cf-4d33-b86c-47789a12751b"
        } ]
      }, {
        "title": "QuestionnaireResponse",
        "entry": [ {
          "reference": "urn:uuid:a49e4b47-b0f8-4f6f-857a-1f3bc4c480c9"
        } ]
      }, {
        "title": "QuestionnaireResponse",
        "entry": [ {
          "reference": "urn:uuid:de9f808a-7dd8-4526-9474-923863c55656"
        } ]
      }, {
        "title": "QuestionnaireResponse",
        "entry": [ {
          "reference": "urn:uuid:045900cc-b216-4c01-abdf-706eb85f9ddf"
        } ]
      }, {
        "title": "QuestionnaireResponse",
        "entry": [ {
          "reference": "urn:uuid:cce2882b-c320-4d4b-af61-8b5ce414c9be"
        } ]
      }, {
        "title": "QuestionnaireResponse",
        "entry": [ {
          "reference": "urn:uuid:f35a8a9f-50e0-42f3-bfaf-fda029bbb4cc"
        } ]
      }, {
        "title": "QuestionnaireResponse",
        "entry": [ {
          "reference": "urn:uuid:0c6d6b64-0325-4c6e-8417-78ad8227fa88"
        } ]
      }, {
        "title": "QuestionnaireResponse",
        "entry": [ {
          "reference": "urn:uuid:0170938a-6ec7-4f08-afcb-01f2d90bf112"
        } ]
      }, {
        "title": "QuestionnaireResponse",
        "entry": [ {
          "reference": "urn:uuid:59422520-e6f9-4830-9af5-a454fe21c225"
        } ]
      }, {
        "title": "QuestionnaireResponse",
        "entry": [ {
          "reference": "urn:uuid:129fc855-0d02-476b-8a0a-a004fd23b338"
        } ]
      }, {
        "title": "QuestionnaireResponse",
        "entry": [ {
          "reference": "urn:uuid:3375f537-d956-44d8-ae32-856aea5fe673"
        } ]
      }, {
        "title": "QuestionnaireResponse",
        "entry": [ {
          "reference": "urn:uuid:7f452733-a8ab-4906-bb83-7b6d6e3b55b9"
        } ]
      }, {
        "title": "QuestionnaireResponse",
        "entry": [ {
          "reference": "urn:uuid:5dd166f7-df5f-4887-8841-98f22c8e976f"
        } ]
      }, {
        "title": "QuestionnaireResponse",
        "entry": [ {
          "reference": "urn:uuid:4f06ffaf-e44c-4f02-a3c2-92b20ce9c43c"
        } ]
      }, {
        "title": "QuestionnaireResponse",
        "entry": [ {
          "reference": "urn:uuid:1199bc98-12c9-43ea-abdf-e27a36de3d54"
        } ]
      }, {
        "title": "QuestionnaireResponse",
        "entry": [ {
          "reference": "urn:uuid:7e4501d3-2d6c-4689-bcaa-f0fa99200c54"
        } ]
      }, {
        "title": "QuestionnaireResponse",
        "entry": [ {
          "reference": "urn:uuid:629eaa88-0925-46fd-ac43-c7c7d1a15c1a"
        } ]
      }, {
        "title": "QuestionnaireResponse",
        "entry": [ {
          "reference": "urn:uuid:ae50a645-83dc-4eb4-addd-f8cef955c083"
        } ]
      }, {
        "title": "QuestionnaireResponse",
        "entry": [ {
          "reference": "urn:uuid:594ae4b3-95d0-4143-96d3-672ce4683527"
        } ]
      }, {
        "title": "QuestionnaireResponse",
        "entry": [ {
          "reference": "urn:uuid:92ffd7f1-88dd-44a3-9c47-2d535e251eb2"
        } ]
      }, {
        "title": "QuestionnaireResponse",
        "entry": [ {
          "reference": "urn:uuid:e9e71661-e653-407d-81ae-8489547cc22d"
        } ]
      }, {
        "title": "QuestionnaireResponse",
        "entry": [ {
          "reference": "urn:uuid:70493ee2-1100-4457-8c97-8d72ffdf2403"
        } ]
      }, {
        "title": "QuestionnaireResponse",
        "entry": [ {
          "reference": "urn:uuid:8dea8062-2f59-49a9-8fa2-fe5aa7d0a947"
        } ]
      }, {
        "title": "QuestionnaireResponse",
        "entry": [ {
          "reference": "urn:uuid:42595e4e-3947-4fa6-a19c-5e4e1060e449"
        } ]
      }, {
        "title": "QuestionnaireResponse",
        "entry": [ {
          "reference": "urn:uuid:d25b932b-c14e-43b1-b8c2-dbd7b122ea03"
        } ]
      }, {
        "title": "QuestionnaireResponse",
        "entry": [ {
          "reference": "urn:uuid:df776165-c0df-4570-9beb-8d108ba12909"
        } ]
      }, {
        "title": "QuestionnaireResponse",
        "entry": [ {
          "reference": "urn:uuid:e5af57b8-1a4b-45ac-901d-de676f3871da"
        } ]
      }, {
        "title": "QuestionnaireResponse",
        "entry": [ {
          "reference": "urn:uuid:b6f8db6f-6a5e-4e3d-b31d-a3dae8861a47"
        } ]
      }, {
        "title": "QuestionnaireResponse",
        "entry": [ {
          "reference": "urn:uuid:ed996577-6b48-4b27-bdbc-843fbd4feb52"
        } ]
      }, {
        "title": "QuestionnaireResponse",
        "entry": [ {
          "reference": "urn:uuid:f699e604-628f-44d4-91b2-ec347b1ffed8"
        } ]
      }, {
        "title": "QuestionnaireResponse",
        "entry": [ {
          "reference": "urn:uuid:d05fd748-fc04-483b-b8b9-4eff1354afc5"
        } ]
      }, {
        "title": "QuestionnaireResponse",
        "entry": [ {
          "reference": "urn:uuid:1ae8c7ae-264c-4758-ae8a-065ca1db71ac"
        } ]
      }, {
        "title": "QuestionnaireResponse",
        "entry": [ {
          "reference": "urn:uuid:13bd2b43-6308-4189-8653-72dd0aef51cd"
        } ]
      } ]
    }
  }, {
    "fullUrl": "urn:uuid:049f3f99-cbc5-44c7-b028-ef039e3f14a9",
    "resource": {
      "resourceType": "Consent",
      "id": "049f3f99-cbc5-44c7-b028-ef039e3f14a9",
      "identifier": {
        "use": "usual",
        "value": "DEF337D1-08BF-4631-B11E-28F64349A031"
      },
      "status": "active",
      "patient": {
        "reference": "urn:uuid:99a27dca-3594-4835-aad4-4a832718713e"
      },
      "period": {
        "start": "2021-08-03T12:35:22+00:00",
        "end": "2021-08-03T13:04:53+00:00"
      },
      "consentingParty": [ {
        "reference": "urn:uuid:99a27dca-3594-4835-aad4-4a832718713e"
      } ],
      "action": [ {
        "coding": [ {
          "system": "http://snomed.info/sct",
          "code": "425691002",
          "display": "Consent given for electronic record sharing"
        } ],
        "text": "Consent given for electronic record sharing"
      } ],
      "organization": [ {
        "reference": "urn:uuid:bcc599df-254e-4c75-b30c-acf7def4c4fa"
      } ],
      "policyRule": "http://hl7.org/fhir/ConsentPolicy/opt-out",
      "data": [ {
        "meaning": "related",
        "reference": {
          "reference": "urn:uuid:5b15e5aa-0d0c-4013-84ac-fd2608f573ae"
        }
      } ]
    }
  }, {
    "fullUrl": "urn:uuid:3dbe3773-55bf-451b-a7f5-29e81c092bd2",
    "resource": {
      "resourceType": "Condition",
      "id": "3dbe3773-55bf-451b-a7f5-29e81c092bd2",
      "clinicalStatus": "active",
      "verificationStatus": "unknown",
      "subject": {
        "reference": "urn:uuid:99a27dca-3594-4835-aad4-4a832718713e"
      },
      "context": {
        "reference": "urn:uuid:5b15e5aa-0d0c-4013-84ac-fd2608f573ae"
      },
      "evidence": [ {
        "detail": [ {
          "reference": "urn:uuid:a49e4b47-b0f8-4f6f-857a-1f3bc4c480c9"
        } ]
      }, {
        "detail": [ {
          "reference": "urn:uuid:de9f808a-7dd8-4526-9474-923863c55656"
        } ]
      }, {
        "detail": [ {
          "reference": "urn:uuid:045900cc-b216-4c01-abdf-706eb85f9ddf"
        } ]
      }, {
        "detail": [ {
          "reference": "urn:uuid:cce2882b-c320-4d4b-af61-8b5ce414c9be"
        } ]
      }, {
        "detail": [ {
          "reference": "urn:uuid:f35a8a9f-50e0-42f3-bfaf-fda029bbb4cc"
        } ]
      }, {
        "detail": [ {
          "reference": "urn:uuid:0c6d6b64-0325-4c6e-8417-78ad8227fa88"
        } ]
      }, {
        "detail": [ {
          "reference": "urn:uuid:0170938a-6ec7-4f08-afcb-01f2d90bf112"
        } ]
      }, {
        "detail": [ {
          "reference": "urn:uuid:59422520-e6f9-4830-9af5-a454fe21c225"
        } ]
      }, {
        "detail": [ {
          "reference": "urn:uuid:129fc855-0d02-476b-8a0a-a004fd23b338"
        } ]
      }, {
        "detail": [ {
          "reference": "urn:uuid:3375f537-d956-44d8-ae32-856aea5fe673"
        } ]
      }, {
        "detail": [ {
          "reference": "urn:uuid:7f452733-a8ab-4906-bb83-7b6d6e3b55b9"
        } ]
      }, {
        "detail": [ {
          "reference": "urn:uuid:5dd166f7-df5f-4887-8841-98f22c8e976f"
        } ]
      }, {
        "detail": [ {
          "reference": "urn:uuid:4f06ffaf-e44c-4f02-a3c2-92b20ce9c43c"
        } ]
      }, {
        "detail": [ {
          "reference": "urn:uuid:1199bc98-12c9-43ea-abdf-e27a36de3d54"
        } ]
      }, {
        "detail": [ {
          "reference": "urn:uuid:7e4501d3-2d6c-4689-bcaa-f0fa99200c54"
        } ]
      }, {
        "detail": [ {
          "reference": "urn:uuid:629eaa88-0925-46fd-ac43-c7c7d1a15c1a"
        } ]
      }, {
        "detail": [ {
          "reference": "urn:uuid:ae50a645-83dc-4eb4-addd-f8cef955c083"
        } ]
      }, {
        "detail": [ {
          "reference": "urn:uuid:594ae4b3-95d0-4143-96d3-672ce4683527"
        } ]
      }, {
        "detail": [ {
          "reference": "urn:uuid:92ffd7f1-88dd-44a3-9c47-2d535e251eb2"
        } ]
      }, {
        "detail": [ {
          "reference": "urn:uuid:e9e71661-e653-407d-81ae-8489547cc22d"
        } ]
      }, {
        "detail": [ {
          "reference": "urn:uuid:70493ee2-1100-4457-8c97-8d72ffdf2403"
        } ]
      }, {
        "detail": [ {
          "reference": "urn:uuid:8dea8062-2f59-49a9-8fa2-fe5aa7d0a947"
        } ]
      }, {
        "detail": [ {
          "reference": "urn:uuid:42595e4e-3947-4fa6-a19c-5e4e1060e449"
        } ]
      }, {
        "detail": [ {
          "reference": "urn:uuid:d25b932b-c14e-43b1-b8c2-dbd7b122ea03"
        } ]
      }, {
        "detail": [ {
          "reference": "urn:uuid:df776165-c0df-4570-9beb-8d108ba12909"
        } ]
      }, {
        "detail": [ {
          "reference": "urn:uuid:e5af57b8-1a4b-45ac-901d-de676f3871da"
        } ]
      }, {
        "detail": [ {
          "reference": "urn:uuid:b6f8db6f-6a5e-4e3d-b31d-a3dae8861a47"
        } ]
      }, {
        "detail": [ {
          "reference": "urn:uuid:ed996577-6b48-4b27-bdbc-843fbd4feb52"
        } ]
      }, {
        "detail": [ {
          "reference": "urn:uuid:f699e604-628f-44d4-91b2-ec347b1ffed8"
        } ]
      }, {
        "detail": [ {
          "reference": "urn:uuid:d05fd748-fc04-483b-b8b9-4eff1354afc5"
        } ]
      }, {
        "detail": [ {
          "reference": "urn:uuid:1ae8c7ae-264c-4758-ae8a-065ca1db71ac"
        } ]
      }, {
        "detail": [ {
          "reference": "urn:uuid:13bd2b43-6308-4189-8653-72dd0aef51cd"
        } ]
      } ]
    }
  }, {
    "fullUrl": "urn:uuid:a49e4b47-b0f8-4f6f-857a-1f3bc4c480c9",
    "resource": {
      "resourceType": "QuestionnaireResponse",
      "id": "a49e4b47-b0f8-4f6f-857a-1f3bc4c480c9",
      "identifier": {
        "value": "1766749"
      },
      "questionnaire": {
        "reference": "urn:uuid:6ae3fc5c-95c5-4ebb-ae59-a0d56473417d"
      },
      "status": "completed",
      "subject": {
        "reference": "urn:uuid:99a27dca-3594-4835-aad4-4a832718713e"
      },
      "context": {
        "reference": "urn:uuid:5b15e5aa-0d0c-4013-84ac-fd2608f573ae"
      },
      "authored": "2021-08-03T13:04:53+00:00",
      "item": [ {
        "linkId": "Tx220109",
        "text": "What is the reason for the contact?",
        "answer": [ {
          "valueString": "an injury or other health problem"
        } ]
      } ]
    }
  }, {
    "fullUrl": "urn:uuid:6ae3fc5c-95c5-4ebb-ae59-a0d56473417d",
    "resource": {
      "resourceType": "Questionnaire",
      "id": "6ae3fc5c-95c5-4ebb-ae59-a0d56473417d",
      "identifier": [ {
        "value": "1766749"
      } ],
      "version": "2021-08-03T13:04:53.000Z",
      "status": "active",
      "experimental": false,
      "date": "2021-08-03T13:04:53+00:00",
      "publisher": "User ID: '922' User name: 'AndrewJ.Walford' User skill set: 'T4'",
      "lastReviewDate": "2021-08-03",
      "contact": [ {
        "telecom": [ {
          "system": "phone",
          "value": "07798501130"
        } ]
      } ],
      "subjectType": [ "Patient" ],
      "item": [ {
        "linkId": "1766749",
        "prefix": "5",
        "text": "What is the reason for the contact?",
        "type": "choice",
        "required": true,
        "repeats": false,
        "option": [ {
          "valueString": "an injury or other health problem, Selected: true"
        }, {
          "valueString": "a need to access another healthcare service, Selected: false"
        }, {
          "valueString": "a healthcare professional requesting contact with another clinician, Selected: false"
        }, {
          "valueString": "a report of results or tests, Selected: false"
        }, {
          "valueString": "more, Selected: false"
        } ]
      } ]
    }
  }, {
    "fullUrl": "urn:uuid:de9f808a-7dd8-4526-9474-923863c55656",
    "resource": {
      "resourceType": "QuestionnaireResponse",
      "id": "de9f808a-7dd8-4526-9474-923863c55656",
      "identifier": {
        "value": "1766749"
      },
      "questionnaire": {
        "reference": "urn:uuid:afc04d50-9526-4b05-868b-fba0023538aa"
      },
      "status": "completed",
      "subject": {
        "reference": "urn:uuid:99a27dca-3594-4835-aad4-4a832718713e"
      },
      "context": {
        "reference": "urn:uuid:5b15e5aa-0d0c-4013-84ac-fd2608f573ae"
      },
      "authored": "2021-08-03T13:04:53+00:00",
      "item": [ {
        "linkId": "Tx221788",
        "text": "STRING:to'ImmediateThreatsToLife(SPA/OOHversion)'-'ABC'menu",
        "answer": [ {
          "valueString": "\"\"present\"\""
        } ]
      } ]
    }
  }, {
    "fullUrl": "urn:uuid:afc04d50-9526-4b05-868b-fba0023538aa",
    "resource": {
      "resourceType": "Questionnaire",
      "id": "afc04d50-9526-4b05-868b-fba0023538aa",
      "identifier": [ {
        "value": "1766749"
      } ],
      "version": "2021-08-03T13:04:53.000Z",
      "status": "active",
      "experimental": false,
      "date": "2021-08-03T13:04:53+00:00",
      "publisher": "User ID: '922' User name: 'AndrewJ.Walford' User skill set: 'T4'",
      "lastReviewDate": "2021-08-03",
      "contact": [ {
        "telecom": [ {
          "system": "phone",
          "value": "07798501130"
        } ]
      } ],
      "subjectType": [ "Patient" ],
      "item": [ {
        "linkId": "1766749",
        "prefix": "500",
        "text": "STRING:to'ImmediateThreatsToLife(SPA/OOHversion)'-'ABC'menu",
        "type": "choice",
        "required": true,
        "repeats": false,
        "option": [ {
          "valueString": "\"\"present\"\", Selected: true"
        } ]
      } ]
    }
  }, {
    "fullUrl": "urn:uuid:045900cc-b216-4c01-abdf-706eb85f9ddf",
    "resource": {
      "resourceType": "QuestionnaireResponse",
      "id": "045900cc-b216-4c01-abdf-706eb85f9ddf",
      "identifier": {
        "value": "1766749"
      },
      "questionnaire": {
        "reference": "urn:uuid:e9be7b93-f3f3-4083-9416-5ac5ad48903c"
      },
      "status": "completed",
      "subject": {
        "reference": "urn:uuid:99a27dca-3594-4835-aad4-4a832718713e"
      },
      "context": {
        "reference": "urn:uuid:5b15e5aa-0d0c-4013-84ac-fd2608f573ae"
      },
      "authored": "2021-08-03T13:04:53+00:00",
      "item": [ {
        "linkId": "Tx221814",
        "text": "STRING:aninjuryorotherhealthproblemestablishedinEntryFlow",
        "answer": [ {
          "valueString": "\"\"present\"\""
        } ]
      } ]
    }
  }, {
    "fullUrl": "urn:uuid:e9be7b93-f3f3-4083-9416-5ac5ad48903c",
    "resource": {
      "resourceType": "Questionnaire",
      "id": "e9be7b93-f3f3-4083-9416-5ac5ad48903c",
      "identifier": [ {
        "value": "1766749"
      } ],
      "version": "2021-08-03T13:04:53.000Z",
      "status": "active",
      "experimental": false,
      "date": "2021-08-03T13:04:53+00:00",
      "publisher": "User ID: '922' User name: 'AndrewJ.Walford' User skill set: 'T4'",
      "lastReviewDate": "2021-08-03",
      "contact": [ {
        "telecom": [ {
          "system": "phone",
          "value": "07798501130"
        } ]
      } ],
      "subjectType": [ "Patient" ],
      "item": [ {
        "linkId": "1766749",
        "prefix": "0",
        "text": "STRING:aninjuryorotherhealthproblemestablishedinEntryFlow",
        "type": "choice",
        "required": true,
        "repeats": false,
        "option": [ {
          "valueString": "\"\"present\"\", Selected: true"
        } ]
      } ]
    }
  }, {
    "fullUrl": "urn:uuid:cce2882b-c320-4d4b-af61-8b5ce414c9be",
    "resource": {
      "resourceType": "QuestionnaireResponse",
      "id": "cce2882b-c320-4d4b-af61-8b5ce414c9be",
      "identifier": {
        "value": "1766749"
      },
      "questionnaire": {
        "reference": "urn:uuid:9cc9bbdb-40f2-4ad5-8251-9dded5ddda9c"
      },
      "status": "completed",
      "subject": {
        "reference": "urn:uuid:99a27dca-3594-4835-aad4-4a832718713e"
      },
      "context": {
        "reference": "urn:uuid:5b15e5aa-0d0c-4013-84ac-fd2608f573ae"
      },
      "authored": "2021-08-03T13:04:53+00:00",
      "item": [ {
        "linkId": "Tx224120",
        "text": "Have you been bleeding RED BLOOD very heavily IN THE LAST 2 HOURS?",
        "answer": [ {
          "valueString": "no"
        } ]
      } ]
    }
  }, {
    "fullUrl": "urn:uuid:9cc9bbdb-40f2-4ad5-8251-9dded5ddda9c",
    "resource": {
      "resourceType": "Questionnaire",
      "id": "9cc9bbdb-40f2-4ad5-8251-9dded5ddda9c",
      "identifier": [ {
        "value": "1766749"
      } ],
      "version": "2021-08-03T13:04:53.000Z",
      "status": "active",
      "experimental": false,
      "date": "2021-08-03T13:04:53+00:00",
      "publisher": "User ID: '922' User name: 'AndrewJ.Walford' User skill set: 'T4'",
      "lastReviewDate": "2021-08-03",
      "contact": [ {
        "telecom": [ {
          "system": "phone",
          "value": "07798501130"
        } ]
      } ],
      "subjectType": [ "Patient" ],
      "item": [ {
        "linkId": "1766749",
        "prefix": "7000",
        "text": "Have you been bleeding RED BLOOD very heavily IN THE LAST 2 HOURS?",
        "type": "choice",
        "required": true,
        "repeats": false,
        "option": [ {
          "valueString": "yes, Selected: false"
        }, {
          "valueString": "not sure, Selected: false"
        }, {
          "valueString": "no, Selected: true"
        } ]
      } ]
    }
  }, {
    "fullUrl": "urn:uuid:f35a8a9f-50e0-42f3-bfaf-fda029bbb4cc",
    "resource": {
      "resourceType": "QuestionnaireResponse",
      "id": "f35a8a9f-50e0-42f3-bfaf-fda029bbb4cc",
      "identifier": {
        "value": "1766749"
      },
      "questionnaire": {
        "reference": "urn:uuid:9afbcb6b-6cbb-4632-a8cd-72064c83cc62"
      },
      "status": "completed",
      "subject": {
        "reference": "urn:uuid:99a27dca-3594-4835-aad4-4a832718713e"
      },
      "context": {
        "reference": "urn:uuid:5b15e5aa-0d0c-4013-84ac-fd2608f573ae"
      },
      "authored": "2021-08-03T13:04:53+00:00",
      "item": [ {
        "linkId": "Tx221343",
        "text": "SocialConcernsExcluded",
        "answer": [ {
          "valueString": "*"
        } ]
      } ]
    }
  }, {
    "fullUrl": "urn:uuid:9afbcb6b-6cbb-4632-a8cd-72064c83cc62",
    "resource": {
      "resourceType": "Questionnaire",
      "id": "9afbcb6b-6cbb-4632-a8cd-72064c83cc62",
      "identifier": [ {
        "value": "1766749"
      } ],
      "version": "2021-08-03T13:04:53.000Z",
      "status": "active",
      "experimental": false,
      "date": "2021-08-03T13:04:53+00:00",
      "publisher": "User ID: '922' User name: 'AndrewJ.Walford' User skill set: 'T4'",
      "lastReviewDate": "2021-08-03",
      "contact": [ {
        "telecom": [ {
          "system": "phone",
          "value": "07798501130"
        } ]
      } ],
      "subjectType": [ "Patient" ],
      "item": [ {
        "linkId": "1766749",
        "prefix": "2700",
        "text": "SocialConcernsExcluded",
        "type": "choice",
        "required": true,
        "repeats": false,
        "option": [ {
          "valueString": "==\"\"present\"\", Selected: false"
        }, {
          "valueString": "*, Selected: true"
        } ]
      } ]
    }
  }, {
    "fullUrl": "urn:uuid:0c6d6b64-0325-4c6e-8417-78ad8227fa88",
    "resource": {
      "resourceType": "QuestionnaireResponse",
      "id": "0c6d6b64-0325-4c6e-8417-78ad8227fa88",
      "identifier": {
        "value": "1766749"
      },
      "questionnaire": {
        "reference": "urn:uuid:5792b38e-8c56-4bc8-a6e4-ab7bfd204d7e"
      },
      "status": "completed",
      "subject": {
        "reference": "urn:uuid:99a27dca-3594-4835-aad4-4a832718713e"
      },
      "context": {
        "reference": "urn:uuid:5b15e5aa-0d0c-4013-84ac-fd2608f573ae"
      },
      "authored": "2021-08-03T13:04:53+00:00",
      "item": [ {
        "linkId": "Tx130011",
        "text": "What is the main problem?",
        "answer": [ {
          "valueString": "illness or other health problem (specify)"
        } ]
      } ]
    }
  }, {
    "fullUrl": "urn:uuid:5792b38e-8c56-4bc8-a6e4-ab7bfd204d7e",
    "resource": {
      "resourceType": "Questionnaire",
      "id": "5792b38e-8c56-4bc8-a6e4-ab7bfd204d7e",
      "identifier": [ {
        "value": "1766749"
      } ],
      "version": "2021-08-03T13:04:53.000Z",
      "status": "active",
      "experimental": false,
      "date": "2021-08-03T13:04:53+00:00",
      "publisher": "User ID: '922' User name: 'AndrewJ.Walford' User skill set: 'T4'",
      "lastReviewDate": "2021-08-03",
      "contact": [ {
        "telecom": [ {
          "system": "phone",
          "value": "07798501130"
        } ]
      } ],
      "subjectType": [ "Patient" ],
      "item": [ {
        "linkId": "1766749",
        "prefix": "3400",
        "text": "What is the main problem?",
        "type": "choice",
        "required": true,
        "repeats": false,
        "option": [ {
          "valueString": "the individual has been told to follow a particular course of action (specify), Selected: false"
        }, {
          "valueString": "the individual is an identified frequent caller, Selected: false"
        }, {
          "valueString": "injury (specify), Selected: false"
        }, {
          "valueString": "illness or other health problem (specify), Selected: true"
        }, {
          "valueString": "child protection/vulnerable adult concern, Selected: false"
        }, {
          "valueString": "social or domestic emergency, Selected: false"
        }, {
          "valueString": "the environment potentially poses an immediate threat to life (specify), Selected: false"
        } ]
      } ]
    }
  }, {
    "fullUrl": "urn:uuid:0170938a-6ec7-4f08-afcb-01f2d90bf112",
    "resource": {
      "resourceType": "QuestionnaireResponse",
      "id": "0170938a-6ec7-4f08-afcb-01f2d90bf112",
      "identifier": {
        "value": "1766749"
      },
      "questionnaire": {
        "reference": "urn:uuid:6e719ba7-9ea5-4aee-bf22-bbaf2df88b18"
      },
      "status": "completed",
      "subject": {
        "reference": "urn:uuid:99a27dca-3594-4835-aad4-4a832718713e"
      },
      "context": {
        "reference": "urn:uuid:5b15e5aa-0d0c-4013-84ac-fd2608f573ae"
      },
      "authored": "2021-08-03T13:04:53+00:00",
      "item": [ {
        "linkId": "Tx61025",
        "text": "Are you so breathless that speaking more than a few words is impossible?",
        "answer": [ {
          "valueString": "no"
        } ]
      } ]
    }
  }, {
    "fullUrl": "urn:uuid:6e719ba7-9ea5-4aee-bf22-bbaf2df88b18",
    "resource": {
      "resourceType": "Questionnaire",
      "id": "6e719ba7-9ea5-4aee-bf22-bbaf2df88b18",
      "identifier": [ {
        "value": "1766749"
      } ],
      "version": "2021-08-03T13:04:53.000Z",
      "status": "active",
      "experimental": false,
      "date": "2021-08-03T13:04:53+00:00",
      "publisher": "User ID: '922' User name: 'AndrewJ.Walford' User skill set: 'T4'",
      "lastReviewDate": "2021-08-03",
      "contact": [ {
        "telecom": [ {
          "system": "phone",
          "value": "07798501130"
        } ]
      } ],
      "subjectType": [ "Patient" ],
      "item": [ {
        "linkId": "1766749",
        "prefix": "0",
        "text": "Are you so breathless that speaking more than a few words is impossible?",
        "type": "choice",
        "required": true,
        "repeats": false,
        "option": [ {
          "valueString": "yes, Selected: false"
        }, {
          "valueString": "not sure, Selected: false"
        }, {
          "valueString": "no, Selected: true"
        } ]
      } ]
    }
  }, {
    "fullUrl": "urn:uuid:59422520-e6f9-4830-9af5-a454fe21c225",
    "resource": {
      "resourceType": "QuestionnaireResponse",
      "id": "59422520-e6f9-4830-9af5-a454fe21c225",
      "identifier": {
        "value": "1766749"
      },
      "questionnaire": {
        "reference": "urn:uuid:76067c66-3308-4cad-9e4d-c2345363e653"
      },
      "status": "completed",
      "subject": {
        "reference": "urn:uuid:99a27dca-3594-4835-aad4-4a832718713e"
      },
      "context": {
        "reference": "urn:uuid:5b15e5aa-0d0c-4013-84ac-fd2608f573ae"
      },
      "authored": "2021-08-03T13:04:53+00:00",
      "item": [ {
        "linkId": "Tx220845",
        "text": "SYSTEM_FLUPANDEMIC",
        "answer": [ {
          "valueString": "*"
        } ]
      } ]
    }
  }, {
    "fullUrl": "urn:uuid:76067c66-3308-4cad-9e4d-c2345363e653",
    "resource": {
      "resourceType": "Questionnaire",
      "id": "76067c66-3308-4cad-9e4d-c2345363e653",
      "identifier": [ {
        "value": "1766749"
      } ],
      "version": "2021-08-03T13:04:53.000Z",
      "status": "active",
      "experimental": false,
      "date": "2021-08-03T13:04:53+00:00",
      "publisher": "User ID: '922' User name: 'AndrewJ.Walford' User skill set: 'T4'",
      "lastReviewDate": "2021-08-03",
      "contact": [ {
        "telecom": [ {
          "system": "phone",
          "value": "07798501130"
        } ]
      } ],
      "subjectType": [ "Patient" ],
      "item": [ {
        "linkId": "1766749",
        "prefix": "100",
        "text": "SYSTEM_FLUPANDEMIC",
        "type": "choice",
        "required": true,
        "repeats": false,
        "option": [ {
          "valueString": "==\"\"pandemic\"\", Selected: false"
        }, {
          "valueString": "*, Selected: true"
        } ]
      } ]
    }
  }, {
    "fullUrl": "urn:uuid:129fc855-0d02-476b-8a0a-a004fd23b338",
    "resource": {
      "resourceType": "QuestionnaireResponse",
      "id": "129fc855-0d02-476b-8a0a-a004fd23b338",
      "identifier": {
        "value": "1766749"
      },
      "questionnaire": {
        "reference": "urn:uuid:a8d98ad5-983e-4e52-bcaa-008405933e75"
      },
      "status": "completed",
      "subject": {
        "reference": "urn:uuid:99a27dca-3594-4835-aad4-4a832718713e"
      },
      "context": {
        "reference": "urn:uuid:5b15e5aa-0d0c-4013-84ac-fd2608f573ae"
      },
      "authored": "2021-08-03T13:04:53+00:00",
      "item": [ {
        "linkId": "Tx223440",
        "text": "WHAT IS SAID TO BE THE MAIN REASON FOR THIS CONTACT?",
        "answer": [ {
          "valueString": "more"
        } ]
      } ]
    }
  }, {
    "fullUrl": "urn:uuid:a8d98ad5-983e-4e52-bcaa-008405933e75",
    "resource": {
      "resourceType": "Questionnaire",
      "id": "a8d98ad5-983e-4e52-bcaa-008405933e75",
      "identifier": [ {
        "value": "1766749"
      } ],
      "version": "2021-08-03T13:04:53.000Z",
      "status": "active",
      "experimental": false,
      "date": "2021-08-03T13:04:53+00:00",
      "publisher": "User ID: '922' User name: 'AndrewJ.Walford' User skill set: 'T4'",
      "lastReviewDate": "2021-08-03",
      "contact": [ {
        "telecom": [ {
          "system": "phone",
          "value": "07798501130"
        } ]
      } ],
      "subjectType": [ "Patient" ],
      "item": [ {
        "linkId": "1766749",
        "prefix": "5000",
        "text": "WHAT IS SAID TO BE THE MAIN REASON FOR THIS CONTACT?",
        "type": "choice",
        "required": true,
        "repeats": false,
        "option": [ {
          "valueString": "a probable allergic reaction now, Selected: false"
        }, {
          "valueString": "a probable heart attack, Selected: false"
        }, {
          "valueString": "chest or upper back pain, Selected: false"
        }, {
          "valueString": "a probable stroke or mini-stroke, Selected: false"
        }, {
          "valueString": "a probable fit or seizure within the last 12 hours, Selected: false"
        }, {
          "valueString": "a suicide attempt, Selected: false"
        }, {
          "valueString": "more, Selected: true"
        } ]
      } ]
    }
  }, {
    "fullUrl": "urn:uuid:3375f537-d956-44d8-ae32-856aea5fe673",
    "resource": {
      "resourceType": "QuestionnaireResponse",
      "id": "3375f537-d956-44d8-ae32-856aea5fe673",
      "identifier": {
        "value": "1766749"
      },
      "questionnaire": {
        "reference": "urn:uuid:eb09fdff-b72b-4826-bbb8-ca73faa4114a"
      },
      "status": "completed",
      "subject": {
        "reference": "urn:uuid:99a27dca-3594-4835-aad4-4a832718713e"
      },
      "context": {
        "reference": "urn:uuid:5b15e5aa-0d0c-4013-84ac-fd2608f573ae"
      },
      "authored": "2021-08-03T13:04:53+00:00",
      "item": [ {
        "linkId": "Tx220032",
        "text": "WHAT IS SAID TO BE THE MAIN REASON FOR THIS CONTACT?",
        "answer": [ {
          "valueString": "none of the above"
        } ]
      } ]
    }
  }, {
    "fullUrl": "urn:uuid:eb09fdff-b72b-4826-bbb8-ca73faa4114a",
    "resource": {
      "resourceType": "Questionnaire",
      "id": "eb09fdff-b72b-4826-bbb8-ca73faa4114a",
      "identifier": [ {
        "value": "1766749"
      } ],
      "version": "2021-08-03T13:04:53.000Z",
      "status": "active",
      "experimental": false,
      "date": "2021-08-03T13:04:53+00:00",
      "publisher": "User ID: '922' User name: 'AndrewJ.Walford' User skill set: 'T4'",
      "lastReviewDate": "2021-08-03",
      "contact": [ {
        "telecom": [ {
          "system": "phone",
          "value": "07798501130"
        } ]
      } ],
      "subjectType": [ "Patient" ],
      "item": [ {
        "linkId": "1766749",
        "prefix": "1900",
        "text": "WHAT IS SAID TO BE THE MAIN REASON FOR THIS CONTACT?",
        "type": "choice",
        "required": true,
        "repeats": false,
        "option": [ {
          "valueString": "new confusion now, Selected: false"
        }, {
          "valueString": "a diabetic hypo (low blood sugar) or a diabetic hyper (high blood sugar), Selected: false"
        }, {
          "valueString": "recovery from an ICD (implanted cardioverter defibrillator) shock, Selected: false"
        }, {
          "valueString": "none of the above, Selected: true"
        } ]
      } ]
    }
  }, {
    "fullUrl": "urn:uuid:7f452733-a8ab-4906-bb83-7b6d6e3b55b9",
    "resource": {
      "resourceType": "QuestionnaireResponse",
      "id": "7f452733-a8ab-4906-bb83-7b6d6e3b55b9",
      "identifier": {
        "value": "1766749"
      },
      "questionnaire": {
        "reference": "urn:uuid:197e65ee-1251-4094-9026-4214badd8af8"
      },
      "status": "completed",
      "subject": {
        "reference": "urn:uuid:99a27dca-3594-4835-aad4-4a832718713e"
      },
      "context": {
        "reference": "urn:uuid:5b15e5aa-0d0c-4013-84ac-fd2608f573ae"
      },
      "authored": "2021-08-03T13:04:53+00:00",
      "item": [ {
        "linkId": "Tx223142",
        "text": "Does the skin on the chest, back or abdomen feel a normal temperature?",
        "answer": [ {
          "valueString": "yes - normal, warm or hot"
        } ]
      } ]
    }
  }, {
    "fullUrl": "urn:uuid:197e65ee-1251-4094-9026-4214badd8af8",
    "resource": {
      "resourceType": "Questionnaire",
      "id": "197e65ee-1251-4094-9026-4214badd8af8",
      "identifier": [ {
        "value": "1766749"
      } ],
      "version": "2021-08-03T13:04:53.000Z",
      "status": "active",
      "experimental": false,
      "date": "2021-08-03T13:04:53+00:00",
      "publisher": "User ID: '922' User name: 'AndrewJ.Walford' User skill set: 'T4'",
      "lastReviewDate": "2021-08-03",
      "contact": [ {
        "telecom": [ {
          "system": "phone",
          "value": "07798501130"
        } ]
      } ],
      "subjectType": [ "Patient" ],
      "item": [ {
        "linkId": "1766749",
        "prefix": "4000",
        "text": "Does the skin on the chest, back or abdomen feel a normal temperature?",
        "type": "choice",
        "required": true,
        "repeats": false,
        "option": [ {
          "valueString": "yes - normal, warm or hot, Selected: true"
        }, {
          "valueString": "not sure, Selected: false"
        }, {
          "valueString": "no - cool OR cold, Selected: false"
        }, {
          "valueString": "not safe to touch, Selected: false"
        } ]
      } ]
    }
  }, {
    "fullUrl": "urn:uuid:5dd166f7-df5f-4887-8841-98f22c8e976f",
    "resource": {
      "resourceType": "QuestionnaireResponse",
      "id": "5dd166f7-df5f-4887-8841-98f22c8e976f",
      "identifier": {
        "value": "1766749"
      },
      "questionnaire": {
        "reference": "urn:uuid:fa7097ee-1185-4e4c-9724-5b5200294f6b"
      },
      "status": "completed",
      "subject": {
        "reference": "urn:uuid:99a27dca-3594-4835-aad4-4a832718713e"
      },
      "context": {
        "reference": "urn:uuid:5b15e5aa-0d0c-4013-84ac-fd2608f573ae"
      },
      "authored": "2021-08-03T13:04:53+00:00",
      "item": [ {
        "linkId": "Tx221724",
        "text": "STRING:ShockAsked",
        "answer": [ {
          "valueString": "\"\"present\"\""
        } ]
      } ]
    }
  }, {
    "fullUrl": "urn:uuid:fa7097ee-1185-4e4c-9724-5b5200294f6b",
    "resource": {
      "resourceType": "Questionnaire",
      "id": "fa7097ee-1185-4e4c-9724-5b5200294f6b",
      "identifier": [ {
        "value": "1766749"
      } ],
      "version": "2021-08-03T13:04:53.000Z",
      "status": "active",
      "experimental": false,
      "date": "2021-08-03T13:04:53+00:00",
      "publisher": "User ID: '922' User name: 'AndrewJ.Walford' User skill set: 'T4'",
      "lastReviewDate": "2021-08-03",
      "contact": [ {
        "telecom": [ {
          "system": "phone",
          "value": "07798501130"
        } ]
      } ],
      "subjectType": [ "Patient" ],
      "item": [ {
        "linkId": "1766749",
        "prefix": "3300",
        "text": "STRING:ShockAsked",
        "type": "choice",
        "required": true,
        "repeats": false,
        "option": [ {
          "valueString": "\"\"present\"\", Selected: true"
        } ]
      } ]
    }
  }, {
    "fullUrl": "urn:uuid:4f06ffaf-e44c-4f02-a3c2-92b20ce9c43c",
    "resource": {
      "resourceType": "QuestionnaireResponse",
      "id": "4f06ffaf-e44c-4f02-a3c2-92b20ce9c43c",
      "identifier": {
        "value": "1766749"
      },
      "questionnaire": {
        "reference": "urn:uuid:c874e33c-5bc0-497e-b680-6ff1f0d6d391"
      },
      "status": "completed",
      "subject": {
        "reference": "urn:uuid:99a27dca-3594-4835-aad4-4a832718713e"
      },
      "context": {
        "reference": "urn:uuid:5b15e5aa-0d0c-4013-84ac-fd2608f573ae"
      },
      "authored": "2021-08-03T13:04:53+00:00"
    }
  }, {
    "fullUrl": "urn:uuid:c874e33c-5bc0-497e-b680-6ff1f0d6d391",
    "resource": {
      "resourceType": "Questionnaire",
      "id": "c874e33c-5bc0-497e-b680-6ff1f0d6d391",
      "identifier": [ {
        "value": "1766749"
      } ],
      "version": "2021-08-03T13:04:53.000Z",
      "status": "active",
      "experimental": false,
      "date": "2021-08-03T13:04:53+00:00",
      "publisher": "User ID: '922' User name: 'AndrewJ.Walford' User skill set: 'T4'",
      "lastReviewDate": "2021-08-03",
      "contact": [ {
        "telecom": [ {
          "system": "phone",
          "value": "07798501130"
        } ]
      } ],
      "subjectType": [ "Patient" ]
    }
  }, {
    "fullUrl": "urn:uuid:1199bc98-12c9-43ea-abdf-e27a36de3d54",
    "resource": {
      "resourceType": "QuestionnaireResponse",
      "id": "1199bc98-12c9-43ea-abdf-e27a36de3d54",
      "identifier": {
        "value": "1766749"
      },
      "questionnaire": {
        "reference": "urn:uuid:eb172102-67fd-4368-80f9-f9c93b35e07c"
      },
      "status": "completed",
      "subject": {
        "reference": "urn:uuid:99a27dca-3594-4835-aad4-4a832718713e"
      },
      "context": {
        "reference": "urn:uuid:5b15e5aa-0d0c-4013-84ac-fd2608f573ae"
      },
      "authored": "2021-08-03T13:04:53+00:00"
    }
  }, {
    "fullUrl": "urn:uuid:eb172102-67fd-4368-80f9-f9c93b35e07c",
    "resource": {
      "resourceType": "Questionnaire",
      "id": "eb172102-67fd-4368-80f9-f9c93b35e07c",
      "identifier": [ {
        "value": "1766749"
      } ],
      "version": "2021-08-03T13:04:53.000Z",
      "status": "active",
      "experimental": false,
      "date": "2021-08-03T13:04:53+00:00",
      "publisher": "User ID: '922' User name: 'AndrewJ.Walford' User skill set: 'T4'",
      "lastReviewDate": "2021-08-03",
      "contact": [ {
        "telecom": [ {
          "system": "phone",
          "value": "07798501130"
        } ]
      } ],
      "subjectType": [ "Patient" ]
    }
  }, {
    "fullUrl": "urn:uuid:7e4501d3-2d6c-4689-bcaa-f0fa99200c54",
    "resource": {
      "resourceType": "QuestionnaireResponse",
      "id": "7e4501d3-2d6c-4689-bcaa-f0fa99200c54",
      "identifier": {
        "value": "1766749"
      },
      "questionnaire": {
        "reference": "urn:uuid:55754233-3854-4b8e-9eb3-bf558ebdb01f"
      },
      "status": "completed",
      "subject": {
        "reference": "urn:uuid:99a27dca-3594-4835-aad4-4a832718713e"
      },
      "context": {
        "reference": "urn:uuid:5b15e5aa-0d0c-4013-84ac-fd2608f573ae"
      },
      "authored": "2021-08-03T13:04:53+00:00",
      "item": [ {
        "linkId": "Tx224190",
        "text": "Does the problem stop you from doing ALL of your normal activities?",
        "answer": [ {
          "valueString": "no - able to do most or all of their activities"
        } ]
      } ]
    }
  }, {
    "fullUrl": "urn:uuid:55754233-3854-4b8e-9eb3-bf558ebdb01f",
    "resource": {
      "resourceType": "Questionnaire",
      "id": "55754233-3854-4b8e-9eb3-bf558ebdb01f",
      "identifier": [ {
        "value": "1766749"
      } ],
      "version": "2021-08-03T13:04:53.000Z",
      "status": "active",
      "experimental": false,
      "date": "2021-08-03T13:04:53+00:00",
      "publisher": "User ID: '922' User name: 'AndrewJ.Walford' User skill set: 'T4'",
      "lastReviewDate": "2021-08-03",
      "contact": [ {
        "telecom": [ {
          "system": "phone",
          "value": "07798501130"
        } ]
      } ],
      "subjectType": [ "Patient" ],
      "item": [ {
        "linkId": "1766749",
        "prefix": "4900",
        "text": "Does the problem stop you from doing ALL of your normal activities?",
        "type": "choice",
        "required": true,
        "repeats": false,
        "option": [ {
          "valueString": "yes - unable to do all of their normal activities, Selected: false"
        }, {
          "valueString": "no - able to do some of their normal activities, Selected: false"
        }, {
          "valueString": "no - able to do most or all of their activities, Selected: true"
        } ]
      } ]
    }
  }, {
    "fullUrl": "urn:uuid:629eaa88-0925-46fd-ac43-c7c7d1a15c1a",
    "resource": {
      "resourceType": "QuestionnaireResponse",
      "id": "629eaa88-0925-46fd-ac43-c7c7d1a15c1a",
      "identifier": {
        "value": "1766749"
      },
      "questionnaire": {
        "reference": "urn:uuid:c88ae848-5f94-440a-870a-f5b306aa4bb1"
      },
      "status": "completed",
      "subject": {
        "reference": "urn:uuid:99a27dca-3594-4835-aad4-4a832718713e"
      },
      "context": {
        "reference": "urn:uuid:5b15e5aa-0d0c-4013-84ac-fd2608f573ae"
      },
      "authored": "2021-08-03T13:04:53+00:00",
      "item": [ {
        "linkId": "Tx220244",
        "text": "Have you got any of the following new symptoms?",
        "answer": [ {
          "valueString": "no"
        } ]
      } ]
    }
  }, {
    "fullUrl": "urn:uuid:c88ae848-5f94-440a-870a-f5b306aa4bb1",
    "resource": {
      "resourceType": "Questionnaire",
      "id": "c88ae848-5f94-440a-870a-f5b306aa4bb1",
      "identifier": [ {
        "value": "1766749"
      } ],
      "version": "2021-08-03T13:04:53.000Z",
      "status": "active",
      "experimental": false,
      "date": "2021-08-03T13:04:53+00:00",
      "publisher": "User ID: '922' User name: 'AndrewJ.Walford' User skill set: 'T4'",
      "lastReviewDate": "2021-08-03",
      "contact": [ {
        "telecom": [ {
          "system": "phone",
          "value": "07798501130"
        } ]
      } ],
      "subjectType": [ "Patient" ],
      "item": [ {
        "linkId": "1766749",
        "prefix": "17",
        "text": "Have you got any of the following new symptoms?",
        "type": "choice",
        "required": true,
        "repeats": false,
        "option": [ {
          "valueString": "unable to control the bowels, Selected: false"
        }, {
          "valueString": "unable to move one or both legs, Selected: false"
        }, {
          "valueString": "numbness or pins and needles in both legs or around the back passage, Selected: false"
        }, {
          "valueString": "not sure, Selected: false"
        }, {
          "valueString": "no, Selected: true"
        } ]
      } ]
    }
  }, {
    "fullUrl": "urn:uuid:ae50a645-83dc-4eb4-addd-f8cef955c083",
    "resource": {
      "resourceType": "QuestionnaireResponse",
      "id": "ae50a645-83dc-4eb4-addd-f8cef955c083",
      "identifier": {
        "value": "1766749"
      },
      "questionnaire": {
        "reference": "urn:uuid:1f975884-160a-4569-bf58-82e1d3563c7c"
      },
      "status": "completed",
      "subject": {
        "reference": "urn:uuid:99a27dca-3594-4835-aad4-4a832718713e"
      },
      "context": {
        "reference": "urn:uuid:5b15e5aa-0d0c-4013-84ac-fd2608f573ae"
      },
      "authored": "2021-08-03T13:04:53+00:00",
      "item": [ {
        "linkId": "Tx221119",
        "text": "FunctionallyImpaired",
        "answer": [ {
          "valueString": "*"
        } ]
      } ]
    }
  }, {
    "fullUrl": "urn:uuid:1f975884-160a-4569-bf58-82e1d3563c7c",
    "resource": {
      "resourceType": "Questionnaire",
      "id": "1f975884-160a-4569-bf58-82e1d3563c7c",
      "identifier": [ {
        "value": "1766749"
      } ],
      "version": "2021-08-03T13:04:53.000Z",
      "status": "active",
      "experimental": false,
      "date": "2021-08-03T13:04:53+00:00",
      "publisher": "User ID: '922' User name: 'AndrewJ.Walford' User skill set: 'T4'",
      "lastReviewDate": "2021-08-03",
      "contact": [ {
        "telecom": [ {
          "system": "phone",
          "value": "07798501130"
        } ]
      } ],
      "subjectType": [ "Patient" ],
      "item": [ {
        "linkId": "1766749",
        "prefix": "5400",
        "text": "FunctionallyImpaired",
        "type": "choice",
        "required": true,
        "repeats": false,
        "option": [ {
          "valueString": "==\"\"present\"\", Selected: false"
        }, {
          "valueString": "*, Selected: true"
        } ]
      } ]
    }
  }, {
    "fullUrl": "urn:uuid:594ae4b3-95d0-4143-96d3-672ce4683527",
    "resource": {
      "resourceType": "QuestionnaireResponse",
      "id": "594ae4b3-95d0-4143-96d3-672ce4683527",
      "identifier": {
        "value": "1766749"
      },
      "questionnaire": {
        "reference": "urn:uuid:832f5a46-77da-4ae8-8a1c-c4cfc08b7cd4"
      },
      "status": "completed",
      "subject": {
        "reference": "urn:uuid:99a27dca-3594-4835-aad4-4a832718713e"
      },
      "context": {
        "reference": "urn:uuid:5b15e5aa-0d0c-4013-84ac-fd2608f573ae"
      },
      "authored": "2021-08-03T13:04:53+00:00",
      "item": [ {
        "linkId": "Tx221639",
        "text": "Have you been unable to pass urine for the last 12 hours, except for a few drops?",
        "answer": [ {
          "valueString": "no (ABLE TO pass urine)"
        } ]
      } ]
    }
  }, {
    "fullUrl": "urn:uuid:832f5a46-77da-4ae8-8a1c-c4cfc08b7cd4",
    "resource": {
      "resourceType": "Questionnaire",
      "id": "832f5a46-77da-4ae8-8a1c-c4cfc08b7cd4",
      "identifier": [ {
        "value": "1766749"
      } ],
      "version": "2021-08-03T13:04:53.000Z",
      "status": "active",
      "experimental": false,
      "date": "2021-08-03T13:04:53+00:00",
      "publisher": "User ID: '922' User name: 'AndrewJ.Walford' User skill set: 'T4'",
      "lastReviewDate": "2021-08-03",
      "contact": [ {
        "telecom": [ {
          "system": "phone",
          "value": "07798501130"
        } ]
      } ],
      "subjectType": [ "Patient" ],
      "item": [ {
        "linkId": "1766749",
        "prefix": "6100",
        "text": "Have you been unable to pass urine for the last 12 hours, except for a few drops?",
        "type": "choice",
        "required": true,
        "repeats": false,
        "option": [ {
          "valueString": "yes (UNABLE TO pass urine), Selected: false"
        }, {
          "valueString": "not sure, Selected: false"
        }, {
          "valueString": "no (ABLE TO pass urine), Selected: true"
        } ]
      } ]
    }
  }, {
    "fullUrl": "urn:uuid:92ffd7f1-88dd-44a3-9c47-2d535e251eb2",
    "resource": {
      "resourceType": "QuestionnaireResponse",
      "id": "92ffd7f1-88dd-44a3-9c47-2d535e251eb2",
      "identifier": {
        "value": "1766749"
      },
      "questionnaire": {
        "reference": "urn:uuid:fdb482aa-508a-4b23-a9a0-0565994357a9"
      },
      "status": "completed",
      "subject": {
        "reference": "urn:uuid:99a27dca-3594-4835-aad4-4a832718713e"
      },
      "context": {
        "reference": "urn:uuid:5b15e5aa-0d0c-4013-84ac-fd2608f573ae"
      },
      "authored": "2021-08-03T13:04:53+00:00",
      "item": [ {
        "linkId": "Tx221119",
        "text": "FunctionallyImpaired",
        "answer": [ {
          "valueString": "*"
        } ]
      } ]
    }
  }, {
    "fullUrl": "urn:uuid:fdb482aa-508a-4b23-a9a0-0565994357a9",
    "resource": {
      "resourceType": "Questionnaire",
      "id": "fdb482aa-508a-4b23-a9a0-0565994357a9",
      "identifier": [ {
        "value": "1766749"
      } ],
      "version": "2021-08-03T13:04:53.000Z",
      "status": "active",
      "experimental": false,
      "date": "2021-08-03T13:04:53+00:00",
      "publisher": "User ID: '922' User name: 'AndrewJ.Walford' User skill set: 'T4'",
      "lastReviewDate": "2021-08-03",
      "contact": [ {
        "telecom": [ {
          "system": "phone",
          "value": "07798501130"
        } ]
      } ],
      "subjectType": [ "Patient" ],
      "item": [ {
        "linkId": "1766749",
        "prefix": "7200",
        "text": "FunctionallyImpaired",
        "type": "choice",
        "required": true,
        "repeats": false,
        "option": [ {
          "valueString": "==\"\"present\"\", Selected: false"
        }, {
          "valueString": "*, Selected: true"
        } ]
      } ]
    }
  }, {
    "fullUrl": "urn:uuid:e9e71661-e653-407d-81ae-8489547cc22d",
    "resource": {
      "resourceType": "QuestionnaireResponse",
      "id": "e9e71661-e653-407d-81ae-8489547cc22d",
      "identifier": {
        "value": "1766749"
      },
      "questionnaire": {
        "reference": "urn:uuid:c119693c-6fa9-406f-82ec-9b6bb7c22961"
      },
      "status": "completed",
      "subject": {
        "reference": "urn:uuid:99a27dca-3594-4835-aad4-4a832718713e"
      },
      "context": {
        "reference": "urn:uuid:5b15e5aa-0d0c-4013-84ac-fd2608f573ae"
      },
      "authored": "2021-08-03T13:04:53+00:00",
      "item": [ {
        "linkId": "Tx223485",
        "text": "ConfusionDeclared",
        "answer": [ {
          "valueString": "*"
        } ]
      } ]
    }
  }, {
    "fullUrl": "urn:uuid:c119693c-6fa9-406f-82ec-9b6bb7c22961",
    "resource": {
      "resourceType": "Questionnaire",
      "id": "c119693c-6fa9-406f-82ec-9b6bb7c22961",
      "identifier": [ {
        "value": "1766749"
      } ],
      "version": "2021-08-03T13:04:53.000Z",
      "status": "active",
      "experimental": false,
      "date": "2021-08-03T13:04:53+00:00",
      "publisher": "User ID: '922' User name: 'AndrewJ.Walford' User skill set: 'T4'",
      "lastReviewDate": "2021-08-03",
      "contact": [ {
        "telecom": [ {
          "system": "phone",
          "value": "07798501130"
        } ]
      } ],
      "subjectType": [ "Patient" ],
      "item": [ {
        "linkId": "1766749",
        "prefix": "2900",
        "text": "ConfusionDeclared",
        "type": "choice",
        "required": true,
        "repeats": false,
        "option": [ {
          "valueString": "==\"\"present\"\", Selected: false"
        }, {
          "valueString": "*, Selected: true"
        } ]
      } ]
    }
  }, {
    "fullUrl": "urn:uuid:70493ee2-1100-4457-8c97-8d72ffdf2403",
    "resource": {
      "resourceType": "QuestionnaireResponse",
      "id": "70493ee2-1100-4457-8c97-8d72ffdf2403",
      "identifier": {
        "value": "1766749"
      },
      "questionnaire": {
        "reference": "urn:uuid:335530e5-c30a-4cc1-b2d7-354f49929da6"
      },
      "status": "completed",
      "subject": {
        "reference": "urn:uuid:99a27dca-3594-4835-aad4-4a832718713e"
      },
      "context": {
        "reference": "urn:uuid:5b15e5aa-0d0c-4013-84ac-fd2608f573ae"
      },
      "authored": "2021-08-03T13:04:53+00:00",
      "item": [ {
        "linkId": "Tx1213",
        "text": "Have you suddenly become confused OR more confused than usual?",
        "answer": [ {
          "valueString": "no"
        } ]
      } ]
    }
  }, {
    "fullUrl": "urn:uuid:335530e5-c30a-4cc1-b2d7-354f49929da6",
    "resource": {
      "resourceType": "Questionnaire",
      "id": "335530e5-c30a-4cc1-b2d7-354f49929da6",
      "identifier": [ {
        "value": "1766749"
      } ],
      "version": "2021-08-03T13:04:53.000Z",
      "status": "active",
      "experimental": false,
      "date": "2021-08-03T13:04:53+00:00",
      "publisher": "User ID: '922' User name: 'AndrewJ.Walford' User skill set: 'T4'",
      "lastReviewDate": "2021-08-03",
      "contact": [ {
        "telecom": [ {
          "system": "phone",
          "value": "07798501130"
        } ]
      } ],
      "subjectType": [ "Patient" ],
      "item": [ {
        "linkId": "1766749",
        "prefix": "7700",
        "text": "Have you suddenly become confused OR more confused than usual?",
        "type": "choice",
        "required": true,
        "repeats": false,
        "option": [ {
          "valueString": "yes, Selected: false"
        }, {
          "valueString": "not sure, Selected: false"
        }, {
          "valueString": "no, Selected: true"
        } ]
      } ]
    }
  }, {
    "fullUrl": "urn:uuid:8dea8062-2f59-49a9-8fa2-fe5aa7d0a947",
    "resource": {
      "resourceType": "QuestionnaireResponse",
      "id": "8dea8062-2f59-49a9-8fa2-fe5aa7d0a947",
      "identifier": {
        "value": "1766749"
      },
      "questionnaire": {
        "reference": "urn:uuid:ae539692-9ab8-4ced-adce-a24e35d90a47"
      },
      "status": "completed",
      "subject": {
        "reference": "urn:uuid:99a27dca-3594-4835-aad4-4a832718713e"
      },
      "context": {
        "reference": "urn:uuid:5b15e5aa-0d0c-4013-84ac-fd2608f573ae"
      },
      "authored": "2021-08-03T13:04:53+00:00",
      "item": [ {
        "linkId": "Tx220164",
        "text": "Are you breathing faster or harder when doing nothing at all?",
        "answer": [ {
          "valueString": "no"
        } ]
      } ]
    }
  }, {
    "fullUrl": "urn:uuid:ae539692-9ab8-4ced-adce-a24e35d90a47",
    "resource": {
      "resourceType": "Questionnaire",
      "id": "ae539692-9ab8-4ced-adce-a24e35d90a47",
      "identifier": [ {
        "value": "1766749"
      } ],
      "version": "2021-08-03T13:04:53.000Z",
      "status": "active",
      "experimental": false,
      "date": "2021-08-03T13:04:53+00:00",
      "publisher": "User ID: '922' User name: 'AndrewJ.Walford' User skill set: 'T4'",
      "lastReviewDate": "2021-08-03",
      "contact": [ {
        "telecom": [ {
          "system": "phone",
          "value": "07798501130"
        } ]
      } ],
      "subjectType": [ "Patient" ],
      "item": [ {
        "linkId": "1766749",
        "prefix": "3400",
        "text": "Are you breathing faster or harder when doing nothing at all?",
        "type": "choice",
        "required": true,
        "repeats": false,
        "option": [ {
          "valueString": "yes, Selected: false"
        }, {
          "valueString": "not sure, Selected: false"
        }, {
          "valueString": "no, Selected: true"
        } ]
      } ]
    }
  }, {
    "fullUrl": "urn:uuid:42595e4e-3947-4fa6-a19c-5e4e1060e449",
    "resource": {
      "resourceType": "QuestionnaireResponse",
      "id": "42595e4e-3947-4fa6-a19c-5e4e1060e449",
      "identifier": {
        "value": "1766749"
      },
      "questionnaire": {
        "reference": "urn:uuid:fafcfd0f-da7f-4900-804e-f285f60409c3"
      },
      "status": "completed",
      "subject": {
        "reference": "urn:uuid:99a27dca-3594-4835-aad4-4a832718713e"
      },
      "context": {
        "reference": "urn:uuid:5b15e5aa-0d0c-4013-84ac-fd2608f573ae"
      },
      "authored": "2021-08-03T13:04:53+00:00",
      "item": [ {
        "linkId": "Tx224506",
        "text": "UnableToPassUrine",
        "answer": [ {
          "valueString": "*"
        } ]
      } ]
    }
  }, {
    "fullUrl": "urn:uuid:fafcfd0f-da7f-4900-804e-f285f60409c3",
    "resource": {
      "resourceType": "Questionnaire",
      "id": "fafcfd0f-da7f-4900-804e-f285f60409c3",
      "identifier": [ {
        "value": "1766749"
      } ],
      "version": "2021-08-03T13:04:53.000Z",
      "status": "active",
      "experimental": false,
      "date": "2021-08-03T13:04:53+00:00",
      "publisher": "User ID: '922' User name: 'AndrewJ.Walford' User skill set: 'T4'",
      "lastReviewDate": "2021-08-03",
      "contact": [ {
        "telecom": [ {
          "system": "phone",
          "value": "07798501130"
        } ]
      } ],
      "subjectType": [ "Patient" ],
      "item": [ {
        "linkId": "1766749",
        "prefix": "8300",
        "text": "UnableToPassUrine",
        "type": "choice",
        "required": true,
        "repeats": false,
        "option": [ {
          "valueString": "==\"\"present\"\", Selected: false"
        }, {
          "valueString": "*, Selected: true"
        } ]
      } ]
    }
  }, {
    "fullUrl": "urn:uuid:d25b932b-c14e-43b1-b8c2-dbd7b122ea03",
    "resource": {
      "resourceType": "QuestionnaireResponse",
      "id": "d25b932b-c14e-43b1-b8c2-dbd7b122ea03",
      "identifier": {
        "value": "1766749"
      },
      "questionnaire": {
        "reference": "urn:uuid:3ec16edd-20ef-41b7-a802-51b25f1c3405"
      },
      "status": "completed",
      "subject": {
        "reference": "urn:uuid:99a27dca-3594-4835-aad4-4a832718713e"
      },
      "context": {
        "reference": "urn:uuid:5b15e5aa-0d0c-4013-84ac-fd2608f573ae"
      },
      "authored": "2021-08-03T13:04:53+00:00",
      "item": [ {
        "linkId": "Tx222078",
        "text": "Have you got pain in the spine?",
        "answer": [ {
          "valueString": "no"
        } ]
      } ]
    }
  }, {
    "fullUrl": "urn:uuid:3ec16edd-20ef-41b7-a802-51b25f1c3405",
    "resource": {
      "resourceType": "Questionnaire",
      "id": "3ec16edd-20ef-41b7-a802-51b25f1c3405",
      "identifier": [ {
        "value": "1766749"
      } ],
      "version": "2021-08-03T13:04:53.000Z",
      "status": "active",
      "experimental": false,
      "date": "2021-08-03T13:04:53+00:00",
      "publisher": "User ID: '922' User name: 'AndrewJ.Walford' User skill set: 'T4'",
      "lastReviewDate": "2021-08-03",
      "contact": [ {
        "telecom": [ {
          "system": "phone",
          "value": "07798501130"
        } ]
      } ],
      "subjectType": [ "Patient" ],
      "item": [ {
        "linkId": "1766749",
        "prefix": "400",
        "text": "Have you got pain in the spine?",
        "type": "choice",
        "required": true,
        "repeats": false,
        "option": [ {
          "valueString": "yes, Selected: false"
        }, {
          "valueString": "not sure, Selected: false"
        }, {
          "valueString": "no, Selected: true"
        } ]
      } ]
    }
  }, {
    "fullUrl": "urn:uuid:df776165-c0df-4570-9beb-8d108ba12909",
    "resource": {
      "resourceType": "QuestionnaireResponse",
      "id": "df776165-c0df-4570-9beb-8d108ba12909",
      "identifier": {
        "value": "1766749"
      },
      "questionnaire": {
        "reference": "urn:uuid:e9f4614c-5839-4ef4-831f-0842694ffd29"
      },
      "status": "completed",
      "subject": {
        "reference": "urn:uuid:99a27dca-3594-4835-aad4-4a832718713e"
      },
      "context": {
        "reference": "urn:uuid:5b15e5aa-0d0c-4013-84ac-fd2608f573ae"
      },
      "authored": "2021-08-03T13:04:53+00:00",
      "item": [ {
        "linkId": "Tx220168",
        "text": "Have you got pain that is getting worse?",
        "answer": [ {
          "valueString": "no"
        } ]
      } ]
    }
  }, {
    "fullUrl": "urn:uuid:e9f4614c-5839-4ef4-831f-0842694ffd29",
    "resource": {
      "resourceType": "Questionnaire",
      "id": "e9f4614c-5839-4ef4-831f-0842694ffd29",
      "identifier": [ {
        "value": "1766749"
      } ],
      "version": "2021-08-03T13:04:53.000Z",
      "status": "active",
      "experimental": false,
      "date": "2021-08-03T13:04:53+00:00",
      "publisher": "User ID: '922' User name: 'AndrewJ.Walford' User skill set: 'T4'",
      "lastReviewDate": "2021-08-03",
      "contact": [ {
        "telecom": [ {
          "system": "phone",
          "value": "07798501130"
        } ]
      } ],
      "subjectType": [ "Patient" ],
      "item": [ {
        "linkId": "1766749",
        "prefix": "300",
        "text": "Have you got pain that is getting worse?",
        "type": "choice",
        "required": true,
        "repeats": false,
        "option": [ {
          "valueString": "yes, Selected: false"
        }, {
          "valueString": "not sure, Selected: false"
        }, {
          "valueString": "no, Selected: true"
        } ]
      } ]
    }
  }, {
    "fullUrl": "urn:uuid:e5af57b8-1a4b-45ac-901d-de676f3871da",
    "resource": {
      "resourceType": "QuestionnaireResponse",
      "id": "e5af57b8-1a4b-45ac-901d-de676f3871da",
      "identifier": {
        "value": "1766749"
      },
      "questionnaire": {
        "reference": "urn:uuid:3b558afd-f1db-417c-b033-a67f974d141b"
      },
      "status": "completed",
      "subject": {
        "reference": "urn:uuid:99a27dca-3594-4835-aad4-4a832718713e"
      },
      "context": {
        "reference": "urn:uuid:5b15e5aa-0d0c-4013-84ac-fd2608f573ae"
      },
      "authored": "2021-08-03T13:04:53+00:00",
      "item": [ {
        "linkId": "Tx1122",
        "text": "Have you felt hot or feverish at any time in the last 12 hours?",
        "answer": [ {
          "valueString": "no"
        } ]
      } ]
    }
  }, {
    "fullUrl": "urn:uuid:3b558afd-f1db-417c-b033-a67f974d141b",
    "resource": {
      "resourceType": "Questionnaire",
      "id": "3b558afd-f1db-417c-b033-a67f974d141b",
      "identifier": [ {
        "value": "1766749"
      } ],
      "version": "2021-08-03T13:04:53.000Z",
      "status": "active",
      "experimental": false,
      "date": "2021-08-03T13:04:53+00:00",
      "publisher": "User ID: '922' User name: 'AndrewJ.Walford' User skill set: 'T4'",
      "lastReviewDate": "2021-08-03",
      "contact": [ {
        "telecom": [ {
          "system": "phone",
          "value": "07798501130"
        } ]
      } ],
      "subjectType": [ "Patient" ],
      "item": [ {
        "linkId": "1766749",
        "prefix": "500",
        "text": "Have you felt hot or feverish at any time in the last 12 hours?",
        "type": "choice",
        "required": true,
        "repeats": false,
        "option": [ {
          "valueString": "yes - temperature not taken, Selected: false"
        }, {
          "valueString": "yes - temperature taken (specify), Selected: false"
        }, {
          "valueString": "not sure, Selected: false"
        }, {
          "valueString": "no, Selected: true"
        } ]
      } ]
    }
  }, {
    "fullUrl": "urn:uuid:b6f8db6f-6a5e-4e3d-b31d-a3dae8861a47",
    "resource": {
      "resourceType": "QuestionnaireResponse",
      "id": "b6f8db6f-6a5e-4e3d-b31d-a3dae8861a47",
      "identifier": {
        "value": "1766749"
      },
      "questionnaire": {
        "reference": "urn:uuid:0c9da528-815d-44ee-bfe4-8f30203e6c35"
      },
      "status": "completed",
      "subject": {
        "reference": "urn:uuid:99a27dca-3594-4835-aad4-4a832718713e"
      },
      "context": {
        "reference": "urn:uuid:5b15e5aa-0d0c-4013-84ac-fd2608f573ae"
      },
      "authored": "2021-08-03T13:04:53+00:00",
      "item": [ {
        "linkId": "Tx1233",
        "text": "Have you had a back injury IN THE LAST 4 WEEKS?",
        "answer": [ {
          "valueString": "no"
        } ]
      } ]
    }
  }, {
    "fullUrl": "urn:uuid:0c9da528-815d-44ee-bfe4-8f30203e6c35",
    "resource": {
      "resourceType": "Questionnaire",
      "id": "0c9da528-815d-44ee-bfe4-8f30203e6c35",
      "identifier": [ {
        "value": "1766749"
      } ],
      "version": "2021-08-03T13:04:53.000Z",
      "status": "active",
      "experimental": false,
      "date": "2021-08-03T13:04:53+00:00",
      "publisher": "User ID: '922' User name: 'AndrewJ.Walford' User skill set: 'T4'",
      "lastReviewDate": "2021-08-03",
      "contact": [ {
        "telecom": [ {
          "system": "phone",
          "value": "07798501130"
        } ]
      } ],
      "subjectType": [ "Patient" ],
      "item": [ {
        "linkId": "1766749",
        "prefix": "900",
        "text": "Have you had a back injury IN THE LAST 4 WEEKS?",
        "type": "choice",
        "required": true,
        "repeats": false,
        "option": [ {
          "valueString": "yes, Selected: false"
        }, {
          "valueString": "not sure, Selected: false"
        }, {
          "valueString": "no, Selected: true"
        } ]
      } ]
    }
  }, {
    "fullUrl": "urn:uuid:ed996577-6b48-4b27-bdbc-843fbd4feb52",
    "resource": {
      "resourceType": "QuestionnaireResponse",
      "id": "ed996577-6b48-4b27-bdbc-843fbd4feb52",
      "identifier": {
        "value": "1766749"
      },
      "questionnaire": {
        "reference": "urn:uuid:c59e824a-fe4e-45d9-9402-d6b571934da2"
      },
      "status": "completed",
      "subject": {
        "reference": "urn:uuid:99a27dca-3594-4835-aad4-4a832718713e"
      },
      "context": {
        "reference": "urn:uuid:5b15e5aa-0d0c-4013-84ac-fd2608f573ae"
      },
      "authored": "2021-08-03T13:04:53+00:00",
      "item": [ {
        "linkId": "Tx2947",
        "text": "Have you had any change of medication IN THE LAST 2 WEEKS?",
        "answer": [ {
          "valueString": "no"
        } ]
      } ]
    }
  }, {
    "fullUrl": "urn:uuid:c59e824a-fe4e-45d9-9402-d6b571934da2",
    "resource": {
      "resourceType": "Questionnaire",
      "id": "c59e824a-fe4e-45d9-9402-d6b571934da2",
      "identifier": [ {
        "value": "1766749"
      } ],
      "version": "2021-08-03T13:04:53.000Z",
      "status": "active",
      "experimental": false,
      "date": "2021-08-03T13:04:53+00:00",
      "publisher": "User ID: '922' User name: 'AndrewJ.Walford' User skill set: 'T4'",
      "lastReviewDate": "2021-08-03",
      "contact": [ {
        "telecom": [ {
          "system": "phone",
          "value": "07798501130"
        } ]
      } ],
      "subjectType": [ "Patient" ],
      "item": [ {
        "linkId": "1766749",
        "prefix": "1000",
        "text": "Have you had any change of medication IN THE LAST 2 WEEKS?",
        "type": "choice",
        "required": true,
        "repeats": false,
        "option": [ {
          "valueString": "started new medication, Selected: false"
        }, {
          "valueString": "changed the dose of medication, Selected: false"
        }, {
          "valueString": "stopped medication, Selected: false"
        }, {
          "valueString": "not sure, Selected: false"
        }, {
          "valueString": "no, Selected: true"
        } ]
      } ]
    }
  }, {
    "fullUrl": "urn:uuid:f699e604-628f-44d4-91b2-ec347b1ffed8",
    "resource": {
      "resourceType": "QuestionnaireResponse",
      "id": "f699e604-628f-44d4-91b2-ec347b1ffed8",
      "identifier": {
        "value": "1766749"
      },
      "questionnaire": {
        "reference": "urn:uuid:f2d9c26c-c3f7-4fa7-88fa-12ca751566a0"
      },
      "status": "completed",
      "subject": {
        "reference": "urn:uuid:99a27dca-3594-4835-aad4-4a832718713e"
      },
      "context": {
        "reference": "urn:uuid:5b15e5aa-0d0c-4013-84ac-fd2608f573ae"
      },
      "authored": "2021-08-03T13:04:53+00:00",
      "item": [ {
        "linkId": "Tx221449",
        "text": "STRING:SDPCFullPrimaryCareassessmentandprescribingcapability",
        "answer": [ {
          "valueString": "\"\"PC full Primary Care assessment and prescribing capability\"\""
        } ]
      } ]
    }
  }, {
    "fullUrl": "urn:uuid:f2d9c26c-c3f7-4fa7-88fa-12ca751566a0",
    "resource": {
      "resourceType": "Questionnaire",
      "id": "f2d9c26c-c3f7-4fa7-88fa-12ca751566a0",
      "identifier": [ {
        "value": "1766749"
      } ],
      "version": "2021-08-03T13:04:53.000Z",
      "status": "active",
      "experimental": false,
      "date": "2021-08-03T13:04:53+00:00",
      "publisher": "User ID: '922' User name: 'AndrewJ.Walford' User skill set: 'T4'",
      "lastReviewDate": "2021-08-03",
      "contact": [ {
        "telecom": [ {
          "system": "phone",
          "value": "07798501130"
        } ]
      } ],
      "subjectType": [ "Patient" ],
      "item": [ {
        "linkId": "1766749",
        "prefix": "1200",
        "text": "STRING:SDPCFullPrimaryCareassessmentandprescribingcapability",
        "type": "choice",
        "required": true,
        "repeats": false,
        "option": [ {
          "valueString": "\"\"PC full Primary Care assessment and prescribing capability\"\", Selected: true"
        } ]
      } ]
    }
  }, {
    "fullUrl": "urn:uuid:d05fd748-fc04-483b-b8b9-4eff1354afc5",
    "resource": {
      "resourceType": "QuestionnaireResponse",
      "id": "d05fd748-fc04-483b-b8b9-4eff1354afc5",
      "identifier": {
        "value": "1766749"
      },
      "questionnaire": {
        "reference": "urn:uuid:19409a7d-e409-4283-8573-206d84fc8cf7"
      },
      "status": "completed",
      "subject": {
        "reference": "urn:uuid:99a27dca-3594-4835-aad4-4a832718713e"
      },
      "context": {
        "reference": "urn:uuid:5b15e5aa-0d0c-4013-84ac-fd2608f573ae"
      },
      "authored": "2021-08-03T13:04:53+00:00"
    }
  }, {
    "fullUrl": "urn:uuid:19409a7d-e409-4283-8573-206d84fc8cf7",
    "resource": {
      "resourceType": "Questionnaire",
      "id": "19409a7d-e409-4283-8573-206d84fc8cf7",
      "identifier": [ {
        "value": "1766749"
      } ],
      "version": "2021-08-03T13:04:53.000Z",
      "status": "active",
      "experimental": false,
      "date": "2021-08-03T13:04:53+00:00",
      "publisher": "User ID: '922' User name: 'AndrewJ.Walford' User skill set: 'T4'",
      "lastReviewDate": "2021-08-03",
      "contact": [ {
        "telecom": [ {
          "system": "phone",
          "value": "07798501130"
        } ]
      } ],
      "subjectType": [ "Patient" ]
    }
  }, {
    "fullUrl": "urn:uuid:1ae8c7ae-264c-4758-ae8a-065ca1db71ac",
    "resource": {
      "resourceType": "QuestionnaireResponse",
      "id": "1ae8c7ae-264c-4758-ae8a-065ca1db71ac",
      "identifier": {
        "value": "1766749"
      },
      "questionnaire": {
        "reference": "urn:uuid:28cc9580-a6b5-4b2b-9640-435824cc7ecf"
      },
      "status": "completed",
      "subject": {
        "reference": "urn:uuid:99a27dca-3594-4835-aad4-4a832718713e"
      },
      "context": {
        "reference": "urn:uuid:5b15e5aa-0d0c-4013-84ac-fd2608f573ae"
      },
      "authored": "2021-08-03T13:04:53+00:00",
      "item": [ {
        "linkId": "N/A"
      } ]
    }
  }, {
    "fullUrl": "urn:uuid:28cc9580-a6b5-4b2b-9640-435824cc7ecf",
    "resource": {
      "resourceType": "Questionnaire",
      "id": "28cc9580-a6b5-4b2b-9640-435824cc7ecf",
      "identifier": [ {
        "value": "1766749"
      } ],
      "version": "2021-08-03T13:04:53.000Z",
      "status": "active",
      "experimental": false,
      "date": "2021-08-03T13:04:53+00:00",
      "publisher": "User ID: '922' User name: 'AndrewJ.Walford' User skill set: 'T4'",
      "lastReviewDate": "2021-08-03",
      "contact": [ {
        "telecom": [ {
          "system": "phone",
          "value": "07798501130"
        } ]
      } ],
      "subjectType": [ "Patient" ],
      "item": [ {
        "linkId": "1766749",
        "type": "choice",
        "required": true,
        "repeats": false,
        "option": [ {
          "valueString": ", Selected: false"
        } ]
      } ]
    }
  }, {
    "fullUrl": "urn:uuid:13bd2b43-6308-4189-8653-72dd0aef51cd",
    "resource": {
      "resourceType": "QuestionnaireResponse",
      "id": "13bd2b43-6308-4189-8653-72dd0aef51cd",
      "identifier": {
        "value": "1766749"
      },
      "questionnaire": {
        "reference": "urn:uuid:3d903b2a-03bc-41a9-9c3a-d60daf9f9a8a"
      },
      "status": "completed",
      "subject": {
        "reference": "urn:uuid:99a27dca-3594-4835-aad4-4a832718713e"
      },
      "context": {
        "reference": "urn:uuid:5b15e5aa-0d0c-4013-84ac-fd2608f573ae"
      },
      "authored": "2021-08-03T13:04:53+00:00"
    }
  }, {
    "fullUrl": "urn:uuid:3d903b2a-03bc-41a9-9c3a-d60daf9f9a8a",
    "resource": {
      "resourceType": "Questionnaire",
      "id": "3d903b2a-03bc-41a9-9c3a-d60daf9f9a8a",
      "identifier": [ {
        "value": "1766749"
      } ],
      "version": "2021-08-03T13:04:53.000Z",
      "status": "active",
      "experimental": false,
      "date": "2021-08-03T13:04:53+00:00",
      "publisher": "User ID: '922' User name: 'AndrewJ.Walford' User skill set: 'T4'",
      "lastReviewDate": "2021-08-03",
      "contact": [ {
        "telecom": [ {
          "system": "phone",
          "value": "07798501130"
        } ]
      } ],
      "subjectType": [ "Patient" ]
    }
  }, {
    "fullUrl": "urn:uuid:8e64830b-4ac8-438a-b4dd-27823bf5b124",
    "resource": {
      "resourceType": "Observation",
      "id": "8e64830b-4ac8-438a-b4dd-27823bf5b124",
      "status": "final",
      "code": {
        "coding": [ {
          "system": "http://snomed.info/sct",
          "code": "33962009",
          "display": "Presenting complaint"
        } ]
      },
      "subject": {
        "reference": "urn:uuid:99a27dca-3594-4835-aad4-4a832718713e"
      },
      "context": {
        "reference": "urn:uuid:5b15e5aa-0d0c-4013-84ac-fd2608f573ae"
      }
    }
  }, {
    "fullUrl": "urn:uuid:5071c2a0-2a75-46fb-8b6d-58c50f8fefd0",
    "resource": {
      "resourceType": "PractitionerRole",
      "id": "5071c2a0-2a75-46fb-8b6d-58c50f8fefd0",
      "practitioner": {
        "reference": "urn:uuid:d4e77739-5872-4c48-b51c-df587f5a8101"
      },
      "organization": {
        "reference": "urn:uuid:dfe862e4-d240-4f37-8e69-5f0bd35f7d57"
      },
      "code": [ {
        "coding": [ {
          "system": "2.16.840.1.113883.2.1.3.2.4.17.339",
          "code": "NP",
          "display": "Nurse Practitioner"
        } ]
      } ]
    }
  }, {
    "fullUrl": "urn:uuid:dfe862e4-d240-4f37-8e69-5f0bd35f7d57",
    "resource": {
      "resourceType": "Organization",
      "id": "dfe862e4-d240-4f37-8e69-5f0bd35f7d57",
      "identifier": [ {
        "value": "RX7"
      } ],
      "name": "NWAS 111"
    }
  }, {
    "fullUrl": "urn:uuid:6b6eb603-d5aa-4b7c-8247-d1ffce7e3c0a",
    "resource": {
      "resourceType": "RelatedPerson",
      "id": "6b6eb603-d5aa-4b7c-8247-d1ffce7e3c0a",
      "patient": {
        "reference": "urn:uuid:99a27dca-3594-4835-aad4-4a832718713e"
      },
      "relationship": {
        "coding": [ {
          "system": "http://hl7.org/fhir/v2/0131",
          "code": "C",
          "display": "Emergency Contact"
        } ]
      },
      "telecom": [ {
        "system": "phone",
        "value": "tel:07798501130"
      } ]
    }
  }, {
    "fullUrl": "urn:uuid:408089c0-85a8-4ce0-97a7-0e5f6193073e",
    "resource": {
      "resourceType": "Device",
      "id": "408089c0-85a8-4ce0-97a7-0e5f6193073e",
      "model": "111 Adaptor",
      "version": "1.0.1"
    }
  }, {
    "fullUrl": "urn:uuid:819cad1d-28d7-486b-9078-3989f23d8a58",
    "resource": {
      "resourceType": "List",
      "id": "819cad1d-28d7-486b-9078-3989f23d8a58",
      "status": "current",
      "mode": "working",
      "title": "111 Report List",
      "code": {
        "coding": [ {
          "system": "http://snomed.info/sct",
          "code": "225390008",
          "display": "Triage"
        } ]
      },
      "subject": {
        "reference": "urn:uuid:99a27dca-3594-4835-aad4-4a832718713e"
      },
      "encounter": {
        "reference": "urn:uuid:5b15e5aa-0d0c-4013-84ac-fd2608f573ae"
      },
      "date": "2021-08-03T13:04:53+00:00",
      "source": {
        "reference": "urn:uuid:408089c0-85a8-4ce0-97a7-0e5f6193073e"
      },
      "orderedBy": {
        "coding": [ {
          "system": "http://hl7.org/fhir/list-order",
          "code": "event-date",
          "display": "Sorted by Event Date"
        } ]
      },
      "entry": [ {
        "item": {
          "reference": "urn:uuid:3dbe3773-55bf-451b-a7f5-29e81c092bd2"
        }
      }, {
        "item": {
          "reference": "urn:uuid:dfe862e4-d240-4f37-8e69-5f0bd35f7d57"
        }
      }, {
        "item": {
          "reference": "urn:uuid:6b6eb603-d5aa-4b7c-8247-d1ffce7e3c0a"
        }
      }, {
        "item": {
          "reference": "urn:uuid:bcc599df-254e-4c75-b30c-acf7def4c4fa"
        }
      }, {
        "item": {
          "reference": "urn:uuid:faa2edb0-f60a-454f-9ec6-bb299f0346aa"
        }
      }, {
        "item": {
          "reference": "urn:uuid:8e64830b-4ac8-438a-b4dd-27823bf5b124"
        }
      }, {
        "item": {
          "reference": "urn:uuid:d4e77739-5872-4c48-b51c-df587f5a8101"
        }
      }, {
        "item": {
          "reference": "urn:uuid:3000e400-27b0-422e-b8c2-9b2feea254f4"
        }
      }, {
        "item": {
          "reference": "urn:uuid:197e65ee-1251-4094-9026-4214badd8af8"
        }
      }, {
        "item": {
          "reference": "urn:uuid:6ae3fc5c-95c5-4ebb-ae59-a0d56473417d"
        }
      }, {
        "item": {
          "reference": "urn:uuid:19409a7d-e409-4283-8573-206d84fc8cf7"
        }
      }, {
        "item": {
          "reference": "urn:uuid:045900cc-b216-4c01-abdf-706eb85f9ddf"
        }
      }, {
        "item": {
          "reference": "urn:uuid:cce2882b-c320-4d4b-af61-8b5ce414c9be"
        }
      }, {
        "item": {
          "reference": "urn:uuid:3b558afd-f1db-417c-b033-a67f974d141b"
        }
      }, {
        "item": {
          "reference": "urn:uuid:1ae8c7ae-264c-4758-ae8a-065ca1db71ac"
        }
      }, {
        "item": {
          "reference": "urn:uuid:0c6d6b64-0325-4c6e-8417-78ad8227fa88"
        }
      }, {
        "item": {
          "reference": "urn:uuid:6e719ba7-9ea5-4aee-bf22-bbaf2df88b18"
        }
      }, {
        "item": {
          "reference": "urn:uuid:5dd166f7-df5f-4887-8841-98f22c8e976f"
        }
      }, {
        "item": {
          "reference": "urn:uuid:f699e604-628f-44d4-91b2-ec347b1ffed8"
        }
      }, {
        "item": {
          "reference": "urn:uuid:afc04d50-9526-4b05-868b-fba0023538aa"
        }
      }, {
        "item": {
          "reference": "urn:uuid:c119693c-6fa9-406f-82ec-9b6bb7c22961"
        }
      }, {
        "item": {
          "reference": "urn:uuid:5792b38e-8c56-4bc8-a6e4-ab7bfd204d7e"
        }
      }, {
        "item": {
          "reference": "urn:uuid:d05fd748-fc04-483b-b8b9-4eff1354afc5"
        }
      }, {
        "item": {
          "reference": "urn:uuid:9cc9bbdb-40f2-4ad5-8251-9dded5ddda9c"
        }
      }, {
        "item": {
          "reference": "urn:uuid:129fc855-0d02-476b-8a0a-a004fd23b338"
        }
      }, {
        "item": {
          "reference": "urn:uuid:92ffd7f1-88dd-44a3-9c47-2d535e251eb2"
        }
      }, {
        "item": {
          "reference": "urn:uuid:fa7097ee-1185-4e4c-9724-5b5200294f6b"
        }
      }, {
        "item": {
          "reference": "urn:uuid:df776165-c0df-4570-9beb-8d108ba12909"
        }
      }, {
        "item": {
          "reference": "urn:uuid:1f975884-160a-4569-bf58-82e1d3563c7c"
        }
      }, {
        "item": {
          "reference": "urn:uuid:a49e4b47-b0f8-4f6f-857a-1f3bc4c480c9"
        }
      }, {
        "item": {
          "reference": "urn:uuid:4f06ffaf-e44c-4f02-a3c2-92b20ce9c43c"
        }
      }, {
        "item": {
          "reference": "urn:uuid:1199bc98-12c9-43ea-abdf-e27a36de3d54"
        }
      }, {
        "item": {
          "reference": "urn:uuid:832f5a46-77da-4ae8-8a1c-c4cfc08b7cd4"
        }
      }, {
        "item": {
          "reference": "urn:uuid:594ae4b3-95d0-4143-96d3-672ce4683527"
        }
      }, {
        "item": {
          "reference": "urn:uuid:b6f8db6f-6a5e-4e3d-b31d-a3dae8861a47"
        }
      }, {
        "item": {
          "reference": "urn:uuid:59422520-e6f9-4830-9af5-a454fe21c225"
        }
      }, {
        "item": {
          "reference": "urn:uuid:ae539692-9ab8-4ced-adce-a24e35d90a47"
        }
      }, {
        "item": {
          "reference": "urn:uuid:9afbcb6b-6cbb-4632-a8cd-72064c83cc62"
        }
      }, {
        "item": {
          "reference": "urn:uuid:de9f808a-7dd8-4526-9474-923863c55656"
        }
      }, {
        "item": {
          "reference": "urn:uuid:c59e824a-fe4e-45d9-9402-d6b571934da2"
        }
      }, {
        "item": {
          "reference": "urn:uuid:42595e4e-3947-4fa6-a19c-5e4e1060e449"
        }
      }, {
        "item": {
          "reference": "urn:uuid:eb172102-67fd-4368-80f9-f9c93b35e07c"
        }
      }, {
        "item": {
          "reference": "urn:uuid:fdb482aa-508a-4b23-a9a0-0565994357a9"
        }
      }, {
        "item": {
          "reference": "urn:uuid:7e4501d3-2d6c-4689-bcaa-f0fa99200c54"
        }
      }, {
        "item": {
          "reference": "urn:uuid:ed996577-6b48-4b27-bdbc-843fbd4feb52"
        }
      }, {
        "item": {
          "reference": "urn:uuid:f35a8a9f-50e0-42f3-bfaf-fda029bbb4cc"
        }
      }, {
        "item": {
          "reference": "urn:uuid:f2d9c26c-c3f7-4fa7-88fa-12ca751566a0"
        }
      }, {
        "item": {
          "reference": "urn:uuid:28cc9580-a6b5-4b2b-9640-435824cc7ecf"
        }
      }, {
        "item": {
          "reference": "urn:uuid:70493ee2-1100-4457-8c97-8d72ffdf2403"
        }
      }, {
        "item": {
          "reference": "urn:uuid:3375f537-d956-44d8-ae32-856aea5fe673"
        }
      }, {
        "item": {
          "reference": "urn:uuid:c88ae848-5f94-440a-870a-f5b306aa4bb1"
        }
      }, {
        "item": {
          "reference": "urn:uuid:ae50a645-83dc-4eb4-addd-f8cef955c083"
        }
      }, {
        "item": {
          "reference": "urn:uuid:e5af57b8-1a4b-45ac-901d-de676f3871da"
        }
      }, {
        "item": {
          "reference": "urn:uuid:0170938a-6ec7-4f08-afcb-01f2d90bf112"
        }
      }, {
        "item": {
          "reference": "urn:uuid:a8d98ad5-983e-4e52-bcaa-008405933e75"
        }
      }, {
        "item": {
          "reference": "urn:uuid:0c9da528-815d-44ee-bfe4-8f30203e6c35"
        }
      }, {
        "item": {
          "reference": "urn:uuid:e9f4614c-5839-4ef4-831f-0842694ffd29"
        }
      }, {
        "item": {
          "reference": "urn:uuid:3d903b2a-03bc-41a9-9c3a-d60daf9f9a8a"
        }
      }, {
        "item": {
          "reference": "urn:uuid:3ec16edd-20ef-41b7-a802-51b25f1c3405"
        }
      }, {
        "item": {
          "reference": "urn:uuid:7f452733-a8ab-4906-bb83-7b6d6e3b55b9"
        }
      }, {
        "item": {
          "reference": "urn:uuid:e9be7b93-f3f3-4083-9416-5ac5ad48903c"
        }
      }, {
        "item": {
          "reference": "urn:uuid:13bd2b43-6308-4189-8653-72dd0aef51cd"
        }
      }, {
        "item": {
          "reference": "urn:uuid:335530e5-c30a-4cc1-b2d7-354f49929da6"
        }
      }, {
        "item": {
          "reference": "urn:uuid:629eaa88-0925-46fd-ac43-c7c7d1a15c1a"
        }
      }, {
        "item": {
          "reference": "urn:uuid:c874e33c-5bc0-497e-b680-6ff1f0d6d391"
        }
      }, {
        "item": {
          "reference": "urn:uuid:76067c66-3308-4cad-9e4d-c2345363e653"
        }
      }, {
        "item": {
          "reference": "urn:uuid:55754233-3854-4b8e-9eb3-bf558ebdb01f"
        }
      }, {
        "item": {
          "reference": "urn:uuid:8dea8062-2f59-49a9-8fa2-fe5aa7d0a947"
        }
      }, {
        "item": {
          "reference": "urn:uuid:eb09fdff-b72b-4826-bbb8-ca73faa4114a"
        }
      }, {
        "item": {
          "reference": "urn:uuid:e9e71661-e653-407d-81ae-8489547cc22d"
        }
      }, {
        "item": {
          "reference": "urn:uuid:d25b932b-c14e-43b1-b8c2-dbd7b122ea03"
        }
      }, {
        "item": {
          "reference": "urn:uuid:fafcfd0f-da7f-4900-804e-f285f60409c3"
        }
      }, {
        "item": {
          "reference": "urn:uuid:e5ed7595-72cf-4d33-b86c-47789a12751b"
        }
      } ]
    }
  } ]
}