{
  "resourceType": "Bundle",
  "identifier": {
    "type": {
      "text": "ClinicalDocument VersionNumber"
    },
    "value": "1"
  },
  "type": "message",
  "entry": [ {
    "fullUrl": "urn:uuid:C34D38AA-2A35-4E0C-AAB2-BCC8D397736A",
    "resource": {
      "resourceType": "MessageHeader",
      "id": "C34D38AA-2A35-4E0C-AAB2-BCC8D397736A",
      "event": {
        "system": "https://fhir.nhs.uk/STU3/CodeSystem/EventType-1",
        "code": "referral-1",
        "display": "Referral"
      },
      "destination": [ {
        "endpoint": "urn:nhs-uk:addressing:ods:A82018:DOSServiceID:136753"
      } ],
      "timestamp": "2021-08-03T13:07:14.000+00:00",
      "source": {
        "name": "NHS 111 Adaptor",
        "endpoint": "http://localhost:8080/report"
      },
      "reason": {
        "coding": [ {
          "system": "urn:nhs-itk:ns:201005:interaction",
          "code": "urn:nhs-itk:interaction:primaryGeneralPractitionerRecipientNHS111CDADocument-v2-0"
        } ]
      }
    }
  }, {
    "fullUrl": "urn:uuid:706baa4d-9559-49a9-bfd8-cfe62f16ca2e",
    "resource": {
      "resourceType": "Encounter",
      "id": "706baa4d-9559-49a9-bfd8-cfe62f16ca2e",
      "identifier": [ {
        "system": "2.16.840.1.113883.2.1.3.2.4.18.49",
        "value": "6C072313-DFFB-4D60-9416-43B044FDBA9F"
      }, {
        "system": "2.16.840.1.113883.2.1.3.2.4.18.34",
        "value": "1766759"
      }, {
        "system": "2.16.840.1.113883.2.1.3.2.4.18.35",
        "value": "1766759"
      } ],
      "status": "finished",
      "type": [ {
        "text": "111 Encounter Referral"
      } ],
      "subject": {
        "reference": "urn:uuid:b6750db2-6823-47e3-b310-b25deb260e6c"
      },
      "participant": [ {
        "type": [ {
          "coding": [ {
            "system": "http://hl7.org/fhir/ValueSet/encounter-participant-type",
            "code": "PPRF",
            "display": "Author"
          } ]
        } ],
        "individual": {
          "reference": "urn:uuid:e5755ac5-4ab5-483a-bae0-a136ec8c1f15"
        }
      } ],
      "period": {
        "start": "2021-08-03T13:07:14+00:00"
      },
      "location": [ {
        "location": {
          "reference": "urn:uuid:a5c921c8-8196-47b3-81ba-d0dccf8ec4f5"
        },
        "status": "active"
      }, {
        "location": {
          "reference": "urn:uuid:360c28ce-bbb0-4083-86ac-de564b4b4df0"
        },
        "status": "completed"
      } ],
      "serviceProvider": {
        "reference": "urn:uuid:6997f913-6a38-4515-9344-d6f84130d7ee"
      }
    }
  }, {
    "fullUrl": "urn:uuid:6997f913-6a38-4515-9344-d6f84130d7ee",
    "resource": {
      "resourceType": "Organization",
      "id": "6997f913-6a38-4515-9344-d6f84130d7ee",
      "active": true,
      "type": [ {
        "text": "CST"
      } ],
      "name": "NWAS 111"
    }
  }, {
    "fullUrl": "urn:uuid:e5755ac5-4ab5-483a-bae0-a136ec8c1f15",
    "resource": {
      "resourceType": "Practitioner",
      "id": "e5755ac5-4ab5-483a-bae0-a136ec8c1f15",
      "active": true,
      "name": [ {
        "text": "AndrewJ.Walford"
      } ]
    }
  }, {
    "fullUrl": "urn:uuid:a5c921c8-8196-47b3-81ba-d0dccf8ec4f5",
    "resource": {
      "resourceType": "Location",
      "id": "a5c921c8-8196-47b3-81ba-d0dccf8ec4f5",
      "managingOrganization": {
        "reference": "urn:uuid:ff05c48f-56b4-484e-af22-01b1bc25c357"
      }
    }
  }, {
    "fullUrl": "urn:uuid:ff05c48f-56b4-484e-af22-01b1bc25c357",
    "resource": {
      "resourceType": "Organization",
      "id": "ff05c48f-56b4-484e-af22-01b1bc25c357",
      "identifier": [ {
        "value": "A82018"
      } ],
      "type": [ {
        "text": "GP Practice"
      } ],
      "name": "Spencer St Surgery",
      "telecom": [ {
        "system": "phone",
        "value": "tel:01228529171",
        "use": "work"
      } ],
      "address": [ {
        "use": "work",
        "line": [ "Spencer Street Surgery", "10 Spencer Street", "Carlisle" ],
        "postalCode": "CA1 1BP"
      } ]
    }
  }, {
    "fullUrl": "urn:uuid:360c28ce-bbb0-4083-86ac-de564b4b4df0",
    "resource": {
      "resourceType": "Location",
      "id": "360c28ce-bbb0-4083-86ac-de564b4b4df0",
      "address": {
        "type": "physical",
        "line": [ "North West Ambulance Service Nhs Trust Salkeld Hall", "Infirmary Street", "Carlisle" ],
        "postalCode": "CA2 7AN"
      }
    }
  }, {
    "fullUrl": "urn:uuid:b6750db2-6823-47e3-b310-b25deb260e6c",
    "resource": {
      "resourceType": "Patient",
      "id": "b6750db2-6823-47e3-b310-b25deb260e6c",
      "active": true,
      "name": [ {
        "use": "official",
        "family": "Please Disregard",
        "given": [ "Dx09 Test" ]
      } ],
      "telecom": [ {
        "system": "phone",
        "value": "tel:07798501130",
        "use": "mobile"
      }, {
        "system": "phone",
        "value": "tel:07798501130"
      } ],
      "gender": "male",
      "birthDate": "1980-01-01",
      "address": [ {
        "use": "home",
        "line": [ "North West Ambulance Service Nhs Trust Salkeld Hall", "Infirmary Street", "Carlisle" ],
        "postalCode": "CA2 7AN"
      }, {
        "type": "physical",
        "line": [ "North West Ambulance Service Nhs Trust Salkeld Hall", "Infirmary Street", "Carlisle" ],
        "postalCode": "CA2 7AN"
      } ],
      "generalPractitioner": [ {
        "reference": "urn:uuid:ae4b0da1-e847-4684-a5de-9eb50c53ae75"
      } ]
    }
  }, {
    "fullUrl": "urn:uuid:ae4b0da1-e847-4684-a5de-9eb50c53ae75",
    "resource": {
      "resourceType": "Organization",
      "id": "ae4b0da1-e847-4684-a5de-9eb50c53ae75",
      "identifier": [ {
        "value": "A82018"
      } ],
      "type": [ {
        "text": "GP Practice"
      } ],
      "name": "Spencer St Surgery",
      "telecom": [ {
        "system": "phone",
        "value": "tel:01228529171",
        "use": "work"
      } ],
      "address": [ {
        "use": "work",
        "line": [ "Spencer Street Surgery", "10 Spencer Street", "Carlisle" ],
        "postalCode": "CA1 1BP"
      } ]
    }
  }, {
    "fullUrl": "urn:uuid:6b167d97-5d94-4c7b-9337-e21760b015d3",
    "resource": {
      "resourceType": "HealthcareService",
      "id": "6b167d97-5d94-4c7b-9337-e21760b015d3",
      "active": true,
      "providedBy": {
        "reference": "urn:uuid:b160ec77-de73-4cfa-91c0-16138560b137"
      },
      "location": [ {
        "reference": "urn:uuid:0e68d504-ee10-4d4c-ba3e-d85856ca923e"
      } ],
      "name": "Spencer St Surgery",
      "telecom": [ {
        "system": "phone",
        "value": "tel:01228529171",
        "use": "work"
      } ]
    }
  }, {
    "fullUrl": "urn:uuid:0e68d504-ee10-4d4c-ba3e-d85856ca923e",
    "resource": {
      "resourceType": "Location",
      "id": "0e68d504-ee10-4d4c-ba3e-d85856ca923e",
      "telecom": [ {
        "system": "phone",
        "value": "tel:01228529171",
        "use": "work"
      } ],
      "address": {
        "use": "work",
        "line": [ "Spencer Street Surgery", "10 Spencer Street", "Carlisle" ],
        "postalCode": "CA1 1BP"
      },
      "managingOrganization": {
        "reference": "urn:uuid:b160ec77-de73-4cfa-91c0-16138560b137"
      }
    }
  }, {
    "fullUrl": "urn:uuid:b160ec77-de73-4cfa-91c0-16138560b137",
    "resource": {
      "resourceType": "Organization",
      "id": "b160ec77-de73-4cfa-91c0-16138560b137",
      "identifier": [ {
        "value": "A82018"
      } ],
      "type": [ {
        "coding": [ {
          "code": "PRCP",
          "display": "Spencer St Surgery"
        } ]
      } ],
      "name": "Spencer St Surgery"
    }
  }, {
    "fullUrl": "urn:uuid:ce0cf760-ff1a-4bc0-b604-da96db622731",
    "resource": {
      "resourceType": "ReferralRequest",
      "id": "ce0cf760-ff1a-4bc0-b604-da96db622731",
      "status": "active",
      "intent": "plan",
      "priority": "routine",
      "subject": {
        "reference": "urn:uuid:b6750db2-6823-47e3-b310-b25deb260e6c"
      },
      "context": {
        "reference": "urn:uuid:706baa4d-9559-49a9-bfd8-cfe62f16ca2e"
      },
      "occurrencePeriod": {
        "start": "2021-09-29T10:03:07+00:00",
        "end": "2021-09-29T11:03:07+00:00"
      },
      "authoredOn": "2021-08-03T12:36:56+00:00",
      "requester": {
        "agent": {
          "reference": "urn:uuid:4bc1c345-4490-4a75-9135-ae50f9de03a4"
        },
        "onBehalfOf": {
          "reference": "urn:uuid:6997f913-6a38-4515-9344-d6f84130d7ee"
        }
      },
      "recipient": [ {
        "reference": "urn:uuid:63ca7994-b81d-44aa-8ab3-6cc16c43b6b6"
      }, {
        "reference": "urn:uuid:6b167d97-5d94-4c7b-9337-e21760b015d3"
      } ],
      "reasonReference": [ {
        "reference": "urn:uuid:6fe813ca-3bcf-457a-9df3-6fbc6be81790"
      } ],
      "supportingInfo": [ {
        "reference": "urn:uuid:e3e3d03b-6723-4a42-a57b-c103da0495b3"
      } ]
    }
  }, {
    "fullUrl": "urn:uuid:e3e3d03b-6723-4a42-a57b-c103da0495b3",
    "resource": {
      "resourceType": "ProcedureRequest",
      "id": "e3e3d03b-6723-4a42-a57b-c103da0495b3",
      "status": "active",
      "intent": "plan",
      "priority": "routine",
      "doNotPerform": false,
      "code": {
        "coding": [ {
          "system": "2.16.840.1.113883.2.1.3.2.4.17.325",
          "code": "Dx09",
          "display": "For Persistent Or Recurrent Symptoms: Get In Touch With A Local Service For A Non-urgent Appointment"
        } ]
      },
      "subject": {
        "reference": "urn:uuid:b6750db2-6823-47e3-b310-b25deb260e6c"
      },
      "occurrencePeriod": {
        "start": "2021-09-29T10:03:07+00:00",
        "end": "2021-09-29T11:03:07+00:00"
      },
      "reasonReference": [ {
        "reference": "urn:uuid:6fe813ca-3bcf-457a-9df3-6fbc6be81790"
      } ]
    }
  }, {
    "fullUrl": "urn:uuid:63ca7994-b81d-44aa-8ab3-6cc16c43b6b6",
    "resource": {
      "resourceType": "Practitioner",
      "id": "63ca7994-b81d-44aa-8ab3-6cc16c43b6b6",
      "active": true,
      "address": [ {
        "type": "physical",
        "line": [ "Spencer Street Surgery", "Spencer Street", "Carlisle" ],
        "postalCode": "CA1 1BP"
      } ]
    }
  }, {
    "fullUrl": "urn:uuid:89eb95fe-40f5-416e-8cc7-6b7e1fa39bca",
    "resource": {
      "resourceType": "Composition",
      "id": "89eb95fe-40f5-416e-8cc7-6b7e1fa39bca",
      "identifier": {
        "use": "usual",
        "value": "B5A4AC85-5A10-4D08-B956-83421A24BB81"
      },
      "status": "final",
      "type": {
        "coding": [ {
          "system": "http://snomed.info/sct",
          "code": "371531000",
          "display": "Report of clinical encounter (record artifact)"
        } ]
      },
      "subject": {
        "reference": "urn:uuid:b6750db2-6823-47e3-b310-b25deb260e6c"
      },
      "encounter": {
        "reference": "urn:uuid:706baa4d-9559-49a9-bfd8-cfe62f16ca2e"
      },
      "date": "2021-09-29T10:03:07+00:00",
      "author": [ {
        "reference": "urn:uuid:e5755ac5-4ab5-483a-bae0-a136ec8c1f15"
      } ],
      "title": "111 Report",
      "confidentiality": "N",
      "section": [ {
        "section": [ {
          "title": "Patient's Reported Condition",
          "text": {
            "status": "generated",
            "div": "<div xmlns=\"http://www.w3.org/1999/xhtml\">**test From Nwas111 - No Action Required - Please Disregard Test</div>"
          }
        }, {
          "title": "Case Summary",
          "text": {
            "status": "generated",
            "div": "<div xmlns=\"http://www.w3.org/1999/xhtml\">&lt;content styleCode=&quot;bold&quot;&gt;Pathways Disposition: Dx09&lt;/content&gt;\n                                                    &lt;br/&gt;\n                                                    &lt;content&gt;For Persistent Or Recurrent Symptoms: Get In Touch With A Local Service For A Non-urgent Appointment&lt;/content&gt;\n                                                    &lt;br/&gt;\n                                                    &lt;br/&gt;\n                                                    &lt;content styleCode=&quot;bold&quot;&gt;Consultation Summary:&lt;/content&gt;\n                                                    &lt;br/&gt;\n                                                    &lt;content&gt;Illness - '**Test From NWAS111 - No Action required - Please Disregard Test case**'&lt;/content&gt;\n                                                    &lt;br/&gt;\n                                                    &lt;content&gt;Warm to touch&lt;/content&gt;\n                                                    &lt;br/&gt;\n                                                    &lt;content&gt;Head lice&lt;/content&gt;\n                                                    &lt;br/&gt;\n                                                    &lt;content&gt;Head lice contact&lt;/content&gt;\n                                                    &lt;br/&gt;\n                                                    &lt;content&gt;Recent sudden loss of clumps of hair&lt;/content&gt;\n                                                    &lt;br/&gt;\n                                                    &lt;br/&gt;\n                                                    &lt;content styleCode=&quot;bold&quot;&gt;Pathways Assessment:&lt;/content&gt;\n                                                    &lt;br/&gt;\n                                                    &lt;content&gt;An injury or health problem was the reason for the contact.&lt;/content&gt;\n                                                    &lt;br/&gt;\n                                                    &lt;content&gt;User comment - '**Test From NWAS111 - No Action required - Please Disregard Test case**'&lt;/content&gt;\n                                                    &lt;br/&gt;\n                                                    &lt;content&gt;Heavy bleeding had not occurred in the previous 2 hours.&lt;/content&gt;\n                                                    &lt;br/&gt;\n                                                    &lt;content&gt;An illness or health problem was the main problem.&lt;/content&gt;\n                                                    &lt;br/&gt;\n                                                    &lt;content&gt;User comment - '**Test From NWAS111 - No Action required - Please Disregard Test case**'&lt;/content&gt;\n                                                    &lt;br/&gt;\n                                                    &lt;content&gt;The individual was not fighting for breath.&lt;/content&gt;\n                                                    &lt;br/&gt;\n                                                    &lt;content&gt;The main reason for the assessment was not an allergic reaction, heart attack, chest/upper back pain, probable stroke, recent fit/seizure or suicide attempt.&lt;/content&gt;\n                                                    &lt;br/&gt;\n                                                    &lt;content&gt;The main reason for contact was not new confusion, declared diabetic hypo/hyperglycaemia, or ICD shock.&lt;/content&gt;\n                                                    &lt;br/&gt;\n                                                    &lt;content&gt;The skin on the torso felt normal, warm or hot.&lt;/content&gt;\n                                                    &lt;br/&gt;\n                                                    &lt;content&gt;Pathway selected - Skin Problems&lt;/content&gt;\n                                                    &lt;br/&gt;\n                                                    &lt;content&gt;The main problem was not a rash, itch, jaundice, skin lumps or abnormal bruising.&lt;/content&gt;\n                                                    &lt;br/&gt;\n                                                    &lt;content&gt;The main problem was head lice.&lt;/content&gt;\n                                                    &lt;br/&gt;\n                                                    &lt;content&gt;There had been contact with somebody with head lice.&lt;/content&gt;\n                                                    &lt;br/&gt;\n                                                    &lt;content&gt;There was recent patchy hair loss.&lt;/content&gt;\n                                                    &lt;br/&gt;\n                                                    &lt;content&gt;User comment - 'GP - Spencer Street Surgery - Cumbria (Home GP)'&lt;/content&gt;\n                                                    &lt;br/&gt;\n                                                    &lt;br/&gt;\n                                                    &lt;content styleCode=&quot;bold&quot;&gt;Advice Given:&lt;/content&gt;\n                                                    &lt;br/&gt;\n                                                    &lt;content&gt;Head lice is common. Speak to a pharmacist for advice on suitable treatments.&lt;/content&gt;\n                                                    &lt;br/&gt;\n                                                    &lt;br/&gt;</div>"
          }
        } ]
      }, {
        "title": "ReferralRequest",
        "entry": [ {
          "reference": "urn:uuid:ce0cf760-ff1a-4bc0-b604-da96db622731"
        } ]
      }, {
        "title": "QuestionnaireResponse",
        "entry": [ {
          "reference": "urn:uuid:8ca29167-d068-4c51-9723-353bc79c61a0"
        } ]
      }, {
        "title": "QuestionnaireResponse",
        "entry": [ {
          "reference": "urn:uuid:3afd0a2e-5fc8-4771-b758-3a4a84883a8e"
        } ]
      }, {
        "title": "QuestionnaireResponse",
        "entry": [ {
          "reference": "urn:uuid:a78d0a9b-7c2b-4736-8544-12bd4578daa4"
        } ]
      }, {
        "title": "QuestionnaireResponse",
        "entry": [ {
          "reference": "urn:uuid:d3a3a503-02cf-4423-926a-325ab7d3d8e4"
        } ]
      }, {
        "title": "QuestionnaireResponse",
        "entry": [ {
          "reference": "urn:uuid:3ffc1967-37f5-4f7e-bef0-47226e844f06"
        } ]
      }, {
        "title": "QuestionnaireResponse",
        "entry": [ {
          "reference": "urn:uuid:003b8240-38fe-4787-abee-c1282c5c6c55"
        } ]
      }, {
        "title": "QuestionnaireResponse",
        "entry": [ {
          "reference": "urn:uuid:ab048138-2091-4eaf-8f0f-f9ba9656a3d1"
        } ]
      }, {
        "title": "QuestionnaireResponse",
        "entry": [ {
          "reference": "urn:uuid:7dbc7325-0086-406d-b200-24a19d23f51d"
        } ]
      }, {
        "title": "QuestionnaireResponse",
        "entry": [ {
          "reference": "urn:uuid:d064295c-be70-41bf-930d-ae5caa98961e"
        } ]
      }, {
        "title": "QuestionnaireResponse",
        "entry": [ {
          "reference": "urn:uuid:09ef0ed6-b9cc-4f0b-a397-3a8c0a040298"
        } ]
      }, {
        "title": "QuestionnaireResponse",
        "entry": [ {
          "reference": "urn:uuid:1cdf70ab-a0bd-4769-93f9-39b35a7ea276"
        } ]
      }, {
        "title": "QuestionnaireResponse",
        "entry": [ {
          "reference": "urn:uuid:b0abb26b-9cbc-4241-a995-4cfc793790ff"
        } ]
      }, {
        "title": "QuestionnaireResponse",
        "entry": [ {
          "reference": "urn:uuid:6bba93fa-84bc-46b4-9eb4-3904e202955d"
        } ]
      }, {
        "title": "QuestionnaireResponse",
        "entry": [ {
          "reference": "urn:uuid:07a4e0ab-7fdb-460a-86f0-d8aacb93dab5"
        } ]
      }, {
        "title": "QuestionnaireResponse",
        "entry": [ {
          "reference": "urn:uuid:32357dff-1e2a-4271-aa89-5a377fe82236"
        } ]
      }, {
        "title": "QuestionnaireResponse",
        "entry": [ {
          "reference": "urn:uuid:45c55632-c024-4f3a-9a04-11eee28b064f"
        } ]
      }, {
        "title": "QuestionnaireResponse",
        "entry": [ {
          "reference": "urn:uuid:c72021e0-9324-4a75-abff-7ae6acd58d03"
        } ]
      }, {
        "title": "QuestionnaireResponse",
        "entry": [ {
          "reference": "urn:uuid:5c9478d2-af93-4f73-ab51-1c93d8bd074e"
        } ]
      }, {
        "title": "QuestionnaireResponse",
        "entry": [ {
          "reference": "urn:uuid:591ee827-334f-4883-83c4-bd3a804347b3"
        } ]
      }, {
        "title": "QuestionnaireResponse",
        "entry": [ {
          "reference": "urn:uuid:328cd7e7-2dc1-4ad2-86b5-fbb23236dbd4"
        } ]
      }, {
        "title": "QuestionnaireResponse",
        "entry": [ {
          "reference": "urn:uuid:3ebe7930-5b08-4bb8-9f7a-1b06fe57a404"
        } ]
      } ]
    }
  }, {
    "fullUrl": "urn:uuid:9f47d888-19f8-4df7-84e8-b02405acf7d9",
    "resource": {
      "resourceType": "Consent",
      "id": "9f47d888-19f8-4df7-84e8-b02405acf7d9",
      "identifier": {
        "use": "usual",
        "value": "B5A4AC85-5A10-4D08-B956-83421A24BB81"
      },
      "status": "active",
      "patient": {
        "reference": "urn:uuid:b6750db2-6823-47e3-b310-b25deb260e6c"
      },
      "period": {
        "start": "2021-08-03T13:07:14+00:00"
      },
      "consentingParty": [ {
        "reference": "urn:uuid:b6750db2-6823-47e3-b310-b25deb260e6c"
      } ],
      "action": [ {
        "coding": [ {
          "system": "http://snomed.info/sct",
          "code": "425691002",
          "display": "Consent given for electronic record sharing"
        } ],
        "text": "Consent given for electronic record sharing"
      } ],
      "organization": [ {
        "reference": "urn:uuid:6997f913-6a38-4515-9344-d6f84130d7ee"
      } ],
      "policyRule": "http://hl7.org/fhir/ConsentPolicy/opt-out",
      "data": [ {
        "meaning": "related",
        "reference": {
          "reference": "urn:uuid:706baa4d-9559-49a9-bfd8-cfe62f16ca2e"
        }
      } ]
    }
  }, {
    "fullUrl": "urn:uuid:6fe813ca-3bcf-457a-9df3-6fbc6be81790",
    "resource": {
      "resourceType": "Condition",
      "id": "6fe813ca-3bcf-457a-9df3-6fbc6be81790",
      "clinicalStatus": "active",
      "verificationStatus": "unknown",
      "subject": {
        "reference": "urn:uuid:b6750db2-6823-47e3-b310-b25deb260e6c"
      },
      "context": {
        "reference": "urn:uuid:706baa4d-9559-49a9-bfd8-cfe62f16ca2e"
      },
      "evidence": [ {
        "detail": [ {
          "reference": "urn:uuid:8ca29167-d068-4c51-9723-353bc79c61a0"
        } ]
      }, {
        "detail": [ {
          "reference": "urn:uuid:3afd0a2e-5fc8-4771-b758-3a4a84883a8e"
        } ]
      }, {
        "detail": [ {
          "reference": "urn:uuid:a78d0a9b-7c2b-4736-8544-12bd4578daa4"
        } ]
      }, {
        "detail": [ {
          "reference": "urn:uuid:d3a3a503-02cf-4423-926a-325ab7d3d8e4"
        } ]
      }, {
        "detail": [ {
          "reference": "urn:uuid:3ffc1967-37f5-4f7e-bef0-47226e844f06"
        } ]
      }, {
        "detail": [ {
          "reference": "urn:uuid:003b8240-38fe-4787-abee-c1282c5c6c55"
        } ]
      }, {
        "detail": [ {
          "reference": "urn:uuid:ab048138-2091-4eaf-8f0f-f9ba9656a3d1"
        } ]
      }, {
        "detail": [ {
          "reference": "urn:uuid:7dbc7325-0086-406d-b200-24a19d23f51d"
        } ]
      }, {
        "detail": [ {
          "reference": "urn:uuid:d064295c-be70-41bf-930d-ae5caa98961e"
        } ]
      }, {
        "detail": [ {
          "reference": "urn:uuid:09ef0ed6-b9cc-4f0b-a397-3a8c0a040298"
        } ]
      }, {
        "detail": [ {
          "reference": "urn:uuid:1cdf70ab-a0bd-4769-93f9-39b35a7ea276"
        } ]
      }, {
        "detail": [ {
          "reference": "urn:uuid:b0abb26b-9cbc-4241-a995-4cfc793790ff"
        } ]
      }, {
        "detail": [ {
          "reference": "urn:uuid:6bba93fa-84bc-46b4-9eb4-3904e202955d"
        } ]
      }, {
        "detail": [ {
          "reference": "urn:uuid:07a4e0ab-7fdb-460a-86f0-d8aacb93dab5"
        } ]
      }, {
        "detail": [ {
          "reference": "urn:uuid:32357dff-1e2a-4271-aa89-5a377fe82236"
        } ]
      }, {
        "detail": [ {
          "reference": "urn:uuid:45c55632-c024-4f3a-9a04-11eee28b064f"
        } ]
      }, {
        "detail": [ {
          "reference": "urn:uuid:c72021e0-9324-4a75-abff-7ae6acd58d03"
        } ]
      }, {
        "detail": [ {
          "reference": "urn:uuid:5c9478d2-af93-4f73-ab51-1c93d8bd074e"
        } ]
      }, {
        "detail": [ {
          "reference": "urn:uuid:591ee827-334f-4883-83c4-bd3a804347b3"
        } ]
      }, {
        "detail": [ {
          "reference": "urn:uuid:328cd7e7-2dc1-4ad2-86b5-fbb23236dbd4"
        } ]
      }, {
        "detail": [ {
          "reference": "urn:uuid:3ebe7930-5b08-4bb8-9f7a-1b06fe57a404"
        } ]
      } ]
    }
  }, {
    "fullUrl": "urn:uuid:8ca29167-d068-4c51-9723-353bc79c61a0",
    "resource": {
      "resourceType": "QuestionnaireResponse",
      "id": "8ca29167-d068-4c51-9723-353bc79c61a0",
      "identifier": {
        "value": "1766759"
      },
      "questionnaire": {
        "reference": "urn:uuid:f24058fb-5a3c-432f-bdfb-1c31fe7a6c23"
      },
      "status": "completed",
      "subject": {
        "reference": "urn:uuid:b6750db2-6823-47e3-b310-b25deb260e6c"
      },
      "context": {
        "reference": "urn:uuid:706baa4d-9559-49a9-bfd8-cfe62f16ca2e"
      },
      "authored": "2021-08-03T13:07:14+00:00",
      "item": [ {
        "linkId": "Tx220109",
        "text": "What is the reason for the contact?",
        "answer": [ {
          "valueString": "an injury or other health problem"
        } ]
      } ]
    }
  }, {
    "fullUrl": "urn:uuid:f24058fb-5a3c-432f-bdfb-1c31fe7a6c23",
    "resource": {
      "resourceType": "Questionnaire",
      "id": "f24058fb-5a3c-432f-bdfb-1c31fe7a6c23",
      "identifier": [ {
        "value": "1766759"
      } ],
      "version": "2021-08-03T13:07:14.000Z",
      "status": "active",
      "experimental": false,
      "date": "2021-08-03T13:07:14+00:00",
      "publisher": "User ID: '922' User name: 'AndrewJ.Walford' User skill set: 'T4'",
      "lastReviewDate": "2021-08-03",
      "contact": [ {
        "telecom": [ {
          "system": "phone",
          "value": "07798501130"
        } ]
      } ],
      "subjectType": [ "Patient" ],
      "item": [ {
        "linkId": "1766759",
        "prefix": "5",
        "text": "What is the reason for the contact?",
        "type": "choice",
        "required": true,
        "repeats": false,
        "option": [ {
          "valueString": "an injury or other health problem, Selected: true"
        }, {
          "valueString": "a need to access another healthcare service, Selected: false"
        }, {
          "valueString": "a healthcare professional requesting contact with another clinician, Selected: false"
        }, {
          "valueString": "a report of results or tests, Selected: false"
        }, {
          "valueString": "more, Selected: false"
        } ]
      } ]
    }
  }, {
    "fullUrl": "urn:uuid:3afd0a2e-5fc8-4771-b758-3a4a84883a8e",
    "resource": {
      "resourceType": "QuestionnaireResponse",
      "id": "3afd0a2e-5fc8-4771-b758-3a4a84883a8e",
      "identifier": {
        "value": "1766759"
      },
      "questionnaire": {
        "reference": "urn:uuid:2e6c558d-6583-4464-9eab-12e6707054b5"
      },
      "status": "completed",
      "subject": {
        "reference": "urn:uuid:b6750db2-6823-47e3-b310-b25deb260e6c"
      },
      "context": {
        "reference": "urn:uuid:706baa4d-9559-49a9-bfd8-cfe62f16ca2e"
      },
      "authored": "2021-08-03T13:07:14+00:00",
      "item": [ {
        "linkId": "Tx221788",
        "text": "STRING:to'ImmediateThreatsToLife(SPA/OOHversion)'-'ABC'menu",
        "answer": [ {
          "valueString": "\"\"present\"\""
        } ]
      } ]
    }
  }, {
    "fullUrl": "urn:uuid:2e6c558d-6583-4464-9eab-12e6707054b5",
    "resource": {
      "resourceType": "Questionnaire",
      "id": "2e6c558d-6583-4464-9eab-12e6707054b5",
      "identifier": [ {
        "value": "1766759"
      } ],
      "version": "2021-08-03T13:07:14.000Z",
      "status": "active",
      "experimental": false,
      "date": "2021-08-03T13:07:14+00:00",
      "publisher": "User ID: '922' User name: 'AndrewJ.Walford' User skill set: 'T4'",
      "lastReviewDate": "2021-08-03",
      "contact": [ {
        "telecom": [ {
          "system": "phone",
          "value": "07798501130"
        } ]
      } ],
      "subjectType": [ "Patient" ],
      "item": [ {
        "linkId": "1766759",
        "prefix": "500",
        "text": "STRING:to'ImmediateThreatsToLife(SPA/OOHversion)'-'ABC'menu",
        "type": "choice",
        "required": true,
        "repeats": false,
        "option": [ {
          "valueString": "\"\"present\"\", Selected: true"
        } ]
      } ]
    }
  }, {
    "fullUrl": "urn:uuid:a78d0a9b-7c2b-4736-8544-12bd4578daa4",
    "resource": {
      "resourceType": "QuestionnaireResponse",
      "id": "a78d0a9b-7c2b-4736-8544-12bd4578daa4",
      "identifier": {
        "value": "1766759"
      },
      "questionnaire": {
        "reference": "urn:uuid:c19dcde6-8f33-452c-bab3-66fb27469940"
      },
      "status": "completed",
      "subject": {
        "reference": "urn:uuid:b6750db2-6823-47e3-b310-b25deb260e6c"
      },
      "context": {
        "reference": "urn:uuid:706baa4d-9559-49a9-bfd8-cfe62f16ca2e"
      },
      "authored": "2021-08-03T13:07:14+00:00",
      "item": [ {
        "linkId": "Tx221814",
        "text": "STRING:aninjuryorotherhealthproblemestablishedinEntryFlow",
        "answer": [ {
          "valueString": "\"\"present\"\""
        } ]
      } ]
    }
  }, {
    "fullUrl": "urn:uuid:c19dcde6-8f33-452c-bab3-66fb27469940",
    "resource": {
      "resourceType": "Questionnaire",
      "id": "c19dcde6-8f33-452c-bab3-66fb27469940",
      "identifier": [ {
        "value": "1766759"
      } ],
      "version": "2021-08-03T13:07:14.000Z",
      "status": "active",
      "experimental": false,
      "date": "2021-08-03T13:07:14+00:00",
      "publisher": "User ID: '922' User name: 'AndrewJ.Walford' User skill set: 'T4'",
      "lastReviewDate": "2021-08-03",
      "contact": [ {
        "telecom": [ {
          "system": "phone",
          "value": "07798501130"
        } ]
      } ],
      "subjectType": [ "Patient" ],
      "item": [ {
        "linkId": "1766759",
        "prefix": "0",
        "text": "STRING:aninjuryorotherhealthproblemestablishedinEntryFlow",
        "type": "choice",
        "required": true,
        "repeats": false,
        "option": [ {
          "valueString": "\"\"present\"\", Selected: true"
        } ]
      } ]
    }
  }, {
    "fullUrl": "urn:uuid:d3a3a503-02cf-4423-926a-325ab7d3d8e4",
    "resource": {
      "resourceType": "QuestionnaireResponse",
      "id": "d3a3a503-02cf-4423-926a-325ab7d3d8e4",
      "identifier": {
        "value": "1766759"
      },
      "questionnaire": {
        "reference": "urn:uuid:4e17a5f7-4cab-4494-b794-ef42f7e8986a"
      },
      "status": "completed",
      "subject": {
        "reference": "urn:uuid:b6750db2-6823-47e3-b310-b25deb260e6c"
      },
      "context": {
        "reference": "urn:uuid:706baa4d-9559-49a9-bfd8-cfe62f16ca2e"
      },
      "authored": "2021-08-03T13:07:14+00:00",
      "item": [ {
        "linkId": "Tx224120",
        "text": "Have you been bleeding RED BLOOD very heavily IN THE LAST 2 HOURS?",
        "answer": [ {
          "valueString": "no"
        } ]
      } ]
    }
  }, {
    "fullUrl": "urn:uuid:4e17a5f7-4cab-4494-b794-ef42f7e8986a",
    "resource": {
      "resourceType": "Questionnaire",
      "id": "4e17a5f7-4cab-4494-b794-ef42f7e8986a",
      "identifier": [ {
        "value": "1766759"
      } ],
      "version": "2021-08-03T13:07:14.000Z",
      "status": "active",
      "experimental": false,
      "date": "2021-08-03T13:07:14+00:00",
      "publisher": "User ID: '922' User name: 'AndrewJ.Walford' User skill set: 'T4'",
      "lastReviewDate": "2021-08-03",
      "contact": [ {
        "telecom": [ {
          "system": "phone",
          "value": "07798501130"
        } ]
      } ],
      "subjectType": [ "Patient" ],
      "item": [ {
        "linkId": "1766759",
        "prefix": "7000",
        "text": "Have you been bleeding RED BLOOD very heavily IN THE LAST 2 HOURS?",
        "type": "choice",
        "required": true,
        "repeats": false,
        "option": [ {
          "valueString": "yes, Selected: false"
        }, {
          "valueString": "not sure, Selected: false"
        }, {
          "valueString": "no, Selected: true"
        } ]
      } ]
    }
  }, {
    "fullUrl": "urn:uuid:3ffc1967-37f5-4f7e-bef0-47226e844f06",
    "resource": {
      "resourceType": "QuestionnaireResponse",
      "id": "3ffc1967-37f5-4f7e-bef0-47226e844f06",
      "identifier": {
        "value": "1766759"
      },
      "questionnaire": {
        "reference": "urn:uuid:a7b3dae4-935a-47b0-a97e-d256615c272a"
      },
      "status": "completed",
      "subject": {
        "reference": "urn:uuid:b6750db2-6823-47e3-b310-b25deb260e6c"
      },
      "context": {
        "reference": "urn:uuid:706baa4d-9559-49a9-bfd8-cfe62f16ca2e"
      },
      "authored": "2021-08-03T13:07:14+00:00",
      "item": [ {
        "linkId": "Tx221343",
        "text": "SocialConcernsExcluded",
        "answer": [ {
          "valueString": "*"
        } ]
      } ]
    }
  }, {
    "fullUrl": "urn:uuid:a7b3dae4-935a-47b0-a97e-d256615c272a",
    "resource": {
      "resourceType": "Questionnaire",
      "id": "a7b3dae4-935a-47b0-a97e-d256615c272a",
      "identifier": [ {
        "value": "1766759"
      } ],
      "version": "2021-08-03T13:07:14.000Z",
      "status": "active",
      "experimental": false,
      "date": "2021-08-03T13:07:14+00:00",
      "publisher": "User ID: '922' User name: 'AndrewJ.Walford' User skill set: 'T4'",
      "lastReviewDate": "2021-08-03",
      "contact": [ {
        "telecom": [ {
          "system": "phone",
          "value": "07798501130"
        } ]
      } ],
      "subjectType": [ "Patient" ],
      "item": [ {
        "linkId": "1766759",
        "prefix": "2700",
        "text": "SocialConcernsExcluded",
        "type": "choice",
        "required": true,
        "repeats": false,
        "option": [ {
          "valueString": "==\"\"present\"\", Selected: false"
        }, {
          "valueString": "*, Selected: true"
        } ]
      } ]
    }
  }, {
    "fullUrl": "urn:uuid:003b8240-38fe-4787-abee-c1282c5c6c55",
    "resource": {
      "resourceType": "QuestionnaireResponse",
      "id": "003b8240-38fe-4787-abee-c1282c5c6c55",
      "identifier": {
        "value": "1766759"
      },
      "questionnaire": {
        "reference": "urn:uuid:4a0881b1-318e-4a7c-a6db-2e16b3d8715d"
      },
      "status": "completed",
      "subject": {
        "reference": "urn:uuid:b6750db2-6823-47e3-b310-b25deb260e6c"
      },
      "context": {
        "reference": "urn:uuid:706baa4d-9559-49a9-bfd8-cfe62f16ca2e"
      },
      "authored": "2021-08-03T13:07:14+00:00",
      "item": [ {
        "linkId": "Tx130011",
        "text": "What is the main problem?",
        "answer": [ {
          "valueString": "illness or other health problem (specify)"
        } ]
      } ]
    }
  }, {
    "fullUrl": "urn:uuid:4a0881b1-318e-4a7c-a6db-2e16b3d8715d",
    "resource": {
      "resourceType": "Questionnaire",
      "id": "4a0881b1-318e-4a7c-a6db-2e16b3d8715d",
      "identifier": [ {
        "value": "1766759"
      } ],
      "version": "2021-08-03T13:07:14.000Z",
      "status": "active",
      "experimental": false,
      "date": "2021-08-03T13:07:14+00:00",
      "publisher": "User ID: '922' User name: 'AndrewJ.Walford' User skill set: 'T4'",
      "lastReviewDate": "2021-08-03",
      "contact": [ {
        "telecom": [ {
          "system": "phone",
          "value": "07798501130"
        } ]
      } ],
      "subjectType": [ "Patient" ],
      "item": [ {
        "linkId": "1766759",
        "prefix": "3400",
        "text": "What is the main problem?",
        "type": "choice",
        "required": true,
        "repeats": false,
        "option": [ {
          "valueString": "the individual has been told to follow a particular course of action (specify), Selected: false"
        }, {
          "valueString": "the individual is an identified frequent caller, Selected: false"
        }, {
          "valueString": "injury (specify), Selected: false"
        }, {
          "valueString": "illness or other health problem (specify), Selected: true"
        }, {
          "valueString": "child protection/vulnerable adult concern, Selected: false"
        }, {
          "valueString": "social or domestic emergency, Selected: false"
        }, {
          "valueString": "the environment potentially poses an immediate threat to life (specify), Selected: false"
        } ]
      } ]
    }
  }, {
    "fullUrl": "urn:uuid:ab048138-2091-4eaf-8f0f-f9ba9656a3d1",
    "resource": {
      "resourceType": "QuestionnaireResponse",
      "id": "ab048138-2091-4eaf-8f0f-f9ba9656a3d1",
      "identifier": {
        "value": "1766759"
      },
      "questionnaire": {
        "reference": "urn:uuid:db75e50b-00be-4fcc-82d8-fcced642d4ad"
      },
      "status": "completed",
      "subject": {
        "reference": "urn:uuid:b6750db2-6823-47e3-b310-b25deb260e6c"
      },
      "context": {
        "reference": "urn:uuid:706baa4d-9559-49a9-bfd8-cfe62f16ca2e"
      },
      "authored": "2021-08-03T13:07:14+00:00",
      "item": [ {
        "linkId": "Tx61025",
        "text": "Are you so breathless that speaking more than a few words is impossible?",
        "answer": [ {
          "valueString": "no"
        } ]
      } ]
    }
  }, {
    "fullUrl": "urn:uuid:db75e50b-00be-4fcc-82d8-fcced642d4ad",
    "resource": {
      "resourceType": "Questionnaire",
      "id": "db75e50b-00be-4fcc-82d8-fcced642d4ad",
      "identifier": [ {
        "value": "1766759"
      } ],
      "version": "2021-08-03T13:07:14.000Z",
      "status": "active",
      "experimental": false,
      "date": "2021-08-03T13:07:14+00:00",
      "publisher": "User ID: '922' User name: 'AndrewJ.Walford' User skill set: 'T4'",
      "lastReviewDate": "2021-08-03",
      "contact": [ {
        "telecom": [ {
          "system": "phone",
          "value": "07798501130"
        } ]
      } ],
      "subjectType": [ "Patient" ],
      "item": [ {
        "linkId": "1766759",
        "prefix": "0",
        "text": "Are you so breathless that speaking more than a few words is impossible?",
        "type": "choice",
        "required": true,
        "repeats": false,
        "option": [ {
          "valueString": "yes, Selected: false"
        }, {
          "valueString": "not sure, Selected: false"
        }, {
          "valueString": "no, Selected: true"
        } ]
      } ]
    }
  }, {
    "fullUrl": "urn:uuid:7dbc7325-0086-406d-b200-24a19d23f51d",
    "resource": {
      "resourceType": "QuestionnaireResponse",
      "id": "7dbc7325-0086-406d-b200-24a19d23f51d",
      "identifier": {
        "value": "1766759"
      },
      "questionnaire": {
        "reference": "urn:uuid:90e47291-7330-4018-92b9-5b9988187165"
      },
      "status": "completed",
      "subject": {
        "reference": "urn:uuid:b6750db2-6823-47e3-b310-b25deb260e6c"
      },
      "context": {
        "reference": "urn:uuid:706baa4d-9559-49a9-bfd8-cfe62f16ca2e"
      },
      "authored": "2021-08-03T13:07:14+00:00",
      "item": [ {
        "linkId": "Tx220845",
        "text": "SYSTEM_FLUPANDEMIC",
        "answer": [ {
          "valueString": "*"
        } ]
      } ]
    }
  }, {
    "fullUrl": "urn:uuid:90e47291-7330-4018-92b9-5b9988187165",
    "resource": {
      "resourceType": "Questionnaire",
      "id": "90e47291-7330-4018-92b9-5b9988187165",
      "identifier": [ {
        "value": "1766759"
      } ],
      "version": "2021-08-03T13:07:14.000Z",
      "status": "active",
      "experimental": false,
      "date": "2021-08-03T13:07:14+00:00",
      "publisher": "User ID: '922' User name: 'AndrewJ.Walford' User skill set: 'T4'",
      "lastReviewDate": "2021-08-03",
      "contact": [ {
        "telecom": [ {
          "system": "phone",
          "value": "07798501130"
        } ]
      } ],
      "subjectType": [ "Patient" ],
      "item": [ {
        "linkId": "1766759",
        "prefix": "100",
        "text": "SYSTEM_FLUPANDEMIC",
        "type": "choice",
        "required": true,
        "repeats": false,
        "option": [ {
          "valueString": "==\"\"pandemic\"\", Selected: false"
        }, {
          "valueString": "*, Selected: true"
        } ]
      } ]
    }
  }, {
    "fullUrl": "urn:uuid:d064295c-be70-41bf-930d-ae5caa98961e",
    "resource": {
      "resourceType": "QuestionnaireResponse",
      "id": "d064295c-be70-41bf-930d-ae5caa98961e",
      "identifier": {
        "value": "1766759"
      },
      "questionnaire": {
        "reference": "urn:uuid:fac46488-6b7a-42ab-81c9-059a484b8b79"
      },
      "status": "completed",
      "subject": {
        "reference": "urn:uuid:b6750db2-6823-47e3-b310-b25deb260e6c"
      },
      "context": {
        "reference": "urn:uuid:706baa4d-9559-49a9-bfd8-cfe62f16ca2e"
      },
      "authored": "2021-08-03T13:07:14+00:00",
      "item": [ {
        "linkId": "Tx223440",
        "text": "WHAT IS SAID TO BE THE MAIN REASON FOR THIS CONTACT?",
        "answer": [ {
          "valueString": "more"
        } ]
      } ]
    }
  }, {
    "fullUrl": "urn:uuid:fac46488-6b7a-42ab-81c9-059a484b8b79",
    "resource": {
      "resourceType": "Questionnaire",
      "id": "fac46488-6b7a-42ab-81c9-059a484b8b79",
      "identifier": [ {
        "value": "1766759"
      } ],
      "version": "2021-08-03T13:07:14.000Z",
      "status": "active",
      "experimental": false,
      "date": "2021-08-03T13:07:14+00:00",
      "publisher": "User ID: '922' User name: 'AndrewJ.Walford' User skill set: 'T4'",
      "lastReviewDate": "2021-08-03",
      "contact": [ {
        "telecom": [ {
          "system": "phone",
          "value": "07798501130"
        } ]
      } ],
      "subjectType": [ "Patient" ],
      "item": [ {
        "linkId": "1766759",
        "prefix": "5000",
        "text": "WHAT IS SAID TO BE THE MAIN REASON FOR THIS CONTACT?",
        "type": "choice",
        "required": true,
        "repeats": false,
        "option": [ {
          "valueString": "a probable allergic reaction now, Selected: false"
        }, {
          "valueString": "a probable heart attack, Selected: false"
        }, {
          "valueString": "chest or upper back pain, Selected: false"
        }, {
          "valueString": "a probable stroke or mini-stroke, Selected: false"
        }, {
          "valueString": "a probable fit or seizure within the last 12 hours, Selected: false"
        }, {
          "valueString": "a suicide attempt, Selected: false"
        }, {
          "valueString": "more, Selected: true"
        } ]
      } ]
    }
  }, {
    "fullUrl": "urn:uuid:09ef0ed6-b9cc-4f0b-a397-3a8c0a040298",
    "resource": {
      "resourceType": "QuestionnaireResponse",
      "id": "09ef0ed6-b9cc-4f0b-a397-3a8c0a040298",
      "identifier": {
        "value": "1766759"
      },
      "questionnaire": {
        "reference": "urn:uuid:d4fb09cc-c8a0-41a9-bffa-73c27c0fcfbe"
      },
      "status": "completed",
      "subject": {
        "reference": "urn:uuid:b6750db2-6823-47e3-b310-b25deb260e6c"
      },
      "context": {
        "reference": "urn:uuid:706baa4d-9559-49a9-bfd8-cfe62f16ca2e"
      },
      "authored": "2021-08-03T13:07:14+00:00",
      "item": [ {
        "linkId": "Tx220032",
        "text": "WHAT IS SAID TO BE THE MAIN REASON FOR THIS CONTACT?",
        "answer": [ {
          "valueString": "none of the above"
        } ]
      } ]
    }
  }, {
    "fullUrl": "urn:uuid:d4fb09cc-c8a0-41a9-bffa-73c27c0fcfbe",
    "resource": {
      "resourceType": "Questionnaire",
      "id": "d4fb09cc-c8a0-41a9-bffa-73c27c0fcfbe",
      "identifier": [ {
        "value": "1766759"
      } ],
      "version": "2021-08-03T13:07:14.000Z",
      "status": "active",
      "experimental": false,
      "date": "2021-08-03T13:07:14+00:00",
      "publisher": "User ID: '922' User name: 'AndrewJ.Walford' User skill set: 'T4'",
      "lastReviewDate": "2021-08-03",
      "contact": [ {
        "telecom": [ {
          "system": "phone",
          "value": "07798501130"
        } ]
      } ],
      "subjectType": [ "Patient" ],
      "item": [ {
        "linkId": "1766759",
        "prefix": "1900",
        "text": "WHAT IS SAID TO BE THE MAIN REASON FOR THIS CONTACT?",
        "type": "choice",
        "required": true,
        "repeats": false,
        "option": [ {
          "valueString": "new confusion now, Selected: false"
        }, {
          "valueString": "a diabetic hypo (low blood sugar) or a diabetic hyper (high blood sugar), Selected: false"
        }, {
          "valueString": "recovery from an ICD (implanted cardioverter defibrillator) shock, Selected: false"
        }, {
          "valueString": "none of the above, Selected: true"
        } ]
      } ]
    }
  }, {
    "fullUrl": "urn:uuid:1cdf70ab-a0bd-4769-93f9-39b35a7ea276",
    "resource": {
      "resourceType": "QuestionnaireResponse",
      "id": "1cdf70ab-a0bd-4769-93f9-39b35a7ea276",
      "identifier": {
        "value": "1766759"
      },
      "questionnaire": {
        "reference": "urn:uuid:f7098184-c063-4720-9f77-e87becfb594c"
      },
      "status": "completed",
      "subject": {
        "reference": "urn:uuid:b6750db2-6823-47e3-b310-b25deb260e6c"
      },
      "context": {
        "reference": "urn:uuid:706baa4d-9559-49a9-bfd8-cfe62f16ca2e"
      },
      "authored": "2021-08-03T13:07:14+00:00",
      "item": [ {
        "linkId": "Tx223142",
        "text": "Does the skin on the chest, back or abdomen feel a normal temperature?",
        "answer": [ {
          "valueString": "yes - normal, warm or hot"
        } ]
      } ]
    }
  }, {
    "fullUrl": "urn:uuid:f7098184-c063-4720-9f77-e87becfb594c",
    "resource": {
      "resourceType": "Questionnaire",
      "id": "f7098184-c063-4720-9f77-e87becfb594c",
      "identifier": [ {
        "value": "1766759"
      } ],
      "version": "2021-08-03T13:07:14.000Z",
      "status": "active",
      "experimental": false,
      "date": "2021-08-03T13:07:14+00:00",
      "publisher": "User ID: '922' User name: 'AndrewJ.Walford' User skill set: 'T4'",
      "lastReviewDate": "2021-08-03",
      "contact": [ {
        "telecom": [ {
          "system": "phone",
          "value": "07798501130"
        } ]
      } ],
      "subjectType": [ "Patient" ],
      "item": [ {
        "linkId": "1766759",
        "prefix": "4000",
        "text": "Does the skin on the chest, back or abdomen feel a normal temperature?",
        "type": "choice",
        "required": true,
        "repeats": false,
        "option": [ {
          "valueString": "yes - normal, warm or hot, Selected: true"
        }, {
          "valueString": "not sure, Selected: false"
        }, {
          "valueString": "no - cool OR cold, Selected: false"
        }, {
          "valueString": "not safe to touch, Selected: false"
        } ]
      } ]
    }
  }, {
    "fullUrl": "urn:uuid:b0abb26b-9cbc-4241-a995-4cfc793790ff",
    "resource": {
      "resourceType": "QuestionnaireResponse",
      "id": "b0abb26b-9cbc-4241-a995-4cfc793790ff",
      "identifier": {
        "value": "1766759"
      },
      "questionnaire": {
        "reference": "urn:uuid:953d351c-86bd-4ce3-b8d5-3f2d58290fc7"
      },
      "status": "completed",
      "subject": {
        "reference": "urn:uuid:b6750db2-6823-47e3-b310-b25deb260e6c"
      },
      "context": {
        "reference": "urn:uuid:706baa4d-9559-49a9-bfd8-cfe62f16ca2e"
      },
      "authored": "2021-08-03T13:07:14+00:00",
      "item": [ {
        "linkId": "Tx221724",
        "text": "STRING:ShockAsked",
        "answer": [ {
          "valueString": "\"\"present\"\""
        } ]
      } ]
    }
  }, {
    "fullUrl": "urn:uuid:953d351c-86bd-4ce3-b8d5-3f2d58290fc7",
    "resource": {
      "resourceType": "Questionnaire",
      "id": "953d351c-86bd-4ce3-b8d5-3f2d58290fc7",
      "identifier": [ {
        "value": "1766759"
      } ],
      "version": "2021-08-03T13:07:14.000Z",
      "status": "active",
      "experimental": false,
      "date": "2021-08-03T13:07:14+00:00",
      "publisher": "User ID: '922' User name: 'AndrewJ.Walford' User skill set: 'T4'",
      "lastReviewDate": "2021-08-03",
      "contact": [ {
        "telecom": [ {
          "system": "phone",
          "value": "07798501130"
        } ]
      } ],
      "subjectType": [ "Patient" ],
      "item": [ {
        "linkId": "1766759",
        "prefix": "3300",
        "text": "STRING:ShockAsked",
        "type": "choice",
        "required": true,
        "repeats": false,
        "option": [ {
          "valueString": "\"\"present\"\", Selected: true"
        } ]
      } ]
    }
  }, {
    "fullUrl": "urn:uuid:6bba93fa-84bc-46b4-9eb4-3904e202955d",
    "resource": {
      "resourceType": "QuestionnaireResponse",
      "id": "6bba93fa-84bc-46b4-9eb4-3904e202955d",
      "identifier": {
        "value": "1766759"
      },
      "questionnaire": {
        "reference": "urn:uuid:5f9cb2a0-802b-466e-80bd-9e01ff62c7db"
      },
      "status": "completed",
      "subject": {
        "reference": "urn:uuid:b6750db2-6823-47e3-b310-b25deb260e6c"
      },
      "context": {
        "reference": "urn:uuid:706baa4d-9559-49a9-bfd8-cfe62f16ca2e"
      },
      "authored": "2021-08-03T13:07:14+00:00"
    }
  }, {
    "fullUrl": "urn:uuid:5f9cb2a0-802b-466e-80bd-9e01ff62c7db",
    "resource": {
      "resourceType": "Questionnaire",
      "id": "5f9cb2a0-802b-466e-80bd-9e01ff62c7db",
      "identifier": [ {
        "value": "1766759"
      } ],
      "version": "2021-08-03T13:07:14.000Z",
      "status": "active",
      "experimental": false,
      "date": "2021-08-03T13:07:14+00:00",
      "publisher": "User ID: '922' User name: 'AndrewJ.Walford' User skill set: 'T4'",
      "lastReviewDate": "2021-08-03",
      "contact": [ {
        "telecom": [ {
          "system": "phone",
          "value": "07798501130"
        } ]
      } ],
      "subjectType": [ "Patient" ]
    }
  }, {
    "fullUrl": "urn:uuid:07a4e0ab-7fdb-460a-86f0-d8aacb93dab5",
    "resource": {
      "resourceType": "QuestionnaireResponse",
      "id": "07a4e0ab-7fdb-460a-86f0-d8aacb93dab5",
      "identifier": {
        "value": "1766759"
      },
      "questionnaire": {
        "reference": "urn:uuid:3b2be69e-6458-43f3-873b-ae09403f1215"
      },
      "status": "completed",
      "subject": {
        "reference": "urn:uuid:b6750db2-6823-47e3-b310-b25deb260e6c"
      },
      "context": {
        "reference": "urn:uuid:706baa4d-9559-49a9-bfd8-cfe62f16ca2e"
      },
      "authored": "2021-08-03T13:07:14+00:00",
      "item": [ {
        "linkId": "Tx222984",
        "text": "WHAT IS THE MAIN PROBLEM?",
        "answer": [ {
          "valueString": "more"
        } ]
      } ]
    }
  }, {
    "fullUrl": "urn:uuid:3b2be69e-6458-43f3-873b-ae09403f1215",
    "resource": {
      "resourceType": "Questionnaire",
      "id": "3b2be69e-6458-43f3-873b-ae09403f1215",
      "identifier": [ {
        "value": "1766759"
      } ],
      "version": "2021-08-03T13:07:14.000Z",
      "status": "active",
      "experimental": false,
      "date": "2021-08-03T13:07:14+00:00",
      "publisher": "User ID: '922' User name: 'AndrewJ.Walford' User skill set: 'T4'",
      "lastReviewDate": "2021-08-03",
      "contact": [ {
        "telecom": [ {
          "system": "phone",
          "value": "07798501130"
        } ]
      } ],
      "subjectType": [ "Patient" ],
      "item": [ {
        "linkId": "1766759",
        "prefix": "0",
        "text": "WHAT IS THE MAIN PROBLEM?",
        "type": "choice",
        "required": true,
        "repeats": false,
        "option": [ {
          "valueString": "a rash, Selected: false"
        }, {
          "valueString": "itch, Selected: false"
        }, {
          "valueString": "yellow skin, Selected: false"
        }, {
          "valueString": "skin lumps, Selected: false"
        }, {
          "valueString": "easy or unexplained bruising, Selected: false"
        }, {
          "valueString": "more, Selected: true"
        } ]
      } ]
    }
  }, {
    "fullUrl": "urn:uuid:32357dff-1e2a-4271-aa89-5a377fe82236",
    "resource": {
      "resourceType": "QuestionnaireResponse",
      "id": "32357dff-1e2a-4271-aa89-5a377fe82236",
      "identifier": {
        "value": "1766759"
      },
      "questionnaire": {
        "reference": "urn:uuid:c6a7fee7-0e4b-415c-ac27-6e33aab7e78b"
      },
      "status": "completed",
      "subject": {
        "reference": "urn:uuid:b6750db2-6823-47e3-b310-b25deb260e6c"
      },
      "context": {
        "reference": "urn:uuid:706baa4d-9559-49a9-bfd8-cfe62f16ca2e"
      },
      "authored": "2021-08-03T13:07:14+00:00",
      "item": [ {
        "linkId": "Tx222985",
        "text": "WHAT IS THE MAIN PROBLEM?",
        "answer": [ {
          "valueString": "declared head lice"
        } ]
      } ]
    }
  }, {
    "fullUrl": "urn:uuid:c6a7fee7-0e4b-415c-ac27-6e33aab7e78b",
    "resource": {
      "resourceType": "Questionnaire",
      "id": "c6a7fee7-0e4b-415c-ac27-6e33aab7e78b",
      "identifier": [ {
        "value": "1766759"
      } ],
      "version": "2021-08-03T13:07:14.000Z",
      "status": "active",
      "experimental": false,
      "date": "2021-08-03T13:07:14+00:00",
      "publisher": "User ID: '922' User name: 'AndrewJ.Walford' User skill set: 'T4'",
      "lastReviewDate": "2021-08-03",
      "contact": [ {
        "telecom": [ {
          "system": "phone",
          "value": "07798501130"
        } ]
      } ],
      "subjectType": [ "Patient" ],
      "item": [ {
        "linkId": "1766759",
        "prefix": "700",
        "text": "WHAT IS THE MAIN PROBLEM?",
        "type": "choice",
        "required": true,
        "repeats": false,
        "option": [ {
          "valueString": "declared head lice, Selected: true"
        }, {
          "valueString": "declared pubic lice, Selected: false"
        }, {
          "valueString": "declared scabies, Selected: false"
        }, {
          "valueString": "declared athlete's foot, Selected: false"
        }, {
          "valueString": "acne, spots or pimples, Selected: false"
        }, {
          "valueString": "more, Selected: false"
        } ]
      } ]
    }
  }, {
    "fullUrl": "urn:uuid:45c55632-c024-4f3a-9a04-11eee28b064f",
    "resource": {
      "resourceType": "QuestionnaireResponse",
      "id": "45c55632-c024-4f3a-9a04-11eee28b064f",
      "identifier": {
        "value": "1766759"
      },
      "questionnaire": {
        "reference": "urn:uuid:d1b51d5b-190b-4366-a0d9-8a773f916d89"
      },
      "status": "completed",
      "subject": {
        "reference": "urn:uuid:b6750db2-6823-47e3-b310-b25deb260e6c"
      },
      "context": {
        "reference": "urn:uuid:706baa4d-9559-49a9-bfd8-cfe62f16ca2e"
      },
      "authored": "2021-08-03T13:07:14+00:00",
      "item": [ {
        "linkId": "Tx220667",
        "text": "Have you been in contact with somebody with head lice or nits?",
        "answer": [ {
          "valueString": "yes"
        } ]
      } ]
    }
  }, {
    "fullUrl": "urn:uuid:d1b51d5b-190b-4366-a0d9-8a773f916d89",
    "resource": {
      "resourceType": "Questionnaire",
      "id": "d1b51d5b-190b-4366-a0d9-8a773f916d89",
      "identifier": [ {
        "value": "1766759"
      } ],
      "version": "2021-08-03T13:07:14.000Z",
      "status": "active",
      "experimental": false,
      "date": "2021-08-03T13:07:14+00:00",
      "publisher": "User ID: '922' User name: 'AndrewJ.Walford' User skill set: 'T4'",
      "lastReviewDate": "2021-08-03",
      "contact": [ {
        "telecom": [ {
          "system": "phone",
          "value": "07798501130"
        } ]
      } ],
      "subjectType": [ "Patient" ],
      "item": [ {
        "linkId": "1766759",
        "prefix": "0",
        "text": "Have you been in contact with somebody with head lice or nits?",
        "type": "choice",
        "required": true,
        "repeats": false,
        "option": [ {
          "valueString": "yes, Selected: true"
        }, {
          "valueString": "not sure, Selected: false"
        }, {
          "valueString": "no, Selected: false"
        } ]
      } ]
    }
  }, {
    "fullUrl": "urn:uuid:c72021e0-9324-4a75-abff-7ae6acd58d03",
    "resource": {
      "resourceType": "QuestionnaireResponse",
      "id": "c72021e0-9324-4a75-abff-7ae6acd58d03",
      "identifier": {
        "value": "1766759"
      },
      "questionnaire": {
        "reference": "urn:uuid:85394bd2-e74b-4708-ae44-1e462a6c6280"
      },
      "status": "completed",
      "subject": {
        "reference": "urn:uuid:b6750db2-6823-47e3-b310-b25deb260e6c"
      },
      "context": {
        "reference": "urn:uuid:706baa4d-9559-49a9-bfd8-cfe62f16ca2e"
      },
      "authored": "2021-08-03T13:07:14+00:00",
      "item": [ {
        "linkId": "Tx220664",
        "text": "Have you lost patches or clumps of hair OVER THE LAST FEW WEEKS?",
        "answer": [ {
          "valueString": "yes"
        } ]
      } ]
    }
  }, {
    "fullUrl": "urn:uuid:85394bd2-e74b-4708-ae44-1e462a6c6280",
    "resource": {
      "resourceType": "Questionnaire",
      "id": "85394bd2-e74b-4708-ae44-1e462a6c6280",
      "identifier": [ {
        "value": "1766759"
      } ],
      "version": "2021-08-03T13:07:14.000Z",
      "status": "active",
      "experimental": false,
      "date": "2021-08-03T13:07:14+00:00",
      "publisher": "User ID: '922' User name: 'AndrewJ.Walford' User skill set: 'T4'",
      "lastReviewDate": "2021-08-03",
      "contact": [ {
        "telecom": [ {
          "system": "phone",
          "value": "07798501130"
        } ]
      } ],
      "subjectType": [ "Patient" ],
      "item": [ {
        "linkId": "1766759",
        "prefix": "300",
        "text": "Have you lost patches or clumps of hair OVER THE LAST FEW WEEKS?",
        "type": "choice",
        "required": true,
        "repeats": false,
        "option": [ {
          "valueString": "yes, Selected: true"
        }, {
          "valueString": "not sure, Selected: false"
        }, {
          "valueString": "no, Selected: false"
        } ]
      } ]
    }
  }, {
    "fullUrl": "urn:uuid:5c9478d2-af93-4f73-ab51-1c93d8bd074e",
    "resource": {
      "resourceType": "QuestionnaireResponse",
      "id": "5c9478d2-af93-4f73-ab51-1c93d8bd074e",
      "identifier": {
        "value": "1766759"
      },
      "questionnaire": {
        "reference": "urn:uuid:06e4c81e-0aaa-4e61-b68f-397fad835c02"
      },
      "status": "completed",
      "subject": {
        "reference": "urn:uuid:b6750db2-6823-47e3-b310-b25deb260e6c"
      },
      "context": {
        "reference": "urn:uuid:706baa4d-9559-49a9-bfd8-cfe62f16ca2e"
      },
      "authored": "2021-08-03T13:07:14+00:00",
      "item": [ {
        "linkId": "Tx221449",
        "text": "STRING:SDPCFullPrimaryCareassessmentandprescribingcapability",
        "answer": [ {
          "valueString": "\"\"PC full Primary Care assessment and prescribing capability\"\""
        } ]
      } ]
    }
  }, {
    "fullUrl": "urn:uuid:06e4c81e-0aaa-4e61-b68f-397fad835c02",
    "resource": {
      "resourceType": "Questionnaire",
      "id": "06e4c81e-0aaa-4e61-b68f-397fad835c02",
      "identifier": [ {
        "value": "1766759"
      } ],
      "version": "2021-08-03T13:07:14.000Z",
      "status": "active",
      "experimental": false,
      "date": "2021-08-03T13:07:14+00:00",
      "publisher": "User ID: '922' User name: 'AndrewJ.Walford' User skill set: 'T4'",
      "lastReviewDate": "2021-08-03",
      "contact": [ {
        "telecom": [ {
          "system": "phone",
          "value": "07798501130"
        } ]
      } ],
      "subjectType": [ "Patient" ],
      "item": [ {
        "linkId": "1766759",
        "prefix": "500",
        "text": "STRING:SDPCFullPrimaryCareassessmentandprescribingcapability",
        "type": "choice",
        "required": true,
        "repeats": false,
        "option": [ {
          "valueString": "\"\"PC full Primary Care assessment and prescribing capability\"\", Selected: true"
        } ]
      } ]
    }
  }, {
    "fullUrl": "urn:uuid:591ee827-334f-4883-83c4-bd3a804347b3",
    "resource": {
      "resourceType": "QuestionnaireResponse",
      "id": "591ee827-334f-4883-83c4-bd3a804347b3",
      "identifier": {
        "value": "1766759"
      },
      "questionnaire": {
        "reference": "urn:uuid:e4adf926-3853-4b70-9f51-4f13f039885b"
      },
      "status": "completed",
      "subject": {
        "reference": "urn:uuid:b6750db2-6823-47e3-b310-b25deb260e6c"
      },
      "context": {
        "reference": "urn:uuid:706baa4d-9559-49a9-bfd8-cfe62f16ca2e"
      },
      "authored": "2021-08-03T13:07:14+00:00"
    }
  }, {
    "fullUrl": "urn:uuid:e4adf926-3853-4b70-9f51-4f13f039885b",
    "resource": {
      "resourceType": "Questionnaire",
      "id": "e4adf926-3853-4b70-9f51-4f13f039885b",
      "identifier": [ {
        "value": "1766759"
      } ],
      "version": "2021-08-03T13:07:14.000Z",
      "status": "active",
      "experimental": false,
      "date": "2021-08-03T13:07:14+00:00",
      "publisher": "User ID: '922' User name: 'AndrewJ.Walford' User skill set: 'T4'",
      "lastReviewDate": "2021-08-03",
      "contact": [ {
        "telecom": [ {
          "system": "phone",
          "value": "07798501130"
        } ]
      } ],
      "subjectType": [ "Patient" ]
    }
  }, {
    "fullUrl": "urn:uuid:328cd7e7-2dc1-4ad2-86b5-fbb23236dbd4",
    "resource": {
      "resourceType": "QuestionnaireResponse",
      "id": "328cd7e7-2dc1-4ad2-86b5-fbb23236dbd4",
      "identifier": {
        "value": "1766759"
      },
      "questionnaire": {
        "reference": "urn:uuid:1be58c59-9e49-47c1-8ed7-8eea1c9dad63"
      },
      "status": "completed",
      "subject": {
        "reference": "urn:uuid:b6750db2-6823-47e3-b310-b25deb260e6c"
      },
      "context": {
        "reference": "urn:uuid:706baa4d-9559-49a9-bfd8-cfe62f16ca2e"
      },
      "authored": "2021-08-03T13:07:14+00:00",
      "item": [ {
        "linkId": "N/A"
      } ]
    }
  }, {
    "fullUrl": "urn:uuid:1be58c59-9e49-47c1-8ed7-8eea1c9dad63",
    "resource": {
      "resourceType": "Questionnaire",
      "id": "1be58c59-9e49-47c1-8ed7-8eea1c9dad63",
      "identifier": [ {
        "value": "1766759"
      } ],
      "version": "2021-08-03T13:07:14.000Z",
      "status": "active",
      "experimental": false,
      "date": "2021-08-03T13:07:14+00:00",
      "publisher": "User ID: '922' User name: 'AndrewJ.Walford' User skill set: 'T4'",
      "lastReviewDate": "2021-08-03",
      "contact": [ {
        "telecom": [ {
          "system": "phone",
          "value": "07798501130"
        } ]
      } ],
      "subjectType": [ "Patient" ],
      "item": [ {
        "linkId": "1766759",
        "type": "choice",
        "required": true,
        "repeats": false,
        "option": [ {
          "valueString": ", Selected: false"
        } ]
      } ]
    }
  }, {
    "fullUrl": "urn:uuid:3ebe7930-5b08-4bb8-9f7a-1b06fe57a404",
    "resource": {
      "resourceType": "QuestionnaireResponse",
      "id": "3ebe7930-5b08-4bb8-9f7a-1b06fe57a404",
      "identifier": {
        "value": "1766759"
      },
      "questionnaire": {
        "reference": "urn:uuid:747c8826-bcfc-4a74-b161-afd2cc411102"
      },
      "status": "completed",
      "subject": {
        "reference": "urn:uuid:b6750db2-6823-47e3-b310-b25deb260e6c"
      },
      "context": {
        "reference": "urn:uuid:706baa4d-9559-49a9-bfd8-cfe62f16ca2e"
      },
      "authored": "2021-08-03T13:07:14+00:00"
    }
  }, {
    "fullUrl": "urn:uuid:747c8826-bcfc-4a74-b161-afd2cc411102",
    "resource": {
      "resourceType": "Questionnaire",
      "id": "747c8826-bcfc-4a74-b161-afd2cc411102",
      "identifier": [ {
        "value": "1766759"
      } ],
      "version": "2021-08-03T13:07:14.000Z",
      "status": "active",
      "experimental": false,
      "date": "2021-08-03T13:07:14+00:00",
      "publisher": "User ID: '922' User name: 'AndrewJ.Walford' User skill set: 'T4'",
      "lastReviewDate": "2021-08-03",
      "contact": [ {
        "telecom": [ {
          "system": "phone",
          "value": "07798501130"
        } ]
      } ],
      "subjectType": [ "Patient" ]
    }
  }, {
    "fullUrl": "urn:uuid:236c9633-81cd-45b9-b955-685df99e7aa6",
    "resource": {
      "resourceType": "Observation",
      "id": "236c9633-81cd-45b9-b955-685df99e7aa6",
      "status": "final",
      "code": {
        "coding": [ {
          "system": "http://snomed.info/sct",
          "code": "33962009",
          "display": "Presenting complaint"
        } ]
      },
      "subject": {
        "reference": "urn:uuid:b6750db2-6823-47e3-b310-b25deb260e6c"
      },
      "context": {
        "reference": "urn:uuid:706baa4d-9559-49a9-bfd8-cfe62f16ca2e"
      }
    }
  }, {
    "fullUrl": "urn:uuid:d9454138-6713-4926-ba69-8d62d832fb6b",
    "resource": {
      "resourceType": "PractitionerRole",
      "id": "d9454138-6713-4926-ba69-8d62d832fb6b",
      "practitioner": {
        "reference": "urn:uuid:e5755ac5-4ab5-483a-bae0-a136ec8c1f15"
      },
      "organization": {
        "reference": "urn:uuid:e96eb495-2faa-486a-b711-83fd36a92738"
      },
      "code": [ {
        "coding": [ {
          "system": "2.16.840.1.113883.2.1.3.2.4.17.339",
          "code": "NP",
          "display": "Nurse Practitioner"
        } ]
      } ]
    }
  }, {
    "fullUrl": "urn:uuid:e96eb495-2faa-486a-b711-83fd36a92738",
    "resource": {
      "resourceType": "Organization",
      "id": "e96eb495-2faa-486a-b711-83fd36a92738",
      "identifier": [ {
        "value": "RX7"
      } ],
      "name": "NWAS 111"
    }
  }, {
    "fullUrl": "urn:uuid:c8412421-a669-40fd-a045-ac9fdbbcfee7",
    "resource": {
      "resourceType": "RelatedPerson",
      "id": "c8412421-a669-40fd-a045-ac9fdbbcfee7",
      "patient": {
        "reference": "urn:uuid:b6750db2-6823-47e3-b310-b25deb260e6c"
      },
      "relationship": {
        "coding": [ {
          "system": "http://hl7.org/fhir/v2/0131",
          "code": "C",
          "display": "Emergency Contact"
        } ]
      },
      "telecom": [ {
        "system": "phone",
        "value": "tel:07798501130"
      } ]
    }
  }, {
    "fullUrl": "urn:uuid:4bc1c345-4490-4a75-9135-ae50f9de03a4",
    "resource": {
      "resourceType": "Device",
      "id": "4bc1c345-4490-4a75-9135-ae50f9de03a4",
      "model": "111 Adaptor",
      "version": "0.9.0"
    }
  }, {
    "fullUrl": "urn:uuid:61710c51-8603-466e-99e4-13cb1b3b2693",
    "resource": {
      "resourceType": "List",
      "id": "61710c51-8603-466e-99e4-13cb1b3b2693",
      "status": "current",
      "mode": "working",
      "title": "111 Report List",
      "code": {
        "coding": [ {
          "system": "http://snomed.info/sct",
          "code": "225390008",
          "display": "Triage"
        } ]
      },
      "subject": {
        "reference": "urn:uuid:b6750db2-6823-47e3-b310-b25deb260e6c"
      },
      "encounter": {
        "reference": "urn:uuid:706baa4d-9559-49a9-bfd8-cfe62f16ca2e"
      },
      "date": "2021-09-29T10:03:07+00:00",
      "source": {
        "reference": "urn:uuid:4bc1c345-4490-4a75-9135-ae50f9de03a4"
      },
      "orderedBy": {
        "coding": [ {
          "system": "http://hl7.org/fhir/list-order",
          "code": "event-date",
          "display": "Sorted by Event Date"
        } ]
      },
      "entry": [ {
        "item": {
          "reference": "urn:uuid:6fe813ca-3bcf-457a-9df3-6fbc6be81790"
        }
      }, {
        "item": {
          "reference": "urn:uuid:e96eb495-2faa-486a-b711-83fd36a92738"
        }
      }, {
        "item": {
          "reference": "urn:uuid:63ca7994-b81d-44aa-8ab3-6cc16c43b6b6"
        }
      }, {
        "item": {
          "reference": "urn:uuid:6997f913-6a38-4515-9344-d6f84130d7ee"
        }
      }, {
        "item": {
          "reference": "urn:uuid:c8412421-a669-40fd-a045-ac9fdbbcfee7"
        }
      }, {
        "item": {
          "reference": "urn:uuid:236c9633-81cd-45b9-b955-685df99e7aa6"
        }
      }, {
        "item": {
          "reference": "urn:uuid:ff05c48f-56b4-484e-af22-01b1bc25c357"
        }
      }, {
        "item": {
          "reference": "urn:uuid:e5755ac5-4ab5-483a-bae0-a136ec8c1f15"
        }
      }, {
        "item": {
          "reference": "urn:uuid:ae4b0da1-e847-4684-a5de-9eb50c53ae75"
        }
      }, {
        "item": {
          "reference": "urn:uuid:b160ec77-de73-4cfa-91c0-16138560b137"
        }
      }, {
        "item": {
          "reference": "urn:uuid:747c8826-bcfc-4a74-b161-afd2cc411102"
        }
      }, {
        "item": {
          "reference": "urn:uuid:b0abb26b-9cbc-4241-a995-4cfc793790ff"
        }
      }, {
        "item": {
          "reference": "urn:uuid:fac46488-6b7a-42ab-81c9-059a484b8b79"
        }
      }, {
        "item": {
          "reference": "urn:uuid:45c55632-c024-4f3a-9a04-11eee28b064f"
        }
      }, {
        "item": {
          "reference": "urn:uuid:4a0881b1-318e-4a7c-a6db-2e16b3d8715d"
        }
      }, {
        "item": {
          "reference": "urn:uuid:d4fb09cc-c8a0-41a9-bffa-73c27c0fcfbe"
        }
      }, {
        "item": {
          "reference": "urn:uuid:85394bd2-e74b-4708-ae44-1e462a6c6280"
        }
      }, {
        "item": {
          "reference": "urn:uuid:db75e50b-00be-4fcc-82d8-fcced642d4ad"
        }
      }, {
        "item": {
          "reference": "urn:uuid:f7098184-c063-4720-9f77-e87becfb594c"
        }
      }, {
        "item": {
          "reference": "urn:uuid:d064295c-be70-41bf-930d-ae5caa98961e"
        }
      }, {
        "item": {
          "reference": "urn:uuid:07a4e0ab-7fdb-460a-86f0-d8aacb93dab5"
        }
      }, {
        "item": {
          "reference": "urn:uuid:06e4c81e-0aaa-4e61-b68f-397fad835c02"
        }
      }, {
        "item": {
          "reference": "urn:uuid:d1b51d5b-190b-4366-a0d9-8a773f916d89"
        }
      }, {
        "item": {
          "reference": "urn:uuid:5c9478d2-af93-4f73-ab51-1c93d8bd074e"
        }
      }, {
        "item": {
          "reference": "urn:uuid:f24058fb-5a3c-432f-bdfb-1c31fe7a6c23"
        }
      }, {
        "item": {
          "reference": "urn:uuid:1cdf70ab-a0bd-4769-93f9-39b35a7ea276"
        }
      }, {
        "item": {
          "reference": "urn:uuid:8ca29167-d068-4c51-9723-353bc79c61a0"
        }
      }, {
        "item": {
          "reference": "urn:uuid:d3a3a503-02cf-4423-926a-325ab7d3d8e4"
        }
      }, {
        "item": {
          "reference": "urn:uuid:e4adf926-3853-4b70-9f51-4f13f039885b"
        }
      }, {
        "item": {
          "reference": "urn:uuid:3ebe7930-5b08-4bb8-9f7a-1b06fe57a404"
        }
      }, {
        "item": {
          "reference": "urn:uuid:003b8240-38fe-4787-abee-c1282c5c6c55"
        }
      }, {
        "item": {
          "reference": "urn:uuid:a7b3dae4-935a-47b0-a97e-d256615c272a"
        }
      }, {
        "item": {
          "reference": "urn:uuid:09ef0ed6-b9cc-4f0b-a397-3a8c0a040298"
        }
      }, {
        "item": {
          "reference": "urn:uuid:6bba93fa-84bc-46b4-9eb4-3904e202955d"
        }
      }, {
        "item": {
          "reference": "urn:uuid:90e47291-7330-4018-92b9-5b9988187165"
        }
      }, {
        "item": {
          "reference": "urn:uuid:7dbc7325-0086-406d-b200-24a19d23f51d"
        }
      }, {
        "item": {
          "reference": "urn:uuid:1be58c59-9e49-47c1-8ed7-8eea1c9dad63"
        }
      }, {
        "item": {
          "reference": "urn:uuid:953d351c-86bd-4ce3-b8d5-3f2d58290fc7"
        }
      }, {
        "item": {
          "reference": "urn:uuid:ab048138-2091-4eaf-8f0f-f9ba9656a3d1"
        }
      }, {
        "item": {
          "reference": "urn:uuid:c19dcde6-8f33-452c-bab3-66fb27469940"
        }
      }, {
        "item": {
          "reference": "urn:uuid:c6a7fee7-0e4b-415c-ac27-6e33aab7e78b"
        }
      }, {
        "item": {
          "reference": "urn:uuid:32357dff-1e2a-4271-aa89-5a377fe82236"
        }
      }, {
        "item": {
          "reference": "urn:uuid:4e17a5f7-4cab-4494-b794-ef42f7e8986a"
        }
      }, {
        "item": {
          "reference": "urn:uuid:c72021e0-9324-4a75-abff-7ae6acd58d03"
        }
      }, {
        "item": {
          "reference": "urn:uuid:3afd0a2e-5fc8-4771-b758-3a4a84883a8e"
        }
      }, {
        "item": {
          "reference": "urn:uuid:2e6c558d-6583-4464-9eab-12e6707054b5"
        }
      }, {
        "item": {
          "reference": "urn:uuid:a78d0a9b-7c2b-4736-8544-12bd4578daa4"
        }
      }, {
        "item": {
          "reference": "urn:uuid:591ee827-334f-4883-83c4-bd3a804347b3"
        }
      }, {
        "item": {
          "reference": "urn:uuid:3b2be69e-6458-43f3-873b-ae09403f1215"
        }
      }, {
        "item": {
          "reference": "urn:uuid:3ffc1967-37f5-4f7e-bef0-47226e844f06"
        }
      }, {
        "item": {
          "reference": "urn:uuid:328cd7e7-2dc1-4ad2-86b5-fbb23236dbd4"
        }
      }, {
        "item": {
          "reference": "urn:uuid:5f9cb2a0-802b-466e-80bd-9e01ff62c7db"
        }
      }, {
        "item": {
          "reference": "urn:uuid:ce0cf760-ff1a-4bc0-b604-da96db622731"
        }
      } ]
    }
  } ]
}