{
  "resourceType": "Bundle",
  "identifier": {
    "type": {
      "text": "ClinicalDocument VersionNumber"
    },
    "value": "1"
  },
  "type": "message",
  "entry": [ {
    "fullUrl": "urn:uuid:05040617-33BA-4344-AA59-281CF2FE63CA",
    "resource": {
      "resourceType": "MessageHeader",
      "id": "05040617-33BA-4344-AA59-281CF2FE63CA",
      "event": {
        "system": "https://fhir.nhs.uk/STU3/CodeSystem/EventType-1",
        "code": "referral-1",
        "display": "Referral"
      },
      "destination": [ {
        "endpoint": "urn:nhs-uk:addressing:ods:FHR04RPX:DOSServiceID:2000038667"
      } ],
      "timestamp": "2021-04-06T15:19:34.000+00:00",
      "source": {
        "name": "NHS 111 Adaptor",
        "endpoint": "http://localhost:8080/report"
      },
      "reason": {
        "coding": [ {
          "system": "urn:nhs-itk:ns:201005:interaction",
          "code": "urn:nhs-itk:interaction:primaryOutofHourRecipientNHS111CDADocument-v2-0"
        } ]
      }
    }
  }, {
    "fullUrl": "urn:uuid:b33f555e-e572-4066-8011-8cae91faac85",
    "resource": {
      "resourceType": "Encounter",
      "id": "b33f555e-e572-4066-8011-8cae91faac85",
      "identifier": [ {
        "system": "2.16.840.1.113883.2.1.3.2.4.18.34",
        "value": "AdastraCaseGUID34"
      }, {
        "system": "2.16.840.1.113883.2.1.3.2.4.18.35",
        "value": "AdastraCaseID35"
      }, {
        "system": "2.16.840.1.113883.2.1.3.2.4.18.49",
        "value": "AdastraCaseGUID49"
      } ],
      "status": "finished",
      "type": [ {
        "text": "111 Encounter Referral"
      } ],
      "subject": {
        "reference": "urn:uuid:5fc6e271-dc3d-447b-b6f8-1ffb639ae7f5"
      },
      "participant": [ {
        "type": [ {
          "coding": [ {
            "system": "http://hl7.org/fhir/ValueSet/encounter-participant-type",
            "code": "PPRF",
            "display": "Author"
          } ]
        } ],
        "individual": {
          "reference": "urn:uuid:dbe4dce6-72ed-4af4-be8e-b0eb58b3ce53"
        }
      }, {
        "type": [ {
          "text": "Informant"
        } ],
        "individual": {
          "reference": "urn:uuid:ee9fdcae-1986-432d-8dac-098e8a667a20"
        }
      }, {
        "type": [ {
          "coding": [ {
            "system": "http://hl7.org/fhir/ValueSet/encounter-participant-type",
            "code": "ATND",
            "display": "Responsible Party"
          } ]
        } ],
        "individual": {
          "reference": "urn:uuid:4428936c-b57d-41eb-9da0-e924cf52585a"
        }
      } ],
      "period": {
        "start": "2021-04-06T15:19:34+00:00"
      },
      "location": [ {
        "location": {
          "reference": "urn:uuid:36e3e5f4-7ad1-4688-a7d6-d240dd050e38"
        },
        "status": "completed"
      } ],
      "serviceProvider": {
        "reference": "urn:uuid:c94853a9-ae20-418d-99f4-0ac33e5dd96e"
      }
    }
  }, {
    "fullUrl": "urn:uuid:c94853a9-ae20-418d-99f4-0ac33e5dd96e",
    "resource": {
      "resourceType": "Organization",
      "id": "c94853a9-ae20-418d-99f4-0ac33e5dd96e",
      "active": true,
      "type": [ {
        "text": "CST"
      } ],
      "name": "CustodianName"
    }
  }, {
    "fullUrl": "urn:uuid:dbe4dce6-72ed-4af4-be8e-b0eb58b3ce53",
    "resource": {
      "resourceType": "Practitioner",
      "id": "dbe4dce6-72ed-4af4-be8e-b0eb58b3ce53",
      "active": true,
      "name": [ {
        "use": "official",
        "family": "AuthorAssignedPerson FamilyName",
        "given": [ "AuthorAssignedPerson GivenName" ]
      } ]
    }
  }, {
    "fullUrl": "urn:uuid:ee9fdcae-1986-432d-8dac-098e8a667a20",
    "resource": {
      "resourceType": "RelatedPerson",
      "id": "ee9fdcae-1986-432d-8dac-098e8a667a20",
      "active": true,
      "patient": {
        "reference": "urn:uuid:5fc6e271-dc3d-447b-b6f8-1ffb639ae7f5"
      },
      "relationship": {
        "coding": [ {
          "system": "2.16.840.1.113883.2.1.3.2.4.16.45",
          "code": "16",
          "display": "Relative"
        } ]
      },
      "name": [ {
        "text": "RelatedPerson Name"
      } ],
      "telecom": [ {
        "system": "phone",
        "value": "tel:01111111111",
        "use": "home"
      } ],
      "gender": "unknown"
    }
  }, {
    "fullUrl": "urn:uuid:4428936c-b57d-41eb-9da0-e924cf52585a",
    "resource": {
      "resourceType": "Practitioner",
      "id": "4428936c-b57d-41eb-9da0-e924cf52585a",
      "active": true,
      "name": [ {
        "use": "official",
        "family": "ResponsablePartyMD FamilyName",
        "given": [ "ResponsablePartyMD GivenName" ]
      } ]
    }
  }, {
    "fullUrl": "urn:uuid:36e3e5f4-7ad1-4688-a7d6-d240dd050e38",
    "resource": {
      "resourceType": "Location",
      "id": "36e3e5f4-7ad1-4688-a7d6-d240dd050e38",
      "name": "Incident Location",
      "address": {
        "type": "physical",
        "line": [ "HealthCareFacility AddressLine1", "HealthCareFacility AddressLine2", "HealthCareFacility AddressLine3", "HealthCareFacility AddressLine4", "HealthCareFacility AddressLine5" ],
        "postalCode": "LOH25 4NS"
      }
    }
  }, {
    "fullUrl": "urn:uuid:5fc6e271-dc3d-447b-b6f8-1ffb639ae7f5",
    "resource": {
      "resourceType": "Patient",
      "id": "5fc6e271-dc3d-447b-b6f8-1ffb639ae7f5",
      "active": true,
      "name": [ {
        "use": "official",
        "family": "Patient Family Name",
        "given": [ "Patient Given Name" ]
      } ],
      "telecom": [ {
        "system": "phone",
        "value": "tel:000000000000",
        "use": "home"
      }, {
        "system": "phone",
        "value": "tel:000000000000"
      } ],
      "gender": "other",
      "birthDate": "1990-02-02",
      "address": [ {
        "use": "home",
        "line": [ "Home Address Line 1", "Home Address Line 2", "Home Address Line 3", "Home Address Line 4", "Home Address Line 5" ],
        "postalCode": "HA25 4NS"
      }, {
        "type": "physical",
        "line": [ "Home Address Line 1", "Home Address Line 2", "Home Address Line 3", "Home Address Line 4", "Home Address Line 5" ],
        "postalCode": "PH25 4NS"
      } ]
    }
  }, {
    "fullUrl": "urn:uuid:557faee9-a6a6-4ebe-aa2a-56bddc190bf2",
    "resource": {
      "resourceType": "HealthcareService",
      "id": "557faee9-a6a6-4ebe-aa2a-56bddc190bf2",
      "active": true,
      "providedBy": {
        "reference": "urn:uuid:2b31622b-cf1f-4559-89a7-4a79df27d5d2"
      },
      "location": [ {
        "reference": "urn:uuid:a6efc568-84ec-45de-bb2f-680dc4835852"
      } ],
      "name": "InformationRecipient IntendedRecipient Name FHR0"
    }
  }, {
    "fullUrl": "urn:uuid:a6efc568-84ec-45de-bb2f-680dc4835852",
    "resource": {
      "resourceType": "Location",
      "id": "a6efc568-84ec-45de-bb2f-680dc4835852",
      "managingOrganization": {
        "reference": "urn:uuid:2b31622b-cf1f-4559-89a7-4a79df27d5d2"
      }
    }
  }, {
    "fullUrl": "urn:uuid:2b31622b-cf1f-4559-89a7-4a79df27d5d2",
    "resource": {
      "resourceType": "Organization",
      "id": "2b31622b-cf1f-4559-89a7-4a79df27d5d2",
      "identifier": [ {
        "value": "FHR04RPX"
      } ],
      "type": [ {
        "coding": [ {
          "code": "PRCP",
          "display": "InformationRecipient IntendedRecipient Name FHR0"
        } ]
      } ],
      "name": "InformationRecipient IntendedRecipient Name FHR0"
    }
  }, {
    "fullUrl": "urn:uuid:8a690bf0-b6ea-49fd-8e00-a75cc1c786d1",
    "resource": {
      "resourceType": "ReferralRequest",
      "id": "8a690bf0-b6ea-49fd-8e00-a75cc1c786d1",
      "status": "active",
      "intent": "plan",
      "priority": "routine",
      "subject": {
        "reference": "urn:uuid:5fc6e271-dc3d-447b-b6f8-1ffb639ae7f5"
      },
      "context": {
        "reference": "urn:uuid:b33f555e-e572-4066-8011-8cae91faac85"
      },
      "occurrencePeriod": {
        "start": "2021-09-29T10:03:09+00:00",
        "end": "2021-09-29T11:03:09+00:00"
      },
      "authoredOn": "2021-04-06T15:19:29+00:00",
      "requester": {
        "agent": {
          "reference": "urn:uuid:76180df1-2190-4082-ba08-6426ab540caa"
        },
        "onBehalfOf": {
          "reference": "urn:uuid:c94853a9-ae20-418d-99f4-0ac33e5dd96e"
        }
      },
      "recipient": [ {
        "reference": "urn:uuid:557faee9-a6a6-4ebe-aa2a-56bddc190bf2"
      } ],
      "reasonReference": [ {
        "reference": "urn:uuid:a295590d-9bf8-449c-b9b1-b526b7619cfe"
      } ],
      "supportingInfo": [ {
        "reference": "urn:uuid:fe2953a6-681b-4b3e-be2f-68b9f0f4661a"
      } ]
    }
  }, {
    "fullUrl": "urn:uuid:fe2953a6-681b-4b3e-be2f-68b9f0f4661a",
    "resource": {
      "resourceType": "ProcedureRequest",
      "id": "fe2953a6-681b-4b3e-be2f-68b9f0f4661a",
      "status": "active",
      "intent": "plan",
      "priority": "routine",
      "doNotPerform": false,
      "code": {
        "coding": [ {
          "system": "2.16.840.1.113883.2.1.3.2.4.17.325",
          "code": "DispoCodeDx87",
          "display": "DispoName - Repeat Prescription required within 24 hours"
        } ]
      },
      "subject": {
        "reference": "urn:uuid:5fc6e271-dc3d-447b-b6f8-1ffb639ae7f5"
      },
      "occurrencePeriod": {
        "start": "2021-09-29T10:03:09+00:00",
        "end": "2021-09-29T11:03:09+00:00"
      },
      "reasonReference": [ {
        "reference": "urn:uuid:a295590d-9bf8-449c-b9b1-b526b7619cfe"
      } ]
    }
  }, {
    "fullUrl": "urn:uuid:6d0b5b74-2ff7-41a6-a1ad-ce630c670308",
    "resource": {
      "resourceType": "Composition",
      "id": "6d0b5b74-2ff7-41a6-a1ad-ce630c670308",
      "identifier": {
        "use": "usual",
        "value": "E2DF04F7-95CA-40AD-808D-797C0A89E39C"
      },
      "status": "final",
      "type": {
        "coding": [ {
          "system": "http://snomed.info/sct",
          "code": "371531000",
          "display": "Report of clinical encounter (record artifact)"
        } ]
      },
      "subject": {
        "reference": "urn:uuid:5fc6e271-dc3d-447b-b6f8-1ffb639ae7f5"
      },
      "encounter": {
        "reference": "urn:uuid:b33f555e-e572-4066-8011-8cae91faac85"
      },
      "date": "2021-09-29T10:03:09+00:00",
      "author": [ {
        "reference": "urn:uuid:dbe4dce6-72ed-4af4-be8e-b0eb58b3ce53"
      } ],
      "title": "111 Report",
      "confidentiality": "N",
      "section": [ {
        "section": [ {
          "title": "ComponentTitle - Patient's Reported Condition",
          "text": {
            "status": "generated",
            "div": "<div xmlns=\"http://www.w3.org/1999/xhtml\">&lt;content&gt;ComponentText - Pharmacy ITK Testing&lt;/content&gt;\n                                                    &lt;br/&gt;</div>"
          }
        }, {
          "title": "ComponentTitle - Pathways Disposition",
          "text": {
            "status": "generated",
            "div": "<div xmlns=\"http://www.w3.org/1999/xhtml\">ComponentText - Repeat Prescription required within 24 hours (Dx87)                                         &lt;br/&gt;\n                                                    &lt;br/&gt;                                         Selected service: Springvale, Fraser Road, Kings Worthy, Winchester&lt;br/&gt;</div>"
          }
        }, {
          "title": "ComponentTitle - Consultation Summary",
          "text": {
            "status": "generated",
            "div": "<div xmlns=\"http://www.w3.org/1999/xhtml\">ComponentText - Prescription request&lt;br/&gt;Not enough medication until surgery opens&lt;br/&gt;No medication available&lt;br/&gt;Next dose due in over 12 hours time&lt;br/&gt;</div>"
          }
        }, {
          "title": "ComponentTitle - Pathways Assessment",
          "text": {
            "status": "generated",
            "div": "<div xmlns=\"http://www.w3.org/1999/xhtml\">ComponentText - Reason for call menu - continued to next list.&lt;br/&gt;A prescription request was the main reason for the contact.&lt;br/&gt;The main reason for the contact was not a new or worsening illness.&lt;br/&gt;The individual did not have enough medication to last until the surgery next opened.&lt;br/&gt;The medication was suitable for repeat prescribing without further consultation.&lt;br/&gt;The individual had no medication available.&lt;br/&gt;The next dose was due in over 12 hours time.&lt;br/&gt;Instructions given were: The individual needs a repeat prescription.&lt;br/&gt;Directory of Services referral: Springvale, Fraser Road, Kings Worthy, Winchester&lt;br/&gt;</div>"
          }
        }, {
          "title": "ComponentTitle - Advice Given",
          "text": {
            "status": "generated",
            "div": "<div xmlns=\"http://www.w3.org/1999/xhtml\">ComponentText - I will arrange for a clinician or pharmacist to speak to the individual.&lt;br/&gt;IF THE RECOMMENDED TIMEFRAME FALLS OUTSIDE OPENING HOURS: I will arrange for a clinician to speak to the individual.&lt;br/&gt;\n                                                    &lt;br/&gt;</div>"
          }
        }, {
          "title": "ComponentTitle - Information And Advice Given"
        }, {
          "title": "ComponentTitle - Disposition",
          "text": {
            "status": "generated",
            "div": "<div xmlns=\"http://www.w3.org/1999/xhtml\">&lt;content&gt;ComponentText - Repeat Prescription required within 24 hours&lt;br/&gt;\n                                                    &lt;/content&gt;\n                                                    &lt;br/&gt;\n                                                    &lt;br/&gt;</div>"
          }
        } ]
      }, {
        "title": "CarePlan",
        "entry": [ {
          "reference": "urn:uuid:241d0883-7f67-43bb-a308-124ca584fc1f"
        } ]
      }, {
        "title": "ReferralRequest",
        "entry": [ {
          "reference": "urn:uuid:8a690bf0-b6ea-49fd-8e00-a75cc1c786d1"
        } ]
      }, {
        "title": "QuestionnaireResponse",
        "entry": [ {
          "reference": "urn:uuid:a34325e3-1d9d-4ffc-8cc9-7b6686ed2c1d"
        } ]
      }, {
        "title": "QuestionnaireResponse",
        "entry": [ {
          "reference": "urn:uuid:4231ef7c-7966-4783-851b-14cc9d07238b"
        } ]
      }, {
        "title": "QuestionnaireResponse",
        "entry": [ {
          "reference": "urn:uuid:7b70a7a9-ff26-4c28-b759-7babe452ee48"
        } ]
      }, {
        "title": "QuestionnaireResponse",
        "entry": [ {
          "reference": "urn:uuid:2ba98065-008c-4d8f-8eff-3ef8cf181eac"
        } ]
      }, {
        "title": "QuestionnaireResponse",
        "entry": [ {
          "reference": "urn:uuid:588824ff-f8fb-4543-9355-a9bfde6eb006"
        } ]
      }, {
        "title": "QuestionnaireResponse",
        "entry": [ {
          "reference": "urn:uuid:91bd612b-0525-4b73-8c88-a960fe601ff2"
        } ]
      }, {
        "title": "QuestionnaireResponse",
        "entry": [ {
          "reference": "urn:uuid:7b3e76ce-9ab2-4399-b505-70dc1f7b9124"
        } ]
      }, {
        "title": "QuestionnaireResponse",
        "entry": [ {
          "reference": "urn:uuid:85b154a2-8a31-4f23-b3dd-bdb8e68d2f90"
        } ]
      }, {
        "title": "QuestionnaireResponse",
        "entry": [ {
          "reference": "urn:uuid:fbe8b7a0-7758-4ab0-941f-0486173e0bfa"
        } ]
      }, {
        "title": "QuestionnaireResponse",
        "entry": [ {
          "reference": "urn:uuid:5c7a2614-f02d-4a6f-add6-2f665ff9ab84"
        } ]
      }, {
        "title": "QuestionnaireResponse",
        "entry": [ {
          "reference": "urn:uuid:da7619ed-3198-4b4c-9b3d-bb65435ce792"
        } ]
      }, {
        "title": "QuestionnaireResponse",
        "entry": [ {
          "reference": "urn:uuid:a8683003-ad5d-49e8-a049-fb67d6d2ffa2"
        } ]
      }, {
        "title": "QuestionnaireResponse",
        "entry": [ {
          "reference": "urn:uuid:67ba1418-990e-4ed1-86b6-bb5f434b8ed6"
        } ]
      }, {
        "title": "QuestionnaireResponse",
        "entry": [ {
          "reference": "urn:uuid:f2fe86e9-a5d3-4a42-ba2b-d656c528739d"
        } ]
      }, {
        "title": "QuestionnaireResponse",
        "entry": [ {
          "reference": "urn:uuid:e13c8bf0-c9f7-4da3-8011-3209313ed228"
        } ]
      } ]
    }
  }, {
    "fullUrl": "urn:uuid:241d0883-7f67-43bb-a308-124ca584fc1f",
    "resource": {
      "resourceType": "CarePlan",
      "id": "241d0883-7f67-43bb-a308-124ca584fc1f",
      "status": "completed",
      "intent": "plan",
      "title": "ComponentTitle - Information And Advice Given",
      "subject": {
        "reference": "urn:uuid:5fc6e271-dc3d-447b-b6f8-1ffb639ae7f5"
      },
      "context": {
        "reference": "urn:uuid:b33f555e-e572-4066-8011-8cae91faac85"
      },
      "period": {
        "start": "2021-04-06T15:19:34+00:00"
      },
      "addresses": [ {
        "reference": "urn:uuid:a295590d-9bf8-449c-b9b1-b526b7619cfe"
      } ]
    }
  }, {
    "fullUrl": "urn:uuid:a74260cc-f6a2-4daf-b03d-9f0c8ff4727f",
    "resource": {
      "resourceType": "Consent",
      "id": "a74260cc-f6a2-4daf-b03d-9f0c8ff4727f",
      "identifier": {
        "use": "usual",
        "value": "E2DF04F7-95CA-40AD-808D-797C0A89E39C"
      },
      "status": "active",
      "patient": {
        "reference": "urn:uuid:5fc6e271-dc3d-447b-b6f8-1ffb639ae7f5"
      },
      "period": {
        "start": "2021-04-06T15:19:34+00:00"
      },
      "consentingParty": [ {
        "reference": "urn:uuid:5fc6e271-dc3d-447b-b6f8-1ffb639ae7f5"
      } ],
      "action": [ {
        "coding": [ {
          "system": "http://snomed.info/sct",
          "code": "425691002",
          "display": "Consent given for electronic record sharing"
        } ],
        "text": "Consent given for electronic record sharing"
      } ],
      "organization": [ {
        "reference": "urn:uuid:c94853a9-ae20-418d-99f4-0ac33e5dd96e"
      } ],
      "policyRule": "http://hl7.org/fhir/ConsentPolicy/opt-out",
      "data": [ {
        "meaning": "related",
        "reference": {
          "reference": "urn:uuid:b33f555e-e572-4066-8011-8cae91faac85"
        }
      } ]
    }
  }, {
    "fullUrl": "urn:uuid:a295590d-9bf8-449c-b9b1-b526b7619cfe",
    "resource": {
      "resourceType": "Condition",
      "id": "a295590d-9bf8-449c-b9b1-b526b7619cfe",
      "clinicalStatus": "active",
      "verificationStatus": "unknown",
      "subject": {
        "reference": "urn:uuid:5fc6e271-dc3d-447b-b6f8-1ffb639ae7f5"
      },
      "context": {
        "reference": "urn:uuid:b33f555e-e572-4066-8011-8cae91faac85"
      },
      "evidence": [ {
        "detail": [ {
          "reference": "urn:uuid:a34325e3-1d9d-4ffc-8cc9-7b6686ed2c1d"
        } ]
      }, {
        "detail": [ {
          "reference": "urn:uuid:4231ef7c-7966-4783-851b-14cc9d07238b"
        } ]
      }, {
        "detail": [ {
          "reference": "urn:uuid:7b70a7a9-ff26-4c28-b759-7babe452ee48"
        } ]
      }, {
        "detail": [ {
          "reference": "urn:uuid:2ba98065-008c-4d8f-8eff-3ef8cf181eac"
        } ]
      }, {
        "detail": [ {
          "reference": "urn:uuid:588824ff-f8fb-4543-9355-a9bfde6eb006"
        } ]
      }, {
        "detail": [ {
          "reference": "urn:uuid:91bd612b-0525-4b73-8c88-a960fe601ff2"
        } ]
      }, {
        "detail": [ {
          "reference": "urn:uuid:7b3e76ce-9ab2-4399-b505-70dc1f7b9124"
        } ]
      }, {
        "detail": [ {
          "reference": "urn:uuid:85b154a2-8a31-4f23-b3dd-bdb8e68d2f90"
        } ]
      }, {
        "detail": [ {
          "reference": "urn:uuid:fbe8b7a0-7758-4ab0-941f-0486173e0bfa"
        } ]
      }, {
        "detail": [ {
          "reference": "urn:uuid:5c7a2614-f02d-4a6f-add6-2f665ff9ab84"
        } ]
      }, {
        "detail": [ {
          "reference": "urn:uuid:da7619ed-3198-4b4c-9b3d-bb65435ce792"
        } ]
      }, {
        "detail": [ {
          "reference": "urn:uuid:a8683003-ad5d-49e8-a049-fb67d6d2ffa2"
        } ]
      }, {
        "detail": [ {
          "reference": "urn:uuid:67ba1418-990e-4ed1-86b6-bb5f434b8ed6"
        } ]
      }, {
        "detail": [ {
          "reference": "urn:uuid:f2fe86e9-a5d3-4a42-ba2b-d656c528739d"
        } ]
      }, {
        "detail": [ {
          "reference": "urn:uuid:e13c8bf0-c9f7-4da3-8011-3209313ed228"
        } ]
      } ]
    }
  }, {
    "fullUrl": "urn:uuid:a34325e3-1d9d-4ffc-8cc9-7b6686ed2c1d",
    "resource": {
      "resourceType": "QuestionnaireResponse",
      "id": "a34325e3-1d9d-4ffc-8cc9-7b6686ed2c1d",
      "identifier": {
        "value": "60319"
      },
      "questionnaire": {
        "reference": "urn:uuid:dd8b60ca-df6a-44d0-abcc-86a7bf5ecce6"
      },
      "status": "completed",
      "subject": {
        "reference": "urn:uuid:5fc6e271-dc3d-447b-b6f8-1ffb639ae7f5"
      },
      "context": {
        "reference": "urn:uuid:b33f555e-e572-4066-8011-8cae91faac85"
      },
      "authored": "2021-04-06T15:19:34+00:00",
      "item": [ {
        "linkId": "Tx220109",
        "text": "What is the reason for the contact?",
        "answer": [ {
          "valueString": "more"
        } ]
      } ]
    }
  }, {
    "fullUrl": "urn:uuid:dd8b60ca-df6a-44d0-abcc-86a7bf5ecce6",
    "resource": {
      "resourceType": "Questionnaire",
      "id": "dd8b60ca-df6a-44d0-abcc-86a7bf5ecce6",
      "identifier": [ {
        "value": "60319"
      } ],
      "version": "2021-04-06T15:19:34.083Z",
      "status": "active",
      "experimental": false,
      "date": "2021-04-06T15:19:34+00:00",
      "publisher": "User ID: 'HADFIELDR' User name: 'Ryan Hadfield' User skill set: 'T3'",
      "lastReviewDate": "2021-04-06",
      "contact": [ {
        "telecom": [ {
          "system": "phone",
          "value": "0111 111 1111"
        } ]
      } ],
      "subjectType": [ "Patient" ],
      "item": [ {
        "linkId": "60319",
        "prefix": "5",
        "text": "What is the reason for the contact?",
        "type": "choice",
        "required": true,
        "repeats": false,
        "option": [ {
          "valueString": "an injury or other health problem, Selected: false"
        }, {
          "valueString": "a need to access another healthcare service, Selected: false"
        }, {
          "valueString": "a healthcare professional requesting contact with another clinician, Selected: false"
        }, {
          "valueString": "a report of results or tests, Selected: false"
        }, {
          "valueString": "more, Selected: true"
        } ]
      } ]
    }
  }, {
    "fullUrl": "urn:uuid:4231ef7c-7966-4783-851b-14cc9d07238b",
    "resource": {
      "resourceType": "QuestionnaireResponse",
      "id": "4231ef7c-7966-4783-851b-14cc9d07238b",
      "identifier": {
        "value": "60319"
      },
      "questionnaire": {
        "reference": "urn:uuid:b5eb008f-abc0-43d3-b8be-44a0c65705ff"
      },
      "status": "completed",
      "subject": {
        "reference": "urn:uuid:5fc6e271-dc3d-447b-b6f8-1ffb639ae7f5"
      },
      "context": {
        "reference": "urn:uuid:b33f555e-e572-4066-8011-8cae91faac85"
      },
      "authored": "2021-04-06T15:19:34+00:00",
      "item": [ {
        "linkId": "Tx221793",
        "text": "STRING:to'Social&information'-further'Callreason'menu",
        "answer": [ {
          "valueString": "\"present\""
        } ]
      } ]
    }
  }, {
    "fullUrl": "urn:uuid:b5eb008f-abc0-43d3-b8be-44a0c65705ff",
    "resource": {
      "resourceType": "Questionnaire",
      "id": "b5eb008f-abc0-43d3-b8be-44a0c65705ff",
      "identifier": [ {
        "value": "60319"
      } ],
      "version": "2021-04-06T15:19:34.083Z",
      "status": "active",
      "experimental": false,
      "date": "2021-04-06T15:19:34+00:00",
      "publisher": "User ID: 'HADFIELDR' User name: 'Ryan Hadfield' User skill set: 'T3'",
      "lastReviewDate": "2021-04-06",
      "contact": [ {
        "telecom": [ {
          "system": "phone",
          "value": "0111 111 1111"
        } ]
      } ],
      "subjectType": [ "Patient" ],
      "item": [ {
        "linkId": "60319",
        "prefix": "600",
        "text": "STRING:to'Social&information'-further'Callreason'menu",
        "type": "choice",
        "required": true,
        "repeats": false,
        "option": [ {
          "valueString": "\"present\", Selected: true"
        } ]
      } ]
    }
  }, {
    "fullUrl": "urn:uuid:7b70a7a9-ff26-4c28-b759-7babe452ee48",
    "resource": {
      "resourceType": "QuestionnaireResponse",
      "id": "7b70a7a9-ff26-4c28-b759-7babe452ee48",
      "identifier": {
        "value": "60319"
      },
      "questionnaire": {
        "reference": "urn:uuid:ff025eb1-de32-46fd-8fbb-ca7c80f2df74"
      },
      "status": "completed",
      "subject": {
        "reference": "urn:uuid:5fc6e271-dc3d-447b-b6f8-1ffb639ae7f5"
      },
      "context": {
        "reference": "urn:uuid:b33f555e-e572-4066-8011-8cae91faac85"
      },
      "authored": "2021-04-06T15:19:34+00:00"
    }
  }, {
    "fullUrl": "urn:uuid:ff025eb1-de32-46fd-8fbb-ca7c80f2df74",
    "resource": {
      "resourceType": "Questionnaire",
      "id": "ff025eb1-de32-46fd-8fbb-ca7c80f2df74",
      "identifier": [ {
        "value": "60319"
      } ],
      "version": "2021-04-06T15:19:34.083Z",
      "status": "active",
      "experimental": false,
      "date": "2021-04-06T15:19:34+00:00",
      "publisher": "User ID: 'HADFIELDR' User name: 'Ryan Hadfield' User skill set: 'T3'",
      "lastReviewDate": "2021-04-06",
      "contact": [ {
        "telecom": [ {
          "system": "phone",
          "value": "0111 111 1111"
        } ]
      } ],
      "subjectType": [ "Patient" ]
    }
  }, {
    "fullUrl": "urn:uuid:2ba98065-008c-4d8f-8eff-3ef8cf181eac",
    "resource": {
      "resourceType": "QuestionnaireResponse",
      "id": "2ba98065-008c-4d8f-8eff-3ef8cf181eac",
      "identifier": {
        "value": "60319"
      },
      "questionnaire": {
        "reference": "urn:uuid:12ce952b-108e-4d47-b08f-35b27bb69648"
      },
      "status": "completed",
      "subject": {
        "reference": "urn:uuid:5fc6e271-dc3d-447b-b6f8-1ffb639ae7f5"
      },
      "context": {
        "reference": "urn:uuid:b33f555e-e572-4066-8011-8cae91faac85"
      },
      "authored": "2021-04-06T15:19:34+00:00",
      "item": [ {
        "linkId": "Tx221804",
        "text": "STRING:transfertofurthermenuquestionestablishedinEntryFlow",
        "answer": [ {
          "valueString": "\"present\""
        } ]
      } ]
    }
  }, {
    "fullUrl": "urn:uuid:12ce952b-108e-4d47-b08f-35b27bb69648",
    "resource": {
      "resourceType": "Questionnaire",
      "id": "12ce952b-108e-4d47-b08f-35b27bb69648",
      "identifier": [ {
        "value": "60319"
      } ],
      "version": "2021-04-06T15:19:34.083Z",
      "status": "active",
      "experimental": false,
      "date": "2021-04-06T15:19:34+00:00",
      "publisher": "User ID: 'HADFIELDR' User name: 'Ryan Hadfield' User skill set: 'T3'",
      "lastReviewDate": "2021-04-06",
      "contact": [ {
        "telecom": [ {
          "system": "phone",
          "value": "0111 111 1111"
        } ]
      } ],
      "subjectType": [ "Patient" ],
      "item": [ {
        "linkId": "60319",
        "prefix": "41",
        "text": "STRING:transfertofurthermenuquestionestablishedinEntryFlow",
        "type": "choice",
        "required": true,
        "repeats": false,
        "option": [ {
          "valueString": "\"present\", Selected: true"
        } ]
      } ]
    }
  }, {
    "fullUrl": "urn:uuid:588824ff-f8fb-4543-9355-a9bfde6eb006",
    "resource": {
      "resourceType": "QuestionnaireResponse",
      "id": "588824ff-f8fb-4543-9355-a9bfde6eb006",
      "identifier": {
        "value": "60319"
      },
      "questionnaire": {
        "reference": "urn:uuid:d3d48178-6c4f-48f4-a156-0bd682062a43"
      },
      "status": "completed",
      "subject": {
        "reference": "urn:uuid:5fc6e271-dc3d-447b-b6f8-1ffb639ae7f5"
      },
      "context": {
        "reference": "urn:uuid:b33f555e-e572-4066-8011-8cae91faac85"
      },
      "authored": "2021-04-06T15:19:34+00:00",
      "item": [ {
        "linkId": "Tx224998",
        "text": "SYSTEM_COVIDLEVEL2",
        "answer": [ {
          "valueString": "==\"covidlevel2\""
        } ]
      } ]
    }
  }, {
    "fullUrl": "urn:uuid:d3d48178-6c4f-48f4-a156-0bd682062a43",
    "resource": {
      "resourceType": "Questionnaire",
      "id": "d3d48178-6c4f-48f4-a156-0bd682062a43",
      "identifier": [ {
        "value": "60319"
      } ],
      "version": "2021-04-06T15:19:34.083Z",
      "status": "active",
      "experimental": false,
      "date": "2021-04-06T15:19:34+00:00",
      "publisher": "User ID: 'HADFIELDR' User name: 'Ryan Hadfield' User skill set: 'T3'",
      "lastReviewDate": "2021-04-06",
      "contact": [ {
        "telecom": [ {
          "system": "phone",
          "value": "0111 111 1111"
        } ]
      } ],
      "subjectType": [ "Patient" ],
      "item": [ {
        "linkId": "60319",
        "prefix": "5900",
        "text": "SYSTEM_COVIDLEVEL2",
        "type": "choice",
        "required": true,
        "repeats": false,
        "option": [ {
          "valueString": "==\"covidlevel2\", Selected: true"
        }, {
          "valueString": "*, Selected: false"
        } ]
      } ]
    }
  }, {
    "fullUrl": "urn:uuid:91bd612b-0525-4b73-8c88-a960fe601ff2",
    "resource": {
      "resourceType": "QuestionnaireResponse",
      "id": "91bd612b-0525-4b73-8c88-a960fe601ff2",
      "identifier": {
        "value": "60319"
      },
      "questionnaire": {
        "reference": "urn:uuid:067a4d69-c208-4db4-a998-b93d6095c1d5"
      },
      "status": "completed",
      "subject": {
        "reference": "urn:uuid:5fc6e271-dc3d-447b-b6f8-1ffb639ae7f5"
      },
      "context": {
        "reference": "urn:uuid:b33f555e-e572-4066-8011-8cae91faac85"
      },
      "authored": "2021-04-06T15:19:34+00:00",
      "item": [ {
        "linkId": "Tx225069",
        "text": "What is the reason for the contact?",
        "answer": [ {
          "valueString": "a prescription request"
        } ]
      } ]
    }
  }, {
    "fullUrl": "urn:uuid:067a4d69-c208-4db4-a998-b93d6095c1d5",
    "resource": {
      "resourceType": "Questionnaire",
      "id": "067a4d69-c208-4db4-a998-b93d6095c1d5",
      "identifier": [ {
        "value": "60319"
      } ],
      "version": "2021-04-06T15:19:34.083Z",
      "status": "active",
      "experimental": false,
      "date": "2021-04-06T15:19:34+00:00",
      "publisher": "User ID: 'HADFIELDR' User name: 'Ryan Hadfield' User skill set: 'T3'",
      "lastReviewDate": "2021-04-06",
      "contact": [ {
        "telecom": [ {
          "system": "phone",
          "value": "0111 111 1111"
        } ]
      } ],
      "subjectType": [ "Patient" ],
      "item": [ {
        "linkId": "60319",
        "prefix": "6000",
        "text": "What is the reason for the contact?",
        "type": "choice",
        "required": true,
        "repeats": false,
        "option": [ {
          "valueString": "a child protection/vulnerable adult concern (specify), Selected: false"
        }, {
          "valueString": "a social or domestic emergency, Selected: false"
        }, {
          "valueString": "a prescription request, Selected: true"
        }, {
          "valueString": "an appointment request, Selected: false"
        }, {
          "valueString": "a request for health or medication information, Selected: false"
        }, {
          "valueString": "public health alert information, Selected: false"
        } ]
      } ]
    }
  }, {
    "fullUrl": "urn:uuid:7b3e76ce-9ab2-4399-b505-70dc1f7b9124",
    "resource": {
      "resourceType": "QuestionnaireResponse",
      "id": "7b3e76ce-9ab2-4399-b505-70dc1f7b9124",
      "identifier": {
        "value": "60319"
      },
      "questionnaire": {
        "reference": "urn:uuid:07c01aee-94cb-46f0-bc84-9b00ea41c23a"
      },
      "status": "completed",
      "subject": {
        "reference": "urn:uuid:5fc6e271-dc3d-447b-b6f8-1ffb639ae7f5"
      },
      "context": {
        "reference": "urn:uuid:b33f555e-e572-4066-8011-8cae91faac85"
      },
      "authored": "2021-04-06T15:19:34+00:00",
      "item": [ {
        "linkId": "Tx220957",
        "text": "Is this contact about a new or worsening illness?",
        "answer": [ {
          "valueString": "no"
        } ]
      } ]
    }
  }, {
    "fullUrl": "urn:uuid:07c01aee-94cb-46f0-bc84-9b00ea41c23a",
    "resource": {
      "resourceType": "Questionnaire",
      "id": "07c01aee-94cb-46f0-bc84-9b00ea41c23a",
      "identifier": [ {
        "value": "60319"
      } ],
      "version": "2021-04-06T15:19:34.083Z",
      "status": "active",
      "experimental": false,
      "date": "2021-04-06T15:19:34+00:00",
      "publisher": "User ID: 'HADFIELDR' User name: 'Ryan Hadfield' User skill set: 'T3'",
      "lastReviewDate": "2021-04-06",
      "contact": [ {
        "telecom": [ {
          "system": "phone",
          "value": "0111 111 1111"
        } ]
      } ],
      "subjectType": [ "Patient" ],
      "item": [ {
        "linkId": "60319",
        "prefix": "1400",
        "text": "Is this contact about a new or worsening illness?",
        "type": "choice",
        "required": true,
        "repeats": false,
        "option": [ {
          "valueString": "yes, Selected: false"
        }, {
          "valueString": "not sure, Selected: false"
        }, {
          "valueString": "no, Selected: true"
        } ]
      } ]
    }
  }, {
    "fullUrl": "urn:uuid:85b154a2-8a31-4f23-b3dd-bdb8e68d2f90",
    "resource": {
      "resourceType": "QuestionnaireResponse",
      "id": "85b154a2-8a31-4f23-b3dd-bdb8e68d2f90",
      "identifier": {
        "value": "60319"
      },
      "questionnaire": {
        "reference": "urn:uuid:1f0e8123-cbae-4289-86ba-a34ecb327a47"
      },
      "status": "completed",
      "subject": {
        "reference": "urn:uuid:5fc6e271-dc3d-447b-b6f8-1ffb639ae7f5"
      },
      "context": {
        "reference": "urn:uuid:b33f555e-e572-4066-8011-8cae91faac85"
      },
      "authored": "2021-04-06T15:19:34+00:00",
      "item": [ {
        "linkId": "Tx221352",
        "text": "Have you got enough medication to last until the surgery opens?",
        "answer": [ {
          "valueString": "no"
        } ]
      } ]
    }
  }, {
    "fullUrl": "urn:uuid:1f0e8123-cbae-4289-86ba-a34ecb327a47",
    "resource": {
      "resourceType": "Questionnaire",
      "id": "1f0e8123-cbae-4289-86ba-a34ecb327a47",
      "identifier": [ {
        "value": "60319"
      } ],
      "version": "2021-04-06T15:19:34.083Z",
      "status": "active",
      "experimental": false,
      "date": "2021-04-06T15:19:34+00:00",
      "publisher": "User ID: 'HADFIELDR' User name: 'Ryan Hadfield' User skill set: 'T3'",
      "lastReviewDate": "2021-04-06",
      "contact": [ {
        "telecom": [ {
          "system": "phone",
          "value": "0111 111 1111"
        } ]
      } ],
      "subjectType": [ "Patient" ],
      "item": [ {
        "linkId": "60319",
        "prefix": "1500",
        "text": "Have you got enough medication to last until the surgery opens?",
        "type": "choice",
        "required": true,
        "repeats": false,
        "option": [ {
          "valueString": "yes, Selected: false"
        }, {
          "valueString": "not sure, Selected: false"
        }, {
          "valueString": "no, Selected: true"
        } ]
      } ]
    }
  }, {
    "fullUrl": "urn:uuid:fbe8b7a0-7758-4ab0-941f-0486173e0bfa",
    "resource": {
      "resourceType": "QuestionnaireResponse",
      "id": "fbe8b7a0-7758-4ab0-941f-0486173e0bfa",
      "identifier": {
        "value": "60319"
      },
      "questionnaire": {
        "reference": "urn:uuid:9b2487a7-2e98-40a7-b39f-df665e8e7202"
      },
      "status": "completed",
      "subject": {
        "reference": "urn:uuid:5fc6e271-dc3d-447b-b6f8-1ffb639ae7f5"
      },
      "context": {
        "reference": "urn:uuid:b33f555e-e572-4066-8011-8cae91faac85"
      },
      "authored": "2021-04-06T15:19:34+00:00"
    }
  }, {
    "fullUrl": "urn:uuid:9b2487a7-2e98-40a7-b39f-df665e8e7202",
    "resource": {
      "resourceType": "Questionnaire",
      "id": "9b2487a7-2e98-40a7-b39f-df665e8e7202",
      "identifier": [ {
        "value": "60319"
      } ],
      "version": "2021-04-06T15:19:34.083Z",
      "status": "active",
      "experimental": false,
      "date": "2021-04-06T15:19:34+00:00",
      "publisher": "User ID: 'HADFIELDR' User name: 'Ryan Hadfield' User skill set: 'T3'",
      "lastReviewDate": "2021-04-06",
      "contact": [ {
        "telecom": [ {
          "system": "phone",
          "value": "0111 111 1111"
        } ]
      } ],
      "subjectType": [ "Patient" ]
    }
  }, {
    "fullUrl": "urn:uuid:5c7a2614-f02d-4a6f-add6-2f665ff9ab84",
    "resource": {
      "resourceType": "QuestionnaireResponse",
      "id": "5c7a2614-f02d-4a6f-add6-2f665ff9ab84",
      "identifier": {
        "value": "60319"
      },
      "questionnaire": {
        "reference": "urn:uuid:db183cb1-df9c-4489-90af-13fdfc403164"
      },
      "status": "completed",
      "subject": {
        "reference": "urn:uuid:5fc6e271-dc3d-447b-b6f8-1ffb639ae7f5"
      },
      "context": {
        "reference": "urn:uuid:b33f555e-e572-4066-8011-8cae91faac85"
      },
      "authored": "2021-04-06T15:19:34+00:00",
      "item": [ {
        "linkId": "Tx224231",
        "text": "FROM WHAT YOU HAVE HEARD IS A CONSULTATION WITH A PRESCRIBER NEEDED?",
        "answer": [ {
          "valueString": "no"
        } ]
      } ]
    }
  }, {
    "fullUrl": "urn:uuid:db183cb1-df9c-4489-90af-13fdfc403164",
    "resource": {
      "resourceType": "Questionnaire",
      "id": "db183cb1-df9c-4489-90af-13fdfc403164",
      "identifier": [ {
        "value": "60319"
      } ],
      "version": "2021-04-06T15:19:34.083Z",
      "status": "active",
      "experimental": false,
      "date": "2021-04-06T15:19:34+00:00",
      "publisher": "User ID: 'HADFIELDR' User name: 'Ryan Hadfield' User skill set: 'T3'",
      "lastReviewDate": "2021-04-06",
      "contact": [ {
        "telecom": [ {
          "system": "phone",
          "value": "0111 111 1111"
        } ]
      } ],
      "subjectType": [ "Patient" ],
      "item": [ {
        "linkId": "60319",
        "prefix": "0",
        "text": "FROM WHAT YOU HAVE HEARD IS A CONSULTATION WITH A PRESCRIBER NEEDED?",
        "type": "choice",
        "required": true,
        "repeats": false,
        "option": [ {
          "valueString": "yes, Selected: false"
        }, {
          "valueString": "not sure, Selected: false"
        }, {
          "valueString": "no, Selected: true"
        } ]
      } ]
    }
  }, {
    "fullUrl": "urn:uuid:da7619ed-3198-4b4c-9b3d-bb65435ce792",
    "resource": {
      "resourceType": "QuestionnaireResponse",
      "id": "da7619ed-3198-4b4c-9b3d-bb65435ce792",
      "identifier": {
        "value": "60319"
      },
      "questionnaire": {
        "reference": "urn:uuid:3cb3f7cf-3211-47aa-8bf7-63b60e45520e"
      },
      "status": "completed",
      "subject": {
        "reference": "urn:uuid:5fc6e271-dc3d-447b-b6f8-1ffb639ae7f5"
      },
      "context": {
        "reference": "urn:uuid:b33f555e-e572-4066-8011-8cae91faac85"
      },
      "authored": "2021-04-06T15:19:34+00:00",
      "item": [ {
        "linkId": "Tx222687",
        "text": "Have you got any of the medication available at the moment?",
        "answer": [ {
          "valueString": "no"
        } ]
      } ]
    }
  }, {
    "fullUrl": "urn:uuid:3cb3f7cf-3211-47aa-8bf7-63b60e45520e",
    "resource": {
      "resourceType": "Questionnaire",
      "id": "3cb3f7cf-3211-47aa-8bf7-63b60e45520e",
      "identifier": [ {
        "value": "60319"
      } ],
      "version": "2021-04-06T15:19:34.083Z",
      "status": "active",
      "experimental": false,
      "date": "2021-04-06T15:19:34+00:00",
      "publisher": "User ID: 'HADFIELDR' User name: 'Ryan Hadfield' User skill set: 'T3'",
      "lastReviewDate": "2021-04-06",
      "contact": [ {
        "telecom": [ {
          "system": "phone",
          "value": "0111 111 1111"
        } ]
      } ],
      "subjectType": [ "Patient" ],
      "item": [ {
        "linkId": "60319",
        "prefix": "200",
        "text": "Have you got any of the medication available at the moment?",
        "type": "choice",
        "required": true,
        "repeats": false,
        "option": [ {
          "valueString": "yes, Selected: false"
        }, {
          "valueString": "not sure, Selected: false"
        }, {
          "valueString": "no, Selected: true"
        } ]
      } ]
    }
  }, {
    "fullUrl": "urn:uuid:a8683003-ad5d-49e8-a049-fb67d6d2ffa2",
    "resource": {
      "resourceType": "QuestionnaireResponse",
      "id": "a8683003-ad5d-49e8-a049-fb67d6d2ffa2",
      "identifier": {
        "value": "60319"
      },
      "questionnaire": {
        "reference": "urn:uuid:a60bb4f9-c235-4b56-a46f-ac5c5b8929cc"
      },
      "status": "completed",
      "subject": {
        "reference": "urn:uuid:5fc6e271-dc3d-447b-b6f8-1ffb639ae7f5"
      },
      "context": {
        "reference": "urn:uuid:b33f555e-e572-4066-8011-8cae91faac85"
      },
      "authored": "2021-04-06T15:19:34+00:00",
      "item": [ {
        "linkId": "Tx221367",
        "text": "When is the next dose due?",
        "answer": [ {
          "valueString": "over 12 hours time"
        } ]
      } ]
    }
  }, {
    "fullUrl": "urn:uuid:a60bb4f9-c235-4b56-a46f-ac5c5b8929cc",
    "resource": {
      "resourceType": "Questionnaire",
      "id": "a60bb4f9-c235-4b56-a46f-ac5c5b8929cc",
      "identifier": [ {
        "value": "60319"
      } ],
      "version": "2021-04-06T15:19:34.083Z",
      "status": "active",
      "experimental": false,
      "date": "2021-04-06T15:19:34+00:00",
      "publisher": "User ID: 'HADFIELDR' User name: 'Ryan Hadfield' User skill set: 'T3'",
      "lastReviewDate": "2021-04-06",
      "contact": [ {
        "telecom": [ {
          "system": "phone",
          "value": "0111 111 1111"
        } ]
      } ],
      "subjectType": [ "Patient" ],
      "item": [ {
        "linkId": "60319",
        "prefix": "100",
        "text": "When is the next dose due?",
        "type": "choice",
        "required": true,
        "repeats": false,
        "option": [ {
          "valueString": "within the next 2 hours, Selected: false"
        }, {
          "valueString": "within the next 6 hours, Selected: false"
        }, {
          "valueString": "within the next 12 hours, Selected: false"
        }, {
          "valueString": "over 12 hours time, Selected: true"
        }, {
          "valueString": "not sure, Selected: false"
        } ]
      } ]
    }
  }, {
    "fullUrl": "urn:uuid:67ba1418-990e-4ed1-86b6-bb5f434b8ed6",
    "resource": {
      "resourceType": "QuestionnaireResponse",
      "id": "67ba1418-990e-4ed1-86b6-bb5f434b8ed6",
      "identifier": {
        "value": "60319"
      },
      "questionnaire": {
        "reference": "urn:uuid:338ebd58-c4d2-41e9-907f-b023dcbc40c1"
      },
      "status": "completed",
      "subject": {
        "reference": "urn:uuid:5fc6e271-dc3d-447b-b6f8-1ffb639ae7f5"
      },
      "context": {
        "reference": "urn:uuid:b33f555e-e572-4066-8011-8cae91faac85"
      },
      "authored": "2021-04-06T15:19:34+00:00",
      "item": [ {
        "linkId": "Tx223441",
        "text": "STRING:SDPCRepeatPrescription",
        "answer": [ {
          "valueString": "\"PC repeat prescription\""
        } ]
      } ]
    }
  }, {
    "fullUrl": "urn:uuid:338ebd58-c4d2-41e9-907f-b023dcbc40c1",
    "resource": {
      "resourceType": "Questionnaire",
      "id": "338ebd58-c4d2-41e9-907f-b023dcbc40c1",
      "identifier": [ {
        "value": "60319"
      } ],
      "version": "2021-04-06T15:19:34.083Z",
      "status": "active",
      "experimental": false,
      "date": "2021-04-06T15:19:34+00:00",
      "publisher": "User ID: 'HADFIELDR' User name: 'Ryan Hadfield' User skill set: 'T3'",
      "lastReviewDate": "2021-04-06",
      "contact": [ {
        "telecom": [ {
          "system": "phone",
          "value": "0111 111 1111"
        } ]
      } ],
      "subjectType": [ "Patient" ],
      "item": [ {
        "linkId": "60319",
        "prefix": "1100",
        "text": "STRING:SDPCRepeatPrescription",
        "type": "choice",
        "required": true,
        "repeats": false,
        "option": [ {
          "valueString": "\"PC repeat prescription\", Selected: true"
        } ]
      } ]
    }
  }, {
    "fullUrl": "urn:uuid:f2fe86e9-a5d3-4a42-ba2b-d656c528739d",
    "resource": {
      "resourceType": "QuestionnaireResponse",
      "id": "f2fe86e9-a5d3-4a42-ba2b-d656c528739d",
      "identifier": {
        "value": "60319"
      },
      "questionnaire": {
        "reference": "urn:uuid:46dabfdd-cd8c-4f4e-a0c3-48ee5b9a13cf"
      },
      "status": "completed",
      "subject": {
        "reference": "urn:uuid:5fc6e271-dc3d-447b-b6f8-1ffb639ae7f5"
      },
      "context": {
        "reference": "urn:uuid:b33f555e-e572-4066-8011-8cae91faac85"
      },
      "authored": "2021-04-06T15:19:34+00:00"
    }
  }, {
    "fullUrl": "urn:uuid:46dabfdd-cd8c-4f4e-a0c3-48ee5b9a13cf",
    "resource": {
      "resourceType": "Questionnaire",
      "id": "46dabfdd-cd8c-4f4e-a0c3-48ee5b9a13cf",
      "identifier": [ {
        "value": "60319"
      } ],
      "version": "2021-04-06T15:19:34.083Z",
      "status": "active",
      "experimental": false,
      "date": "2021-04-06T15:19:34+00:00",
      "publisher": "User ID: 'HADFIELDR' User name: 'Ryan Hadfield' User skill set: 'T3'",
      "lastReviewDate": "2021-04-06",
      "contact": [ {
        "telecom": [ {
          "system": "phone",
          "value": "0111 111 1111"
        } ]
      } ],
      "subjectType": [ "Patient" ]
    }
  }, {
    "fullUrl": "urn:uuid:e13c8bf0-c9f7-4da3-8011-3209313ed228",
    "resource": {
      "resourceType": "QuestionnaireResponse",
      "id": "e13c8bf0-c9f7-4da3-8011-3209313ed228",
      "identifier": {
        "value": "60319"
      },
      "questionnaire": {
        "reference": "urn:uuid:cc9c50db-8444-4b88-b7e0-e85e4939e73c"
      },
      "status": "completed",
      "subject": {
        "reference": "urn:uuid:5fc6e271-dc3d-447b-b6f8-1ffb639ae7f5"
      },
      "context": {
        "reference": "urn:uuid:b33f555e-e572-4066-8011-8cae91faac85"
      },
      "authored": "2021-04-06T15:19:34+00:00"
    }
  }, {
    "fullUrl": "urn:uuid:cc9c50db-8444-4b88-b7e0-e85e4939e73c",
    "resource": {
      "resourceType": "Questionnaire",
      "id": "cc9c50db-8444-4b88-b7e0-e85e4939e73c",
      "identifier": [ {
        "value": "60319"
      } ],
      "version": "2021-04-06T15:19:34.083Z",
      "status": "active",
      "experimental": false,
      "date": "2021-04-06T15:19:34+00:00",
      "publisher": "User ID: 'HADFIELDR' User name: 'Ryan Hadfield' User skill set: 'T3'",
      "lastReviewDate": "2021-04-06",
      "contact": [ {
        "telecom": [ {
          "system": "phone",
          "value": "0111 111 1111"
        } ]
      } ],
      "subjectType": [ "Patient" ]
    }
  }, {
    "fullUrl": "urn:uuid:597d3e96-c345-4b63-bf03-1b67ddd0633b",
    "resource": {
      "resourceType": "PractitionerRole",
      "id": "597d3e96-c345-4b63-bf03-1b67ddd0633b",
      "practitioner": {
        "reference": "urn:uuid:dbe4dce6-72ed-4af4-be8e-b0eb58b3ce53"
      },
      "organization": {
        "reference": "urn:uuid:66310b60-d144-444f-beb1-e0b0e040feb1"
      },
      "code": [ {
        "coding": [ {
          "system": "2.16.840.1.113883.2.1.3.2.4.17.339",
          "code": "DOCTOR",
          "display": "Doctor"
        } ]
      } ]
    }
  }, {
    "fullUrl": "urn:uuid:66310b60-d144-444f-beb1-e0b0e040feb1",
    "resource": {
      "resourceType": "Organization",
      "id": "66310b60-d144-444f-beb1-e0b0e040feb1",
      "identifier": [ {
        "value": "RYE"
      } ],
      "name": "RepresentedOrg Name"
    }
  }, {
    "fullUrl": "urn:uuid:47e76d8e-571c-4cbf-a541-86c9e41f07e7",
    "resource": {
      "resourceType": "PractitionerRole",
      "id": "47e76d8e-571c-4cbf-a541-86c9e41f07e7",
      "practitioner": {
        "reference": "urn:uuid:4428936c-b57d-41eb-9da0-e924cf52585a"
      },
      "organization": {
        "reference": "urn:uuid:c57d9143-62c4-467a-85b2-47d80ce30fd8"
      },
      "code": [ {
        "coding": [ {
          "system": "2.16.840.1.113883.2.1.3.2.4.17.196",
          "code": "R0010",
          "display": "Medical Director"
        } ]
      } ]
    }
  }, {
    "fullUrl": "urn:uuid:c57d9143-62c4-467a-85b2-47d80ce30fd8",
    "resource": {
      "resourceType": "Organization",
      "id": "c57d9143-62c4-467a-85b2-47d80ce30fd8",
      "identifier": [ {
        "value": "RYE"
      } ],
      "name": "RepresentedOrgNameRYE"
    }
  }, {
    "fullUrl": "urn:uuid:c0cd8853-7e9b-4116-8561-bcb417ce7c76",
    "resource": {
      "resourceType": "RelatedPerson",
      "id": "c0cd8853-7e9b-4116-8561-bcb417ce7c76",
      "patient": {
        "reference": "urn:uuid:5fc6e271-dc3d-447b-b6f8-1ffb639ae7f5"
      },
      "relationship": {
        "coding": [ {
          "system": "http://hl7.org/fhir/v2/0131",
          "code": "C",
          "display": "Emergency Contact"
        } ]
      },
      "telecom": [ {
        "system": "phone",
        "value": "tel:000000000000"
      } ]
    }
  }, {
    "fullUrl": "urn:uuid:76180df1-2190-4082-ba08-6426ab540caa",
    "resource": {
      "resourceType": "Device",
      "id": "76180df1-2190-4082-ba08-6426ab540caa",
      "model": "111 Adaptor",
      "version": "0.9.0"
    }
  }, {
    "fullUrl": "urn:uuid:b97d5440-e36e-4023-b845-9a54cdfa431b",
    "resource": {
      "resourceType": "List",
      "id": "b97d5440-e36e-4023-b845-9a54cdfa431b",
      "status": "current",
      "mode": "working",
      "title": "111 Report List",
      "code": {
        "coding": [ {
          "system": "http://snomed.info/sct",
          "code": "225390008",
          "display": "Triage"
        } ]
      },
      "subject": {
        "reference": "urn:uuid:5fc6e271-dc3d-447b-b6f8-1ffb639ae7f5"
      },
      "encounter": {
        "reference": "urn:uuid:b33f555e-e572-4066-8011-8cae91faac85"
      },
      "date": "2021-09-29T10:03:09+00:00",
      "source": {
        "reference": "urn:uuid:76180df1-2190-4082-ba08-6426ab540caa"
      },
      "orderedBy": {
        "coding": [ {
          "system": "http://hl7.org/fhir/list-order",
          "code": "event-date",
          "display": "Sorted by Event Date"
        } ]
      },
      "entry": [ {
        "item": {
          "reference": "urn:uuid:66310b60-d144-444f-beb1-e0b0e040feb1"
        }
      }, {
        "item": {
          "reference": "urn:uuid:c0cd8853-7e9b-4116-8561-bcb417ce7c76"
        }
      }, {
        "item": {
          "reference": "urn:uuid:4428936c-b57d-41eb-9da0-e924cf52585a"
        }
      }, {
        "item": {
          "reference": "urn:uuid:c94853a9-ae20-418d-99f4-0ac33e5dd96e"
        }
      }, {
        "item": {
          "reference": "urn:uuid:dbe4dce6-72ed-4af4-be8e-b0eb58b3ce53"
        }
      }, {
        "item": {
          "reference": "urn:uuid:c57d9143-62c4-467a-85b2-47d80ce30fd8"
        }
      }, {
        "item": {
          "reference": "urn:uuid:a295590d-9bf8-449c-b9b1-b526b7619cfe"
        }
      }, {
        "item": {
          "reference": "urn:uuid:2b31622b-cf1f-4559-89a7-4a79df27d5d2"
        }
      }, {
        "item": {
          "reference": "urn:uuid:ee9fdcae-1986-432d-8dac-098e8a667a20"
        }
      }, {
        "item": {
          "reference": "urn:uuid:12ce952b-108e-4d47-b08f-35b27bb69648"
        }
      }, {
        "item": {
          "reference": "urn:uuid:46dabfdd-cd8c-4f4e-a0c3-48ee5b9a13cf"
        }
      }, {
        "item": {
          "reference": "urn:uuid:a8683003-ad5d-49e8-a049-fb67d6d2ffa2"
        }
      }, {
        "item": {
          "reference": "urn:uuid:5c7a2614-f02d-4a6f-add6-2f665ff9ab84"
        }
      }, {
        "item": {
          "reference": "urn:uuid:b5eb008f-abc0-43d3-b8be-44a0c65705ff"
        }
      }, {
        "item": {
          "reference": "urn:uuid:dd8b60ca-df6a-44d0-abcc-86a7bf5ecce6"
        }
      }, {
        "item": {
          "reference": "urn:uuid:db183cb1-df9c-4489-90af-13fdfc403164"
        }
      }, {
        "item": {
          "reference": "urn:uuid:a34325e3-1d9d-4ffc-8cc9-7b6686ed2c1d"
        }
      }, {
        "item": {
          "reference": "urn:uuid:cc9c50db-8444-4b88-b7e0-e85e4939e73c"
        }
      }, {
        "item": {
          "reference": "urn:uuid:588824ff-f8fb-4543-9355-a9bfde6eb006"
        }
      }, {
        "item": {
          "reference": "urn:uuid:3cb3f7cf-3211-47aa-8bf7-63b60e45520e"
        }
      }, {
        "item": {
          "reference": "urn:uuid:1f0e8123-cbae-4289-86ba-a34ecb327a47"
        }
      }, {
        "item": {
          "reference": "urn:uuid:85b154a2-8a31-4f23-b3dd-bdb8e68d2f90"
        }
      }, {
        "item": {
          "reference": "urn:uuid:a60bb4f9-c235-4b56-a46f-ac5c5b8929cc"
        }
      }, {
        "item": {
          "reference": "urn:uuid:07c01aee-94cb-46f0-bc84-9b00ea41c23a"
        }
      }, {
        "item": {
          "reference": "urn:uuid:91bd612b-0525-4b73-8c88-a960fe601ff2"
        }
      }, {
        "item": {
          "reference": "urn:uuid:4231ef7c-7966-4783-851b-14cc9d07238b"
        }
      }, {
        "item": {
          "reference": "urn:uuid:9b2487a7-2e98-40a7-b39f-df665e8e7202"
        }
      }, {
        "item": {
          "reference": "urn:uuid:2ba98065-008c-4d8f-8eff-3ef8cf181eac"
        }
      }, {
        "item": {
          "reference": "urn:uuid:067a4d69-c208-4db4-a998-b93d6095c1d5"
        }
      }, {
        "item": {
          "reference": "urn:uuid:7b70a7a9-ff26-4c28-b759-7babe452ee48"
        }
      }, {
        "item": {
          "reference": "urn:uuid:d3d48178-6c4f-48f4-a156-0bd682062a43"
        }
      }, {
        "item": {
          "reference": "urn:uuid:e13c8bf0-c9f7-4da3-8011-3209313ed228"
        }
      }, {
        "item": {
          "reference": "urn:uuid:338ebd58-c4d2-41e9-907f-b023dcbc40c1"
        }
      }, {
        "item": {
          "reference": "urn:uuid:7b3e76ce-9ab2-4399-b505-70dc1f7b9124"
        }
      }, {
        "item": {
          "reference": "urn:uuid:da7619ed-3198-4b4c-9b3d-bb65435ce792"
        }
      }, {
        "item": {
          "reference": "urn:uuid:67ba1418-990e-4ed1-86b6-bb5f434b8ed6"
        }
      }, {
        "item": {
          "reference": "urn:uuid:ff025eb1-de32-46fd-8fbb-ca7c80f2df74"
        }
      }, {
        "item": {
          "reference": "urn:uuid:f2fe86e9-a5d3-4a42-ba2b-d656c528739d"
        }
      }, {
        "item": {
          "reference": "urn:uuid:fbe8b7a0-7758-4ab0-941f-0486173e0bfa"
        }
      }, {
        "item": {
          "reference": "urn:uuid:8a690bf0-b6ea-49fd-8e00-a75cc1c786d1"
        }
      } ]
    }
  } ]
}