{
    "resourceType": "Bundle",
    "identifier": {
        "type": {
            "text": "ClinicalDocument VersionNumber"
        },
        "value": "1"
    },
    "type": "message",
    "entry": [
        {
            "fullUrl": "urn:uuid:05040617-33BA-4344-AA59-281CF2FE63CA",
            "resource": {
                "resourceType": "MessageHeader",
                "id": "05040617-33BA-4344-AA59-281CF2FE63CA",
                "event": {
                    "system": "https://fhir.nhs.uk/STU3/CodeSystem/EventType-1",
                    "code": "referral-1",
                    "display": "Referral"
                },
                "destination": [
                    {
                        "endpoint": "urn:nhs-uk:addressing:ods:FHR04RPX:DOSServiceID:2000038667"
                    }
                ],
                "timestamp": "2021-04-06T15:19:34.000+00:00",
                "source": {
                    "name": "NHS 111 Adaptor",
                    "endpoint": "http://localhost:8080/report"
                },
                "reason": {
                    "coding": [
                        {
                            "system": "urn:nhs-itk:ns:201005:interaction",
                            "code": "urn:nhs-itk:interaction:primaryOutofHourRecipientNHS111CDADocument-v2-0"
                        }
                    ]
                }
            }
        },
        {
            "fullUrl": "urn:uuid:f42be98e-1dfb-4ba6-8955-bbecfa97e224",
            "resource": {
                "resourceType": "Encounter",
                "id": "f42be98e-1dfb-4ba6-8955-bbecfa97e224",
                "identifier": [
                    {
                        "system": "2.16.840.1.113883.2.1.3.2.4.18.34",
                        "value": "AdastraCaseGUID34"
                    },
                    {
                        "system": "2.16.840.1.113883.2.1.3.2.4.18.35",
                        "value": "AdastraCaseID35"
                    },
                    {
                        "system": "2.16.840.1.113883.2.1.3.2.4.18.49",
                        "value": "AdastraCaseGUID49"
                    }
                ],
                "status": "finished",
                "type": [
                    {
                        "text": "111 Encounter Referral"
                    }
                ],
                "subject": {
                    "reference": "urn:uuid:22a3e1d1-d2b1-4334-8114-668ff2ba8582"
                },
                "participant": [
                    {
                        "type": [
                            {
                                "coding": [
                                    {
                                        "system": "http://hl7.org/fhir/ValueSet/encounter-participant-type",
                                        "code": "PPRF",
                                        "display": "Author"
                                    }
                                ]
                            }
                        ],
                        "individual": {
                            "reference": "urn:uuid:ae81bcae-1982-4efe-8522-0538fe25c974"
                        }
                    },
                    {
                        "type": [
                            {
                                "text": "Informant"
                            }
                        ],
                        "individual": {
                            "reference": "urn:uuid:89facf49-e46e-4914-bbce-e01148ce5cc5"
                        }
                    },
                    {
                        "type": [
                            {
                                "coding": [
                                    {
                                        "system": "http://hl7.org/fhir/ValueSet/encounter-participant-type",
                                        "code": "ATND",
                                        "display": "Responsible Party"
                                    }
                                ]
                            }
                        ],
                        "individual": {
                            "reference": "urn:uuid:69fa5dbc-94de-4d0f-8fa8-c9f7e0be945f"
                        }
                    }
                ],
                "period": {
                    "start": "2021-04-06T15:19:34+00:00"
                },
                "location": [
                    {
                        "location": {
                            "reference": "urn:uuid:51ff59f7-47b1-4183-8481-acf866a32719"
                        },
                        "status": "completed"
                    }
                ],
                "serviceProvider": {
                    "reference": "urn:uuid:a12e3154-0128-42e9-975f-65fa5edad37e"
                }
            }
        },
        {
            "fullUrl": "urn:uuid:a12e3154-0128-42e9-975f-65fa5edad37e",
            "resource": {
                "resourceType": "Organization",
                "id": "a12e3154-0128-42e9-975f-65fa5edad37e",
                "active": true,
                "type": [
                    {
                        "text": "CST"
                    }
                ],
                "name": "CustodianName"
            }
        },
        {
            "fullUrl": "urn:uuid:ae81bcae-1982-4efe-8522-0538fe25c974",
            "resource": {
                "resourceType": "Practitioner",
                "id": "ae81bcae-1982-4efe-8522-0538fe25c974",
                "active": true,
                "name": [
                    {
                        "use": "official",
                        "family": "AuthorAssignedPerson FamilyName",
                        "given": [
                            "AuthorAssignedPerson GivenName"
                        ]
                    }
                ]
            }
        },
        {
            "fullUrl": "urn:uuid:89facf49-e46e-4914-bbce-e01148ce5cc5",
            "resource": {
                "resourceType": "RelatedPerson",
                "id": "89facf49-e46e-4914-bbce-e01148ce5cc5",
                "active": true,
                "patient": {
                    "reference": "urn:uuid:22a3e1d1-d2b1-4334-8114-668ff2ba8582"
                },
                "relationship": {
                    "coding": [
                        {
                            "system": "2.16.840.1.113883.2.1.3.2.4.16.45",
                            "code": "16",
                            "display": "Relative"
                        }
                    ]
                },
                "name": [
                    {
                        "text": "RelatedPerson Name"
                    }
                ],
                "telecom": [
                    {
                        "system": "phone",
                        "value": "tel:01111111111",
                        "use": "home"
                    }
                ],
                "gender": "unknown"
            }
        },
        {
            "fullUrl": "urn:uuid:69fa5dbc-94de-4d0f-8fa8-c9f7e0be945f",
            "resource": {
                "resourceType": "Practitioner",
                "id": "69fa5dbc-94de-4d0f-8fa8-c9f7e0be945f",
                "active": true,
                "name": [
                    {
                        "use": "official",
                        "family": "ResponsablePartyMD FamilyName",
                        "given": [
                            "ResponsablePartyMD GivenName"
                        ]
                    }
                ]
            }
        },
        {
            "fullUrl": "urn:uuid:51ff59f7-47b1-4183-8481-acf866a32719",
            "resource": {
                "resourceType": "Location",
                "id": "51ff59f7-47b1-4183-8481-acf866a32719",
                "name": "Incident Location",
                "address": {
                    "type": "physical",
                    "line": [
                        "HealthCareFacility AddressLine1",
                        "HealthCareFacility AddressLine2",
                        "HealthCareFacility AddressLine3",
                        "HealthCareFacility AddressLine4",
                        "HealthCareFacility AddressLine5"
                    ],
                    "postalCode": "LOH25 4NS"
                }
            }
        },
        {
            "fullUrl": "urn:uuid:22a3e1d1-d2b1-4334-8114-668ff2ba8582",
            "resource": {
                "resourceType": "Patient",
                "id": "22a3e1d1-d2b1-4334-8114-668ff2ba8582",
                "active": true,
                "name": [
                    {
                        "use": "official",
                        "family": "Patient Family Name",
                        "given": [
                            "Patient Given Name"
                        ]
                    }
                ],
                "telecom": [
                    {
                        "system": "phone",
                        "value": "tel:000000000000",
                        "use": "home"
                    },
                    {
                        "system": "phone",
                        "value": "tel:000000000000"
                    }
                ],
                "gender": "other",
                "birthDate": "1990-02-02",
                "address": [
                    {
                        "use": "home",
                        "line": [
                            "Home Address Line 1",
                            "Home Address Line 2",
                            "Home Address Line 3",
                            "Home Address Line 4",
                            "Home Address Line 5"
                        ],
                        "postalCode": "HA25 4NS"
                    },
                    {
                        "type": "physical",
                        "line": [
                            "Home Address Line 1",
                            "Home Address Line 2",
                            "Home Address Line 3",
                            "Home Address Line 4",
                            "Home Address Line 5"
                        ],
                        "postalCode": "PH25 4NS"
                    }
                ]
            }
        },
        {
            "fullUrl": "urn:uuid:a4342e5b-41bd-4a5c-933f-35e11ea6eb2d",
            "resource": {
                "resourceType": "HealthcareService",
                "id": "a4342e5b-41bd-4a5c-933f-35e11ea6eb2d",
                "active": true,
                "providedBy": {
                    "reference": "urn:uuid:0f8acebf-e477-4285-8fdf-c41447c66b5c"
                },
                "location": [
                    {
                        "reference": "urn:uuid:da3d2fa3-e21c-4b87-9565-040cd1a43fa6"
                    }
                ],
                "name": "InformationRecipient IntendedRecipient Name FHR0"
            }
        },
        {
            "fullUrl": "urn:uuid:da3d2fa3-e21c-4b87-9565-040cd1a43fa6",
            "resource": {
                "resourceType": "Location",
                "id": "da3d2fa3-e21c-4b87-9565-040cd1a43fa6",
                "managingOrganization": {
                    "reference": "urn:uuid:0f8acebf-e477-4285-8fdf-c41447c66b5c"
                }
            }
        },
        {
            "fullUrl": "urn:uuid:0f8acebf-e477-4285-8fdf-c41447c66b5c",
            "resource": {
                "resourceType": "Organization",
                "id": "0f8acebf-e477-4285-8fdf-c41447c66b5c",
                "identifier": [
                    {
                        "value": "FHR04RPX"
                    }
                ],
                "type": [
                    {
                        "coding": [
                            {
                                "code": "PRCP",
                                "display": "InformationRecipient IntendedRecipient Name FHR0"
                            }
                        ]
                    }
                ],
                "name": "InformationRecipient IntendedRecipient Name FHR0"
            }
        },
        {
            "fullUrl": "urn:uuid:bb8672d7-465d-44ba-be09-05ec2d781213",
            "resource": {
                "resourceType": "ReferralRequest",
                "id": "bb8672d7-465d-44ba-be09-05ec2d781213",
                "status": "active",
                "intent": "plan",
                "priority": "routine",
                "subject": {
                    "reference": "urn:uuid:22a3e1d1-d2b1-4334-8114-668ff2ba8582"
                },
                "context": {
                    "reference": "urn:uuid:f42be98e-1dfb-4ba6-8955-bbecfa97e224"
                },
                "occurrencePeriod": {
                    "start": "2021-09-12T20:47:35+00:00",
                    "end": "2021-09-12T21:47:35+00:00"
                },
                "authoredOn": "2021-04-06T15:19:29+00:00",
                "requester": {
                    "agent": {
                        "reference": "urn:uuid:e790311e-a10c-4768-8e02-e4865a4f8187"
                    },
                    "onBehalfOf": {
                        "reference": "urn:uuid:a12e3154-0128-42e9-975f-65fa5edad37e"
                    }
                },
                "recipient": [
                    {
                        "reference": "urn:uuid:a4342e5b-41bd-4a5c-933f-35e11ea6eb2d"
                    }
                ],
                "reasonReference": [
                    {
                        "reference": "urn:uuid:884ae79d-cb05-4672-bb4d-790d515bb1cd"
                    }
                ],
                "supportingInfo": [
                    {
                        "reference": "urn:uuid:7e402d72-b06b-4588-bd41-802fc481edcc"
                    }
                ]
            }
        },
        {
            "fullUrl": "urn:uuid:7e402d72-b06b-4588-bd41-802fc481edcc",
            "resource": {
                "resourceType": "ProcedureRequest",
                "id": "7e402d72-b06b-4588-bd41-802fc481edcc",
                "status": "active",
                "intent": "plan",
                "priority": "routine",
                "doNotPerform": false,
                "code": {
                    "coding": [
                        {
                            "system": "2.16.840.1.113883.2.1.3.2.4.17.325",
                            "code": "DispoCodeDx87",
                            "display": "DispoName - Repeat Prescription required within 24 hours"
                        }
                    ]
                },
                "subject": {
                    "reference": "urn:uuid:22a3e1d1-d2b1-4334-8114-668ff2ba8582"
                },
                "occurrencePeriod": {
                    "start": "2021-09-12T20:47:35+00:00",
                    "end": "2021-09-12T21:47:35+00:00"
                },
                "reasonReference": [
                    {
                        "reference": "urn:uuid:884ae79d-cb05-4672-bb4d-790d515bb1cd"
                    }
                ]
            }
        },
        {
            "fullUrl": "urn:uuid:54237d4d-07c2-4d3a-9de8-8997f37c8672",
            "resource": {
                "resourceType": "Composition",
                "id": "54237d4d-07c2-4d3a-9de8-8997f37c8672",
                "identifier": {
                    "use": "usual",
                    "value": "E2DF04F7-95CA-40AD-808D-797C0A89E39C"
                },
                "status": "final",
                "type": {
                    "coding": [
                        {
                            "system": "http://snomed.info/sct",
                            "code": "371531000",
                            "display": "Report of clinical encounter (record artifact)"
                        }
                    ]
                },
                "subject": {
                    "reference": "urn:uuid:22a3e1d1-d2b1-4334-8114-668ff2ba8582"
                },
                "encounter": {
                    "reference": "urn:uuid:f42be98e-1dfb-4ba6-8955-bbecfa97e224"
                },
                "date": "2021-09-12T20:47:35+00:00",
                "author": [
                    {
                        "reference": "urn:uuid:ae81bcae-1982-4efe-8522-0538fe25c974"
                    }
                ],
                "title": "111 Report",
                "confidentiality": "N",
                "section": [
                    {
                        "section": [
                            {
                                "title": "ComponentTitle - Patient's Reported Condition",
                                "text": {
                                    "status": "generated",
                                    "div": "<div xmlns=\"http://www.w3.org/1999/xhtml\">&lt;xml-fragment xmlns:npfitlc=&quot;NPFIT:HL7:Localisation&quot; xmlns:xsi=&quot;http://www.w3.org/2001/XMLSchema-instance&quot;&gt;\n                                                    &lt;urn:content xmlns:urn=&quot;urn:hl7-org:v3&quot;&gt;ComponentText - Pharmacy ITK Testing&lt;/urn:content&gt;\n                                                    &lt;urn:br xmlns:urn=&quot;urn:hl7-org:v3&quot;/&gt;\n                                                &lt;/xml-fragment&gt;</div>"
                                }
                            },
                            {
                                "title": "ComponentTitle - Pathways Disposition",
                                "text": {
                                    "status": "generated",
                                    "div": "<div xmlns=\"http://www.w3.org/1999/xhtml\">&lt;xml-fragment xmlns:xsi=&quot;http://www.w3.org/2001/XMLSchema-instance&quot;&gt;ComponentText - Repeat Prescription required within 24 hours (Dx87)                                         &lt;urn:br xmlns:urn=&quot;urn:hl7-org:v3&quot;/&gt;\n                                                    &lt;urn:br xmlns:urn=&quot;urn:hl7-org:v3&quot;/&gt;                                         Selected service: Springvale, Fraser Road, Kings Worthy, Winchester&lt;urn:br xmlns:urn=&quot;urn:hl7-org:v3&quot;/&gt;\n                                                &lt;/xml-fragment&gt;</div>"
                                }
                            },
                            {
                                "title": "ComponentTitle - Consultation Summary",
                                "text": {
                                    "status": "generated",
                                    "div": "<div xmlns=\"http://www.w3.org/1999/xhtml\">&lt;xml-fragment xmlns:xsi=&quot;http://www.w3.org/2001/XMLSchema-instance&quot;&gt;ComponentText - Prescription request&lt;urn:br xmlns:urn=&quot;urn:hl7-org:v3&quot;/&gt;Not enough medication until surgery opens&lt;urn:br xmlns:urn=&quot;urn:hl7-org:v3&quot;/&gt;No medication available&lt;urn:br xmlns:urn=&quot;urn:hl7-org:v3&quot;/&gt;Next dose due in over 12 hours time&lt;urn:br xmlns:urn=&quot;urn:hl7-org:v3&quot;/&gt;\n                                                &lt;/xml-fragment&gt;</div>"
                                }
                            },
                            {
                                "title": "ComponentTitle - Pathways Assessment",
                                "text": {
                                    "status": "generated",
                                    "div": "<div xmlns=\"http://www.w3.org/1999/xhtml\">&lt;xml-fragment xmlns:xsi=&quot;http://www.w3.org/2001/XMLSchema-instance&quot;&gt;ComponentText - Reason for call menu - continued to next list.&lt;urn:br xmlns:urn=&quot;urn:hl7-org:v3&quot;/&gt;A prescription request was the main reason for the contact.&lt;urn:br xmlns:urn=&quot;urn:hl7-org:v3&quot;/&gt;The main reason for the contact was not a new or worsening illness.&lt;urn:br xmlns:urn=&quot;urn:hl7-org:v3&quot;/&gt;The individual did not have enough medication to last until the surgery next opened.&lt;urn:br xmlns:urn=&quot;urn:hl7-org:v3&quot;/&gt;The medication was suitable for repeat prescribing without further consultation.&lt;urn:br xmlns:urn=&quot;urn:hl7-org:v3&quot;/&gt;The individual had no medication available.&lt;urn:br xmlns:urn=&quot;urn:hl7-org:v3&quot;/&gt;The next dose was due in over 12 hours time.&lt;urn:br xmlns:urn=&quot;urn:hl7-org:v3&quot;/&gt;Instructions given were: The individual needs a repeat prescription.&lt;urn:br xmlns:urn=&quot;urn:hl7-org:v3&quot;/&gt;Directory of Services referral: Springvale, Fraser Road, Kings Worthy, Winchester&lt;urn:br xmlns:urn=&quot;urn:hl7-org:v3&quot;/&gt;\n                                                &lt;/xml-fragment&gt;</div>"
                                }
                            },
                            {
                                "title": "ComponentTitle - Advice Given",
                                "text": {
                                    "status": "generated",
                                    "div": "<div xmlns=\"http://www.w3.org/1999/xhtml\">&lt;xml-fragment xmlns:xsi=&quot;http://www.w3.org/2001/XMLSchema-instance&quot;&gt;ComponentText - I will arrange for a clinician or pharmacist to speak to the individual.&lt;urn:br xmlns:urn=&quot;urn:hl7-org:v3&quot;/&gt;IF THE RECOMMENDED TIMEFRAME FALLS OUTSIDE OPENING HOURS: I will arrange for a clinician to speak to the individual.&lt;urn:br xmlns:urn=&quot;urn:hl7-org:v3&quot;/&gt;\n                                                    &lt;urn:br xmlns:urn=&quot;urn:hl7-org:v3&quot;/&gt;\n                                                &lt;/xml-fragment&gt;</div>"
                                }
                            },
                            {
                                "title": "ComponentTitle - Information And Advice Given",
                                "text": {
                                    "status": "generated",
                                    "div": "<div xmlns=\"http://www.w3.org/1999/xhtml\">&lt;xml-fragment xmlns:npfitlc=&quot;NPFIT:HL7:Localisation&quot; xmlns:xsi=&quot;http://www.w3.org/2001/XMLSchema-instance&quot;/&gt;</div>"
                                }
                            },
                            {
                                "title": "ComponentTitle - Disposition",
                                "text": {
                                    "status": "generated",
                                    "div": "<div xmlns=\"http://www.w3.org/1999/xhtml\">&lt;xml-fragment xmlns:npfitlc=&quot;NPFIT:HL7:Localisation&quot; xmlns:xsi=&quot;http://www.w3.org/2001/XMLSchema-instance&quot;&gt;\n                                                    &lt;urn:content xmlns:urn=&quot;urn:hl7-org:v3&quot;&gt;ComponentText - Repeat Prescription required within 24 hours&lt;urn:br/&gt;\n                                                    &lt;/urn:content&gt;\n                                                    &lt;urn:br xmlns:urn=&quot;urn:hl7-org:v3&quot;/&gt;\n                                                    &lt;urn:br xmlns:urn=&quot;urn:hl7-org:v3&quot;/&gt;\n                                                &lt;/xml-fragment&gt;</div>"
                                }
                            }
                        ]
                    },
                    {
                        "title": "CarePlan",
                        "entry": [
                            {
                                "reference": "urn:uuid:1d1d39c9-12e4-4382-a2c2-032df0d1f5cf"
                            }
                        ]
                    },
                    {
                        "title": "ReferralRequest",
                        "entry": [
                            {
                                "reference": "urn:uuid:bb8672d7-465d-44ba-be09-05ec2d781213"
                            }
                        ]
                    },
                    {
                        "title": "QuestionnaireResponse",
                        "entry": [
                            {
                                "reference": "urn:uuid:1fc31af8-d530-4e78-a9d6-6f1e2df226ee"
                            }
                        ]
                    },
                    {
                        "title": "QuestionnaireResponse",
                        "entry": [
                            {
                                "reference": "urn:uuid:7186d454-1a7b-46bf-ad8e-30b3a496f6e1"
                            }
                        ]
                    },
                    {
                        "title": "QuestionnaireResponse",
                        "entry": [
                            {
                                "reference": "urn:uuid:bb66fe36-216f-48da-863a-65073c564031"
                            }
                        ]
                    },
                    {
                        "title": "QuestionnaireResponse",
                        "entry": [
                            {
                                "reference": "urn:uuid:ffcb94ed-7ba3-45e5-a25e-d9af99525367"
                            }
                        ]
                    },
                    {
                        "title": "QuestionnaireResponse",
                        "entry": [
                            {
                                "reference": "urn:uuid:f89d17f3-fb9b-49a6-b23a-d4f3ed36ad1a"
                            }
                        ]
                    },
                    {
                        "title": "QuestionnaireResponse",
                        "entry": [
                            {
                                "reference": "urn:uuid:cf7b23e6-9244-4fa5-a721-928fc42f0f66"
                            }
                        ]
                    },
                    {
                        "title": "QuestionnaireResponse",
                        "entry": [
                            {
                                "reference": "urn:uuid:c05163b8-9573-493a-b409-99b74aaf980f"
                            }
                        ]
                    },
                    {
                        "title": "QuestionnaireResponse",
                        "entry": [
                            {
                                "reference": "urn:uuid:aa593808-834a-402d-860d-1c0e773ee8d3"
                            }
                        ]
                    },
                    {
                        "title": "QuestionnaireResponse",
                        "entry": [
                            {
                                "reference": "urn:uuid:2296d771-bbc0-4663-820f-628c601b5e6d"
                            }
                        ]
                    },
                    {
                        "title": "QuestionnaireResponse",
                        "entry": [
                            {
                                "reference": "urn:uuid:427b3441-7d07-409c-9626-afc3d52fd336"
                            }
                        ]
                    },
                    {
                        "title": "QuestionnaireResponse",
                        "entry": [
                            {
                                "reference": "urn:uuid:72384e4d-8298-41df-9965-f08566b1a0d8"
                            }
                        ]
                    },
                    {
                        "title": "QuestionnaireResponse",
                        "entry": [
                            {
                                "reference": "urn:uuid:768b879a-0869-4360-a95f-861d3a87a6bb"
                            }
                        ]
                    },
                    {
                        "title": "QuestionnaireResponse",
                        "entry": [
                            {
                                "reference": "urn:uuid:d052ed28-47e0-42c8-a5e7-0b24e6622d6a"
                            }
                        ]
                    },
                    {
                        "title": "QuestionnaireResponse",
                        "entry": [
                            {
                                "reference": "urn:uuid:1eb011b4-9c86-4e78-beef-8a483e3d8bea"
                            }
                        ]
                    },
                    {
                        "title": "QuestionnaireResponse",
                        "entry": [
                            {
                                "reference": "urn:uuid:45d9d112-cc83-49b8-aba2-41a6980779dd"
                            }
                        ]
                    }
                ]
            }
        },
        {
            "fullUrl": "urn:uuid:1d1d39c9-12e4-4382-a2c2-032df0d1f5cf",
            "resource": {
                "resourceType": "CarePlan",
                "id": "1d1d39c9-12e4-4382-a2c2-032df0d1f5cf",
                "status": "completed",
                "intent": "plan",
                "title": "ComponentTitle - Information And Advice Given",
                "subject": {
                    "reference": "urn:uuid:22a3e1d1-d2b1-4334-8114-668ff2ba8582"
                },
                "context": {
                    "reference": "urn:uuid:f42be98e-1dfb-4ba6-8955-bbecfa97e224"
                },
                "period": {
                    "start": "2021-04-06T15:19:34+00:00"
                },
                "addresses": [
                    {
                        "reference": "urn:uuid:884ae79d-cb05-4672-bb4d-790d515bb1cd"
                    }
                ]
            }
        },
        {
            "fullUrl": "urn:uuid:b28c74fb-19a7-484e-bdd3-cb28b642f100",
            "resource": {
                "resourceType": "Consent",
                "id": "b28c74fb-19a7-484e-bdd3-cb28b642f100",
                "identifier": {
                    "use": "usual",
                    "value": "E2DF04F7-95CA-40AD-808D-797C0A89E39C"
                },
                "status": "active",
                "patient": {
                    "reference": "urn:uuid:22a3e1d1-d2b1-4334-8114-668ff2ba8582"
                },
                "period": {
                    "start": "2021-04-06T15:19:34+00:00"
                },
                "consentingParty": [
                    {
                        "reference": "urn:uuid:22a3e1d1-d2b1-4334-8114-668ff2ba8582"
                    }
                ],
                "action": [
                    {
                        "coding": [
                            {
                                "system": "http://snomed.info/sct",
                                "code": "425691002",
                                "display": "Consent given for electronic record sharing"
                            }
                        ],
                        "text": "Consent given for electronic record sharing"
                    }
                ],
                "organization": [
                    {
                        "reference": "urn:uuid:a12e3154-0128-42e9-975f-65fa5edad37e"
                    }
                ],
                "policyRule": "http://hl7.org/fhir/ConsentPolicy/opt-out",
                "data": [
                    {
                        "meaning": "related",
                        "reference": {
                            "reference": "urn:uuid:f42be98e-1dfb-4ba6-8955-bbecfa97e224"
                        }
                    }
                ]
            }
        },
        {
            "fullUrl": "urn:uuid:884ae79d-cb05-4672-bb4d-790d515bb1cd",
            "resource": {
                "resourceType": "Condition",
                "id": "884ae79d-cb05-4672-bb4d-790d515bb1cd",
                "clinicalStatus": "active",
                "verificationStatus": "unknown",
                "subject": {
                    "reference": "urn:uuid:22a3e1d1-d2b1-4334-8114-668ff2ba8582"
                },
                "context": {
                    "reference": "urn:uuid:f42be98e-1dfb-4ba6-8955-bbecfa97e224"
                },
                "evidence": [
                    {
                        "detail": [
                            {
                                "reference": "urn:uuid:1fc31af8-d530-4e78-a9d6-6f1e2df226ee"
                            }
                        ]
                    },
                    {
                        "detail": [
                            {
                                "reference": "urn:uuid:7186d454-1a7b-46bf-ad8e-30b3a496f6e1"
                            }
                        ]
                    },
                    {
                        "detail": [
                            {
                                "reference": "urn:uuid:bb66fe36-216f-48da-863a-65073c564031"
                            }
                        ]
                    },
                    {
                        "detail": [
                            {
                                "reference": "urn:uuid:ffcb94ed-7ba3-45e5-a25e-d9af99525367"
                            }
                        ]
                    },
                    {
                        "detail": [
                            {
                                "reference": "urn:uuid:f89d17f3-fb9b-49a6-b23a-d4f3ed36ad1a"
                            }
                        ]
                    },
                    {
                        "detail": [
                            {
                                "reference": "urn:uuid:cf7b23e6-9244-4fa5-a721-928fc42f0f66"
                            }
                        ]
                    },
                    {
                        "detail": [
                            {
                                "reference": "urn:uuid:c05163b8-9573-493a-b409-99b74aaf980f"
                            }
                        ]
                    },
                    {
                        "detail": [
                            {
                                "reference": "urn:uuid:aa593808-834a-402d-860d-1c0e773ee8d3"
                            }
                        ]
                    },
                    {
                        "detail": [
                            {
                                "reference": "urn:uuid:2296d771-bbc0-4663-820f-628c601b5e6d"
                            }
                        ]
                    },
                    {
                        "detail": [
                            {
                                "reference": "urn:uuid:427b3441-7d07-409c-9626-afc3d52fd336"
                            }
                        ]
                    },
                    {
                        "detail": [
                            {
                                "reference": "urn:uuid:72384e4d-8298-41df-9965-f08566b1a0d8"
                            }
                        ]
                    },
                    {
                        "detail": [
                            {
                                "reference": "urn:uuid:768b879a-0869-4360-a95f-861d3a87a6bb"
                            }
                        ]
                    },
                    {
                        "detail": [
                            {
                                "reference": "urn:uuid:d052ed28-47e0-42c8-a5e7-0b24e6622d6a"
                            }
                        ]
                    },
                    {
                        "detail": [
                            {
                                "reference": "urn:uuid:1eb011b4-9c86-4e78-beef-8a483e3d8bea"
                            }
                        ]
                    },
                    {
                        "detail": [
                            {
                                "reference": "urn:uuid:45d9d112-cc83-49b8-aba2-41a6980779dd"
                            }
                        ]
                    }
                ]
            }
        },
        {
            "fullUrl": "urn:uuid:1fc31af8-d530-4e78-a9d6-6f1e2df226ee",
            "resource": {
                "resourceType": "QuestionnaireResponse",
                "id": "1fc31af8-d530-4e78-a9d6-6f1e2df226ee",
                "identifier": {
                    "value": "60319"
                },
                "questionnaire": {
                    "reference": "urn:uuid:d0818472-1fe9-401d-a98b-7a146ea03c5e"
                },
                "status": "completed",
                "subject": {
                    "reference": "urn:uuid:22a3e1d1-d2b1-4334-8114-668ff2ba8582"
                },
                "context": {
                    "reference": "urn:uuid:f42be98e-1dfb-4ba6-8955-bbecfa97e224"
                },
                "authored": "2021-04-06T15:19:34+00:00",
                "item": [
                    {
                        "linkId": "Tx220109",
                        "text": "What is the reason for the contact?",
                        "answer": [
                            {
                                "valueString": "more"
                            }
                        ]
                    }
                ]
            }
        },
        {
            "fullUrl": "urn:uuid:d0818472-1fe9-401d-a98b-7a146ea03c5e",
            "resource": {
                "resourceType": "Questionnaire",
                "id": "d0818472-1fe9-401d-a98b-7a146ea03c5e",
                "identifier": [
                    {
                        "value": "60319"
                    }
                ],
                "version": "2021-04-06T15:19:34.083Z",
                "status": "active",
                "experimental": false,
                "date": "2021-04-06T15:19:34+00:00",
                "publisher": "User ID: 'HADFIELDR' User name: 'Ryan Hadfield' User skill set: 'T3'",
                "lastReviewDate": "2021-04-06",
                "contact": [
                    {
                        "telecom": [
                            {
                                "system": "phone",
                                "value": "0111 111 1111"
                            }
                        ]
                    }
                ],
                "subjectType": [
                    "Patient"
                ],
                "item": [
                    {
                        "linkId": "60319",
                        "prefix": "5",
                        "text": "What is the reason for the contact?",
                        "type": "choice",
                        "required": true,
                        "repeats": false,
                        "option": [
                            {
                                "valueString": "an injury or other health problem, Selected: false"
                            },
                            {
                                "valueString": "a need to access another healthcare service, Selected: false"
                            },
                            {
                                "valueString": "a healthcare professional requesting contact with another clinician, Selected: false"
                            },
                            {
                                "valueString": "a report of results or tests, Selected: false"
                            },
                            {
                                "valueString": "more, Selected: true"
                            }
                        ]
                    }
                ]
            }
        },
        {
            "fullUrl": "urn:uuid:7186d454-1a7b-46bf-ad8e-30b3a496f6e1",
            "resource": {
                "resourceType": "QuestionnaireResponse",
                "id": "7186d454-1a7b-46bf-ad8e-30b3a496f6e1",
                "identifier": {
                    "value": "60319"
                },
                "questionnaire": {
                    "reference": "urn:uuid:9b530f71-28f0-4bc8-a102-728d1a13113f"
                },
                "status": "completed",
                "subject": {
                    "reference": "urn:uuid:22a3e1d1-d2b1-4334-8114-668ff2ba8582"
                },
                "context": {
                    "reference": "urn:uuid:f42be98e-1dfb-4ba6-8955-bbecfa97e224"
                },
                "authored": "2021-04-06T15:19:34+00:00",
                "item": [
                    {
                        "linkId": "Tx221793",
                        "text": "STRING:to'Social&information'-further'Callreason'menu",
                        "answer": [
                            {
                                "valueString": "\"present\""
                            }
                        ]
                    }
                ]
            }
        },
        {
            "fullUrl": "urn:uuid:9b530f71-28f0-4bc8-a102-728d1a13113f",
            "resource": {
                "resourceType": "Questionnaire",
                "id": "9b530f71-28f0-4bc8-a102-728d1a13113f",
                "identifier": [
                    {
                        "value": "60319"
                    }
                ],
                "version": "2021-04-06T15:19:34.083Z",
                "status": "active",
                "experimental": false,
                "date": "2021-04-06T15:19:34+00:00",
                "publisher": "User ID: 'HADFIELDR' User name: 'Ryan Hadfield' User skill set: 'T3'",
                "lastReviewDate": "2021-04-06",
                "contact": [
                    {
                        "telecom": [
                            {
                                "system":  "phone",
                                "value": "0111 111 1111"
                            }
                        ]
                    }
                ],
                "subjectType": [
                    "Patient"
                ],
                "item": [
                    {
                        "linkId": "60319",
                        "prefix": "600",
                        "text": "STRING:to'Social&information'-further'Callreason'menu",
                        "type": "choice",
                        "required": true,
                        "repeats": false,
                        "option": [
                            {
                                "valueString": "\"present\", Selected: true"
                            }
                        ]
                    }
                ]
            }
        },
        {
            "fullUrl": "urn:uuid:bb66fe36-216f-48da-863a-65073c564031",
            "resource": {
                "resourceType": "QuestionnaireResponse",
                "id": "bb66fe36-216f-48da-863a-65073c564031",
                "identifier": {
                    "value": "60319"
                },
                "questionnaire": {
                    "reference": "urn:uuid:6b30bd2f-5340-4747-9fdc-acf4cef27a3f"
                },
                "status": "completed",
                "subject": {
                    "reference": "urn:uuid:22a3e1d1-d2b1-4334-8114-668ff2ba8582"
                },
                "context": {
                    "reference": "urn:uuid:f42be98e-1dfb-4ba6-8955-bbecfa97e224"
                },
                "authored": "2021-04-06T15:19:34+00:00"
            }
        },
        {
            "fullUrl": "urn:uuid:6b30bd2f-5340-4747-9fdc-acf4cef27a3f",
            "resource": {
                "resourceType": "Questionnaire",
                "id": "6b30bd2f-5340-4747-9fdc-acf4cef27a3f",
                "identifier": [
                    {
                        "value": "60319"
                    }
                ],
                "version": "2021-04-06T15:19:34.083Z",
                "status": "active",
                "experimental": false,
                "date": "2021-04-06T15:19:34+00:00",
                "publisher": "User ID: 'HADFIELDR' User name: 'Ryan Hadfield' User skill set: 'T3'",
                "lastReviewDate": "2021-04-06",
                "contact": [
                    {
                        "telecom": [
                            {
                                "system":  "phone",
                                "value": "0111 111 1111"
                            }
                        ]
                    }
                ],
                "subjectType": [
                    "Patient"
                ]
            }
        },
        {
            "fullUrl": "urn:uuid:ffcb94ed-7ba3-45e5-a25e-d9af99525367",
            "resource": {
                "resourceType": "QuestionnaireResponse",
                "id": "ffcb94ed-7ba3-45e5-a25e-d9af99525367",
                "identifier": {
                    "value": "60319"
                },
                "questionnaire": {
                    "reference": "urn:uuid:98c8f527-3e86-47a6-bed2-8fdafb950af5"
                },
                "status": "completed",
                "subject": {
                    "reference": "urn:uuid:22a3e1d1-d2b1-4334-8114-668ff2ba8582"
                },
                "context": {
                    "reference": "urn:uuid:f42be98e-1dfb-4ba6-8955-bbecfa97e224"
                },
                "authored": "2021-04-06T15:19:34+00:00",
                "item": [
                    {
                        "linkId": "Tx221804",
                        "text": "STRING:transfertofurthermenuquestionestablishedinEntryFlow",
                        "answer": [
                            {
                                "valueString": "\"present\""
                            }
                        ]
                    }
                ]
            }
        },
        {
            "fullUrl": "urn:uuid:98c8f527-3e86-47a6-bed2-8fdafb950af5",
            "resource": {
                "resourceType": "Questionnaire",
                "id": "98c8f527-3e86-47a6-bed2-8fdafb950af5",
                "identifier": [
                    {
                        "value": "60319"
                    }
                ],
                "version": "2021-04-06T15:19:34.083Z",
                "status": "active",
                "experimental": false,
                "date": "2021-04-06T15:19:34+00:00",
                "publisher": "User ID: 'HADFIELDR' User name: 'Ryan Hadfield' User skill set: 'T3'",
                "lastReviewDate": "2021-04-06",
                "contact": [
                    {
                        "telecom": [
                            {
                                "system":  "phone",
                                "value": "0111 111 1111"
                            }
                        ]
                    }
                ],
                "subjectType": [
                    "Patient"
                ],
                "item": [
                    {
                        "linkId": "60319",
                        "prefix": "41",
                        "text": "STRING:transfertofurthermenuquestionestablishedinEntryFlow",
                        "type": "choice",
                        "required": true,
                        "repeats": false,
                        "option": [
                            {
                                "valueString": "\"present\", Selected: true"
                            }
                        ]
                    }
                ]
            }
        },
        {
            "fullUrl": "urn:uuid:f89d17f3-fb9b-49a6-b23a-d4f3ed36ad1a",
            "resource": {
                "resourceType": "QuestionnaireResponse",
                "id": "f89d17f3-fb9b-49a6-b23a-d4f3ed36ad1a",
                "identifier": {
                    "value": "60319"
                },
                "questionnaire": {
                    "reference": "urn:uuid:0d47d416-6534-4cd5-85f7-09449a5c61ce"
                },
                "status": "completed",
                "subject": {
                    "reference": "urn:uuid:22a3e1d1-d2b1-4334-8114-668ff2ba8582"
                },
                "context": {
                    "reference": "urn:uuid:f42be98e-1dfb-4ba6-8955-bbecfa97e224"
                },
                "authored": "2021-04-06T15:19:34+00:00",
                "item": [
                    {
                        "linkId": "Tx224998",
                        "text": "SYSTEM_COVIDLEVEL2",
                        "answer": [
                            {
                                "valueString": "==\"covidlevel2\""
                            }
                        ]
                    }
                ]
            }
        },
        {
            "fullUrl": "urn:uuid:0d47d416-6534-4cd5-85f7-09449a5c61ce",
            "resource": {
                "resourceType": "Questionnaire",
                "id": "0d47d416-6534-4cd5-85f7-09449a5c61ce",
                "identifier": [
                    {
                        "value": "60319"
                    }
                ],
                "version": "2021-04-06T15:19:34.083Z",
                "status": "active",
                "experimental": false,
                "date": "2021-04-06T15:19:34+00:00",
                "publisher": "User ID: 'HADFIELDR' User name: 'Ryan Hadfield' User skill set: 'T3'",
                "lastReviewDate": "2021-04-06",
                "contact": [
                    {
                        "telecom": [
                            {
                                "system":  "phone",
                                "value": "0111 111 1111"
                            }
                        ]
                    }
                ],
                "subjectType": [
                    "Patient"
                ],
                "item": [
                    {
                        "linkId": "60319",
                        "prefix": "5900",
                        "text": "SYSTEM_COVIDLEVEL2",
                        "type": "choice",
                        "required": true,
                        "repeats": false,
                        "option": [
                            {
                                "valueString": "==\"covidlevel2\", Selected: true"
                            },
                            {
                                "valueString": "*, Selected: false"
                            }
                        ]
                    }
                ]
            }
        },
        {
            "fullUrl": "urn:uuid:cf7b23e6-9244-4fa5-a721-928fc42f0f66",
            "resource": {
                "resourceType": "QuestionnaireResponse",
                "id": "cf7b23e6-9244-4fa5-a721-928fc42f0f66",
                "identifier": {
                    "value": "60319"
                },
                "questionnaire": {
                    "reference": "urn:uuid:e973f9ac-29f7-4ec2-96fa-a0d9a829fa4f"
                },
                "status": "completed",
                "subject": {
                    "reference": "urn:uuid:22a3e1d1-d2b1-4334-8114-668ff2ba8582"
                },
                "context": {
                    "reference": "urn:uuid:f42be98e-1dfb-4ba6-8955-bbecfa97e224"
                },
                "authored": "2021-04-06T15:19:34+00:00",
                "item": [
                    {
                        "linkId": "Tx225069",
                        "text": "What is the reason for the contact?",
                        "answer": [
                            {
                                "valueString": "a prescription request"
                            }
                        ]
                    }
                ]
            }
        },
        {
            "fullUrl": "urn:uuid:e973f9ac-29f7-4ec2-96fa-a0d9a829fa4f",
            "resource": {
                "resourceType": "Questionnaire",
                "id": "e973f9ac-29f7-4ec2-96fa-a0d9a829fa4f",
                "identifier": [
                    {
                        "value": "60319"
                    }
                ],
                "version": "2021-04-06T15:19:34.083Z",
                "status": "active",
                "experimental": false,
                "date": "2021-04-06T15:19:34+00:00",
                "publisher": "User ID: 'HADFIELDR' User name: 'Ryan Hadfield' User skill set: 'T3'",
                "lastReviewDate": "2021-04-06",
                "contact": [
                    {
                        "telecom": [
                            {
                                "system":  "phone",
                                "value": "0111 111 1111"
                            }
                        ]
                    }
                ],
                "subjectType": [
                    "Patient"
                ],
                "item": [
                    {
                        "linkId": "60319",
                        "prefix": "6000",
                        "text": "What is the reason for the contact?",
                        "type": "choice",
                        "required": true,
                        "repeats": false,
                        "option": [
                            {
                                "valueString": "a child protection/vulnerable adult concern (specify), Selected: false"
                            },
                            {
                                "valueString": "a social or domestic emergency, Selected: false"
                            },
                            {
                                "valueString": "a prescription request, Selected: true"
                            },
                            {
                                "valueString": "an appointment request, Selected: false"
                            },
                            {
                                "valueString": "a request for health or medication information, Selected: false"
                            },
                            {
                                "valueString": "public health alert information, Selected: false"
                            }
                        ]
                    }
                ]
            }
        },
        {
            "fullUrl": "urn:uuid:c05163b8-9573-493a-b409-99b74aaf980f",
            "resource": {
                "resourceType": "QuestionnaireResponse",
                "id": "c05163b8-9573-493a-b409-99b74aaf980f",
                "identifier": {
                    "value": "60319"
                },
                "questionnaire": {
                    "reference": "urn:uuid:d4138fc4-3f57-4b91-b4eb-97a075024a4f"
                },
                "status": "completed",
                "subject": {
                    "reference": "urn:uuid:22a3e1d1-d2b1-4334-8114-668ff2ba8582"
                },
                "context": {
                    "reference": "urn:uuid:f42be98e-1dfb-4ba6-8955-bbecfa97e224"
                },
                "authored": "2021-04-06T15:19:34+00:00",
                "item": [
                    {
                        "linkId": "Tx220957",
                        "text": "Is this contact about a new or worsening illness?",
                        "answer": [
                            {
                                "valueString": "no"
                            }
                        ]
                    }
                ]
            }
        },
        {
            "fullUrl": "urn:uuid:d4138fc4-3f57-4b91-b4eb-97a075024a4f",
            "resource": {
                "resourceType": "Questionnaire",
                "id": "d4138fc4-3f57-4b91-b4eb-97a075024a4f",
                "identifier": [
                    {
                        "value": "60319"
                    }
                ],
                "version": "2021-04-06T15:19:34.083Z",
                "status": "active",
                "experimental": false,
                "date": "2021-04-06T15:19:34+00:00",
                "publisher": "User ID: 'HADFIELDR' User name: 'Ryan Hadfield' User skill set: 'T3'",
                "lastReviewDate": "2021-04-06",
                "contact": [
                    {
                        "telecom": [
                            {
                                "system":  "phone",
                                "value": "0111 111 1111"
                            }
                        ]
                    }
                ],
                "subjectType": [
                    "Patient"
                ],
                "item": [
                    {
                        "linkId": "60319",
                        "prefix": "1400",
                        "text": "Is this contact about a new or worsening illness?",
                        "type": "choice",
                        "required": true,
                        "repeats": false,
                        "option": [
                            {
                                "valueString": "yes, Selected: false"
                            },
                            {
                                "valueString": "not sure, Selected: false"
                            },
                            {
                                "valueString": "no, Selected: true"
                            }
                        ]
                    }
                ]
            }
        },
        {
            "fullUrl": "urn:uuid:aa593808-834a-402d-860d-1c0e773ee8d3",
            "resource": {
                "resourceType": "QuestionnaireResponse",
                "id": "aa593808-834a-402d-860d-1c0e773ee8d3",
                "identifier": {
                    "value": "60319"
                },
                "questionnaire": {
                    "reference": "urn:uuid:bc6e4e88-b03a-4aec-81bf-d497478dce7c"
                },
                "status": "completed",
                "subject": {
                    "reference": "urn:uuid:22a3e1d1-d2b1-4334-8114-668ff2ba8582"
                },
                "context": {
                    "reference": "urn:uuid:f42be98e-1dfb-4ba6-8955-bbecfa97e224"
                },
                "authored": "2021-04-06T15:19:34+00:00",
                "item": [
                    {
                        "linkId": "Tx221352",
                        "text": "Have you got enough medication to last until the surgery opens?",
                        "answer": [
                            {
                                "valueString": "no"
                            }
                        ]
                    }
                ]
            }
        },
        {
            "fullUrl": "urn:uuid:bc6e4e88-b03a-4aec-81bf-d497478dce7c",
            "resource": {
                "resourceType": "Questionnaire",
                "id": "bc6e4e88-b03a-4aec-81bf-d497478dce7c",
                "identifier": [
                    {
                        "value": "60319"
                    }
                ],
                "version": "2021-04-06T15:19:34.083Z",
                "status": "active",
                "experimental": false,
                "date": "2021-04-06T15:19:34+00:00",
                "publisher": "User ID: 'HADFIELDR' User name: 'Ryan Hadfield' User skill set: 'T3'",
                "lastReviewDate": "2021-04-06",
                "contact": [
                    {
                        "telecom": [
                            {
                                "system":  "phone",
                                "value": "0111 111 1111"
                            }
                        ]
                    }
                ],
                "subjectType": [
                    "Patient"
                ],
                "item": [
                    {
                        "linkId": "60319",
                        "prefix": "1500",
                        "text": "Have you got enough medication to last until the surgery opens?",
                        "type": "choice",
                        "required": true,
                        "repeats": false,
                        "option": [
                            {
                                "valueString": "yes, Selected: false"
                            },
                            {
                                "valueString": "not sure, Selected: false"
                            },
                            {
                                "valueString": "no, Selected: true"
                            }
                        ]
                    }
                ]
            }
        },
        {
            "fullUrl": "urn:uuid:2296d771-bbc0-4663-820f-628c601b5e6d",
            "resource": {
                "resourceType": "QuestionnaireResponse",
                "id": "2296d771-bbc0-4663-820f-628c601b5e6d",
                "identifier": {
                    "value": "60319"
                },
                "questionnaire": {
                    "reference": "urn:uuid:7944eb37-8980-4c54-a0ed-6fc24771787f"
                },
                "status": "completed",
                "subject": {
                    "reference": "urn:uuid:22a3e1d1-d2b1-4334-8114-668ff2ba8582"
                },
                "context": {
                    "reference": "urn:uuid:f42be98e-1dfb-4ba6-8955-bbecfa97e224"
                },
                "authored": "2021-04-06T15:19:34+00:00"
            }
        },
        {
            "fullUrl": "urn:uuid:7944eb37-8980-4c54-a0ed-6fc24771787f",
            "resource": {
                "resourceType": "Questionnaire",
                "id": "7944eb37-8980-4c54-a0ed-6fc24771787f",
                "identifier": [
                    {
                        "value": "60319"
                    }
                ],
                "version": "2021-04-06T15:19:34.083Z",
                "status": "active",
                "experimental": false,
                "date": "2021-04-06T15:19:34+00:00",
                "publisher": "User ID: 'HADFIELDR' User name: 'Ryan Hadfield' User skill set: 'T3'",
                "lastReviewDate": "2021-04-06",
                "contact": [
                    {
                        "telecom": [
                            {
                                "system":  "phone",
                                "value": "0111 111 1111"
                            }
                        ]
                    }
                ],
                "subjectType": [
                    "Patient"
                ]
            }
        },
        {
            "fullUrl": "urn:uuid:427b3441-7d07-409c-9626-afc3d52fd336",
            "resource": {
                "resourceType": "QuestionnaireResponse",
                "id": "427b3441-7d07-409c-9626-afc3d52fd336",
                "identifier": {
                    "value": "60319"
                },
                "questionnaire": {
                    "reference": "urn:uuid:7eab0b53-69f5-46e3-9bbc-f16de90358bd"
                },
                "status": "completed",
                "subject": {
                    "reference": "urn:uuid:22a3e1d1-d2b1-4334-8114-668ff2ba8582"
                },
                "context": {
                    "reference": "urn:uuid:f42be98e-1dfb-4ba6-8955-bbecfa97e224"
                },
                "authored": "2021-04-06T15:19:34+00:00",
                "item": [
                    {
                        "linkId": "Tx224231",
                        "text": "FROM WHAT YOU HAVE HEARD IS A CONSULTATION WITH A PRESCRIBER NEEDED?",
                        "answer": [
                            {
                                "valueString": "no"
                            }
                        ]
                    }
                ]
            }
        },
        {
            "fullUrl": "urn:uuid:7eab0b53-69f5-46e3-9bbc-f16de90358bd",
            "resource": {
                "resourceType": "Questionnaire",
                "id": "7eab0b53-69f5-46e3-9bbc-f16de90358bd",
                "identifier": [
                    {
                        "value": "60319"
                    }
                ],
                "version": "2021-04-06T15:19:34.083Z",
                "status": "active",
                "experimental": false,
                "date": "2021-04-06T15:19:34+00:00",
                "publisher": "User ID: 'HADFIELDR' User name: 'Ryan Hadfield' User skill set: 'T3'",
                "lastReviewDate": "2021-04-06",
                "contact": [
                    {
                        "telecom": [
                            {
                                "system":  "phone",
                                "value": "0111 111 1111"
                            }
                        ]
                    }
                ],
                "subjectType": [
                    "Patient"
                ],
                "item": [
                    {
                        "linkId": "60319",
                        "prefix": "0",
                        "text": "FROM WHAT YOU HAVE HEARD IS A CONSULTATION WITH A PRESCRIBER NEEDED?",
                        "type": "choice",
                        "required": true,
                        "repeats": false,
                        "option": [
                            {
                                "valueString": "yes, Selected: false"
                            },
                            {
                                "valueString": "not sure, Selected: false"
                            },
                            {
                                "valueString": "no, Selected: true"
                            }
                        ]
                    }
                ]
            }
        },
        {
            "fullUrl": "urn:uuid:72384e4d-8298-41df-9965-f08566b1a0d8",
            "resource": {
                "resourceType": "QuestionnaireResponse",
                "id": "72384e4d-8298-41df-9965-f08566b1a0d8",
                "identifier": {
                    "value": "60319"
                },
                "questionnaire": {
                    "reference": "urn:uuid:139bdf2b-2987-43f1-9d47-c07a5f75f017"
                },
                "status": "completed",
                "subject": {
                    "reference": "urn:uuid:22a3e1d1-d2b1-4334-8114-668ff2ba8582"
                },
                "context": {
                    "reference": "urn:uuid:f42be98e-1dfb-4ba6-8955-bbecfa97e224"
                },
                "authored": "2021-04-06T15:19:34+00:00",
                "item": [
                    {
                        "linkId": "Tx222687",
                        "text": "Have you got any of the medication available at the moment?",
                        "answer": [
                            {
                                "valueString": "no"
                            }
                        ]
                    }
                ]
            }
        },
        {
            "fullUrl": "urn:uuid:139bdf2b-2987-43f1-9d47-c07a5f75f017",
            "resource": {
                "resourceType": "Questionnaire",
                "id": "139bdf2b-2987-43f1-9d47-c07a5f75f017",
                "identifier": [
                    {
                        "value": "60319"
                    }
                ],
                "version": "2021-04-06T15:19:34.083Z",
                "status": "active",
                "experimental": false,
                "date": "2021-04-06T15:19:34+00:00",
                "publisher": "User ID: 'HADFIELDR' User name: 'Ryan Hadfield' User skill set: 'T3'",
                "lastReviewDate": "2021-04-06",
                "contact": [
                    {
                        "telecom": [
                            {
                                "system":  "phone",
                                "value": "0111 111 1111"
                            }
                        ]
                    }
                ],
                "subjectType": [
                    "Patient"
                ],
                "item": [
                    {
                        "linkId": "60319",
                        "prefix": "200",
                        "text": "Have you got any of the medication available at the moment?",
                        "type": "choice",
                        "required": true,
                        "repeats": false,
                        "option": [
                            {
                                "valueString": "yes, Selected: false"
                            },
                            {
                                "valueString": "not sure, Selected: false"
                            },
                            {
                                "valueString": "no, Selected: true"
                            }
                        ]
                    }
                ]
            }
        },
        {
            "fullUrl": "urn:uuid:768b879a-0869-4360-a95f-861d3a87a6bb",
            "resource": {
                "resourceType": "QuestionnaireResponse",
                "id": "768b879a-0869-4360-a95f-861d3a87a6bb",
                "identifier": {
                    "value": "60319"
                },
                "questionnaire": {
                    "reference": "urn:uuid:267da45f-2497-4296-ad43-d4a044166fc8"
                },
                "status": "completed",
                "subject": {
                    "reference": "urn:uuid:22a3e1d1-d2b1-4334-8114-668ff2ba8582"
                },
                "context": {
                    "reference": "urn:uuid:f42be98e-1dfb-4ba6-8955-bbecfa97e224"
                },
                "authored": "2021-04-06T15:19:34+00:00",
                "item": [
                    {
                        "linkId": "Tx221367",
                        "text": "When is the next dose due?",
                        "answer": [
                            {
                                "valueString": "over 12 hours time"
                            }
                        ]
                    }
                ]
            }
        },
        {
            "fullUrl": "urn:uuid:267da45f-2497-4296-ad43-d4a044166fc8",
            "resource": {
                "resourceType": "Questionnaire",
                "id": "267da45f-2497-4296-ad43-d4a044166fc8",
                "identifier": [
                    {
                        "value": "60319"
                    }
                ],
                "version": "2021-04-06T15:19:34.083Z",
                "status": "active",
                "experimental": false,
                "date": "2021-04-06T15:19:34+00:00",
                "publisher": "User ID: 'HADFIELDR' User name: 'Ryan Hadfield' User skill set: 'T3'",
                "lastReviewDate": "2021-04-06",
                "contact": [
                    {
                        "telecom": [
                            {
                                "system":  "phone",
                                "value": "0111 111 1111"
                            }
                        ]
                    }
                ],
                "subjectType": [
                    "Patient"
                ],
                "item": [
                    {
                        "linkId": "60319",
                        "prefix": "100",
                        "text": "When is the next dose due?",
                        "type": "choice",
                        "required": true,
                        "repeats": false,
                        "option": [
                            {
                                "valueString": "within the next 2 hours, Selected: false"
                            },
                            {
                                "valueString": "within the next 6 hours, Selected: false"
                            },
                            {
                                "valueString": "within the next 12 hours, Selected: false"
                            },
                            {
                                "valueString": "over 12 hours time, Selected: true"
                            },
                            {
                                "valueString": "not sure, Selected: false"
                            }
                        ]
                    }
                ]
            }
        },
        {
            "fullUrl": "urn:uuid:d052ed28-47e0-42c8-a5e7-0b24e6622d6a",
            "resource": {
                "resourceType": "QuestionnaireResponse",
                "id": "d052ed28-47e0-42c8-a5e7-0b24e6622d6a",
                "identifier": {
                    "value": "60319"
                },
                "questionnaire": {
                    "reference": "urn:uuid:24e759ed-264b-49f5-bfe4-3ebc3b6214a5"
                },
                "status": "completed",
                "subject": {
                    "reference": "urn:uuid:22a3e1d1-d2b1-4334-8114-668ff2ba8582"
                },
                "context": {
                    "reference": "urn:uuid:f42be98e-1dfb-4ba6-8955-bbecfa97e224"
                },
                "authored": "2021-04-06T15:19:34+00:00",
                "item": [
                    {
                        "linkId": "Tx223441",
                        "text": "STRING:SDPCRepeatPrescription",
                        "answer": [
                            {
                                "valueString": "\"PC repeat prescription\""
                            }
                        ]
                    }
                ]
            }
        },
        {
            "fullUrl": "urn:uuid:24e759ed-264b-49f5-bfe4-3ebc3b6214a5",
            "resource": {
                "resourceType": "Questionnaire",
                "id": "24e759ed-264b-49f5-bfe4-3ebc3b6214a5",
                "identifier": [
                    {
                        "value": "60319"
                    }
                ],
                "version": "2021-04-06T15:19:34.083Z",
                "status": "active",
                "experimental": false,
                "date": "2021-04-06T15:19:34+00:00",
                "publisher": "User ID: 'HADFIELDR' User name: 'Ryan Hadfield' User skill set: 'T3'",
                "lastReviewDate": "2021-04-06",
                "contact": [
                    {
                        "telecom": [
                            {
                                "system":  "phone",
                                "value": "0111 111 1111"
                            }
                        ]
                    }
                ],
                "subjectType": [
                    "Patient"
                ],
                "item": [
                    {
                        "linkId": "60319",
                        "prefix": "1100",
                        "text": "STRING:SDPCRepeatPrescription",
                        "type": "choice",
                        "required": true,
                        "repeats": false,
                        "option": [
                            {
                                "valueString": "\"PC repeat prescription\", Selected: true"
                            }
                        ]
                    }
                ]
            }
        },
        {
            "fullUrl": "urn:uuid:1eb011b4-9c86-4e78-beef-8a483e3d8bea",
            "resource": {
                "resourceType": "QuestionnaireResponse",
                "id": "1eb011b4-9c86-4e78-beef-8a483e3d8bea",
                "identifier": {
                    "value": "60319"
                },
                "questionnaire": {
                    "reference": "urn:uuid:c9872676-4d02-4330-926a-8c1fbaa56cf5"
                },
                "status": "completed",
                "subject": {
                    "reference": "urn:uuid:22a3e1d1-d2b1-4334-8114-668ff2ba8582"
                },
                "context": {
                    "reference": "urn:uuid:f42be98e-1dfb-4ba6-8955-bbecfa97e224"
                },
                "authored": "2021-04-06T15:19:34+00:00"
            }
        },
        {
            "fullUrl": "urn:uuid:c9872676-4d02-4330-926a-8c1fbaa56cf5",
            "resource": {
                "resourceType": "Questionnaire",
                "id": "c9872676-4d02-4330-926a-8c1fbaa56cf5",
                "identifier": [
                    {
                        "value": "60319"
                    }
                ],
                "version": "2021-04-06T15:19:34.083Z",
                "status": "active",
                "experimental": false,
                "date": "2021-04-06T15:19:34+00:00",
                "publisher": "User ID: 'HADFIELDR' User name: 'Ryan Hadfield' User skill set: 'T3'",
                "lastReviewDate": "2021-04-06",
                "contact": [
                    {
                        "telecom": [
                            {
                                "system":  "phone",
                                "value": "0111 111 1111"
                            }
                        ]
                    }
                ],
                "subjectType": [
                    "Patient"
                ]
            }
        },
        {
            "fullUrl": "urn:uuid:45d9d112-cc83-49b8-aba2-41a6980779dd",
            "resource": {
                "resourceType": "QuestionnaireResponse",
                "id": "45d9d112-cc83-49b8-aba2-41a6980779dd",
                "identifier": {
                    "value": "60319"
                },
                "questionnaire": {
                    "reference": "urn:uuid:67fce13d-4d37-48de-bbb2-555976b78b33"
                },
                "status": "completed",
                "subject": {
                    "reference": "urn:uuid:22a3e1d1-d2b1-4334-8114-668ff2ba8582"
                },
                "context": {
                    "reference": "urn:uuid:f42be98e-1dfb-4ba6-8955-bbecfa97e224"
                },
                "authored": "2021-04-06T15:19:34+00:00"
            }
        },
        {
            "fullUrl": "urn:uuid:67fce13d-4d37-48de-bbb2-555976b78b33",
            "resource": {
                "resourceType": "Questionnaire",
                "id": "67fce13d-4d37-48de-bbb2-555976b78b33",
                "identifier": [
                    {
                        "value": "60319"
                    }
                ],
                "version": "2021-04-06T15:19:34.083Z",
                "status": "active",
                "experimental": false,
                "date": "2021-04-06T15:19:34+00:00",
                "publisher": "User ID: 'HADFIELDR' User name: 'Ryan Hadfield' User skill set: 'T3'",
                "lastReviewDate": "2021-04-06",
                "contact": [
                    {
                        "telecom": [
                            {
                                "system":  "phone",
                                "value": "0111 111 1111"
                            }
                        ]
                    }
                ],
                "subjectType": [
                    "Patient"
                ]
            }
        },
        {
            "fullUrl": "urn:uuid:c38cbc93-3dfc-485e-9cea-1b2e8ce83ac8",
            "resource": {
                "resourceType": "PractitionerRole",
                "id": "c38cbc93-3dfc-485e-9cea-1b2e8ce83ac8",
                "practitioner": {
                    "reference": "urn:uuid:ae81bcae-1982-4efe-8522-0538fe25c974"
                },
                "organization": {
                    "reference": "urn:uuid:5bee1fa4-bfe8-40d8-a5c1-ec568c53da94"
                },
                "code": [
                    {
                        "coding": [
                            {
                                "system": "2.16.840.1.113883.2.1.3.2.4.17.339",
                                "code": "DOCTOR",
                                "display": "Doctor"
                            }
                        ]
                    }
                ]
            }
        },
        {
            "fullUrl": "urn:uuid:5bee1fa4-bfe8-40d8-a5c1-ec568c53da94",
            "resource": {
                "resourceType": "Organization",
                "id": "5bee1fa4-bfe8-40d8-a5c1-ec568c53da94",
                "identifier": [
                    {
                        "value": "RYE"
                    }
                ],
                "name": "RepresentedOrg Name"
            }
        },
        {
            "fullUrl": "urn:uuid:0d92b9ef-2f1f-42fb-8338-3c4209ad7d41",
            "resource": {
                "resourceType": "PractitionerRole",
                "id": "0d92b9ef-2f1f-42fb-8338-3c4209ad7d41",
                "practitioner": {
                    "reference": "urn:uuid:69fa5dbc-94de-4d0f-8fa8-c9f7e0be945f"
                },
                "organization": {
                    "reference": "urn:uuid:2dbed38f-69ea-46f0-bc1b-3eb80aacb3dc"
                },
                "code": [
                    {
                        "coding": [
                            {
                                "system": "2.16.840.1.113883.2.1.3.2.4.17.196",
                                "code": "R0010",
                                "display": "Medical Director"
                            }
                        ]
                    }
                ]
            }
        },
        {
            "fullUrl": "urn:uuid:2dbed38f-69ea-46f0-bc1b-3eb80aacb3dc",
            "resource": {
                "resourceType": "Organization",
                "id": "2dbed38f-69ea-46f0-bc1b-3eb80aacb3dc",
                "identifier": [
                    {
                        "value": "RYE"
                    }
                ],
                "name": "RepresentedOrgNameRYE"
            }
        },
        {
            "fullUrl": "urn:uuid:7f3846fc-d2bd-4169-977c-9ceef4764cd6",
            "resource": {
                "resourceType": "RelatedPerson",
                "id": "7f3846fc-d2bd-4169-977c-9ceef4764cd6",
                "patient": {
                    "reference": "urn:uuid:22a3e1d1-d2b1-4334-8114-668ff2ba8582"
                },
                "relationship": {
                    "coding": [
                        {
                            "system": "http://hl7.org/fhir/v2/0131",
                            "code": "C",
                            "display": "Emergency Contact"
                        }
                    ]
                },
                "telecom": [
                    {
                        "system": "phone",
                        "value": "tel:000000000000"
                    }
                ]
            }
        },
        {
            "fullUrl": "urn:uuid:e790311e-a10c-4768-8e02-e4865a4f8187",
            "resource": {
                "resourceType": "Device",
                "id": "e790311e-a10c-4768-8e02-e4865a4f8187",
                "model": "111 Adaptor",
                "version": "0.9.0"
            }
        },
        {
            "fullUrl": "urn:uuid:e2ebe953-7a5b-46a4-91e6-f1892859a147",
            "resource": {
                "resourceType": "List",
                "id": "e2ebe953-7a5b-46a4-91e6-f1892859a147",
                "status": "current",
                "mode": "working",
                "title": "111 Report List",
                "code": {
                    "coding": [
                        {
                            "system": "http://snomed.info/sct",
                            "code": "225390008",
                            "display": "Triage"
                        }
                    ]
                },
                "subject": {
                    "reference": "urn:uuid:22a3e1d1-d2b1-4334-8114-668ff2ba8582"
                },
                "encounter": {
                    "reference": "urn:uuid:f42be98e-1dfb-4ba6-8955-bbecfa97e224"
                },
                "date": "2021-09-12T20:47:35+00:00",
                "source": {
                    "reference": "urn:uuid:e790311e-a10c-4768-8e02-e4865a4f8187"
                },
                "orderedBy": {
                    "coding": [
                        {
                            "system": "http://hl7.org/fhir/list-order",
                            "code": "event-date",
                            "display": "Sorted by Event Date"
                        }
                    ]
                },
                "entry": [
                    {
                        "item": {
                            "reference": "urn:uuid:2dbed38f-69ea-46f0-bc1b-3eb80aacb3dc"
                        }
                    },
                    {
                        "item": {
                            "reference": "urn:uuid:89facf49-e46e-4914-bbce-e01148ce5cc5"
                        }
                    },
                    {
                        "item": {
                            "reference": "urn:uuid:884ae79d-cb05-4672-bb4d-790d515bb1cd"
                        }
                    },
                    {
                        "item": {
                            "reference": "urn:uuid:69fa5dbc-94de-4d0f-8fa8-c9f7e0be945f"
                        }
                    },
                    {
                        "item": {
                            "reference": "urn:uuid:7f3846fc-d2bd-4169-977c-9ceef4764cd6"
                        }
                    },
                    {
                        "item": {
                            "reference": "urn:uuid:0f8acebf-e477-4285-8fdf-c41447c66b5c"
                        }
                    },
                    {
                        "item": {
                            "reference": "urn:uuid:a12e3154-0128-42e9-975f-65fa5edad37e"
                        }
                    },
                    {
                        "item": {
                            "reference": "urn:uuid:5bee1fa4-bfe8-40d8-a5c1-ec568c53da94"
                        }
                    },
                    {
                        "item": {
                            "reference": "urn:uuid:ae81bcae-1982-4efe-8522-0538fe25c974"
                        }
                    },
                    {
                        "item": {
                            "reference": "urn:uuid:45d9d112-cc83-49b8-aba2-41a6980779dd"
                        }
                    },
                    {
                        "item": {
                            "reference": "urn:uuid:bb66fe36-216f-48da-863a-65073c564031"
                        }
                    },
                    {
                        "item": {
                            "reference": "urn:uuid:24e759ed-264b-49f5-bfe4-3ebc3b6214a5"
                        }
                    },
                    {
                        "item": {
                            "reference": "urn:uuid:0d47d416-6534-4cd5-85f7-09449a5c61ce"
                        }
                    },
                    {
                        "item": {
                            "reference": "urn:uuid:1eb011b4-9c86-4e78-beef-8a483e3d8bea"
                        }
                    },
                    {
                        "item": {
                            "reference": "urn:uuid:f89d17f3-fb9b-49a6-b23a-d4f3ed36ad1a"
                        }
                    },
                    {
                        "item": {
                            "reference": "urn:uuid:c05163b8-9573-493a-b409-99b74aaf980f"
                        }
                    },
                    {
                        "item": {
                            "reference": "urn:uuid:67fce13d-4d37-48de-bbb2-555976b78b33"
                        }
                    },
                    {
                        "item": {
                            "reference": "urn:uuid:e973f9ac-29f7-4ec2-96fa-a0d9a829fa4f"
                        }
                    },
                    {
                        "item": {
                            "reference": "urn:uuid:139bdf2b-2987-43f1-9d47-c07a5f75f017"
                        }
                    },
                    {
                        "item": {
                            "reference": "urn:uuid:9b530f71-28f0-4bc8-a102-728d1a13113f"
                        }
                    },
                    {
                        "item": {
                            "reference": "urn:uuid:7186d454-1a7b-46bf-ad8e-30b3a496f6e1"
                        }
                    },
                    {
                        "item": {
                            "reference": "urn:uuid:d0818472-1fe9-401d-a98b-7a146ea03c5e"
                        }
                    },
                    {
                        "item": {
                            "reference": "urn:uuid:2296d771-bbc0-4663-820f-628c601b5e6d"
                        }
                    },
                    {
                        "item": {
                            "reference": "urn:uuid:7eab0b53-69f5-46e3-9bbc-f16de90358bd"
                        }
                    },
                    {
                        "item": {
                            "reference": "urn:uuid:1fc31af8-d530-4e78-a9d6-6f1e2df226ee"
                        }
                    },
                    {
                        "item": {
                            "reference": "urn:uuid:ffcb94ed-7ba3-45e5-a25e-d9af99525367"
                        }
                    },
                    {
                        "item": {
                            "reference": "urn:uuid:cf7b23e6-9244-4fa5-a721-928fc42f0f66"
                        }
                    },
                    {
                        "item": {
                            "reference": "urn:uuid:d052ed28-47e0-42c8-a5e7-0b24e6622d6a"
                        }
                    },
                    {
                        "item": {
                            "reference": "urn:uuid:267da45f-2497-4296-ad43-d4a044166fc8"
                        }
                    },
                    {
                        "item": {
                            "reference": "urn:uuid:98c8f527-3e86-47a6-bed2-8fdafb950af5"
                        }
                    },
                    {
                        "item": {
                            "reference": "urn:uuid:bc6e4e88-b03a-4aec-81bf-d497478dce7c"
                        }
                    },
                    {
                        "item": {
                            "reference": "urn:uuid:7944eb37-8980-4c54-a0ed-6fc24771787f"
                        }
                    },
                    {
                        "item": {
                            "reference": "urn:uuid:768b879a-0869-4360-a95f-861d3a87a6bb"
                        }
                    },
                    {
                        "item": {
                            "reference": "urn:uuid:aa593808-834a-402d-860d-1c0e773ee8d3"
                        }
                    },
                    {
                        "item": {
                            "reference": "urn:uuid:72384e4d-8298-41df-9965-f08566b1a0d8"
                        }
                    },
                    {
                        "item": {
                            "reference": "urn:uuid:427b3441-7d07-409c-9626-afc3d52fd336"
                        }
                    },
                    {
                        "item": {
                            "reference": "urn:uuid:d4138fc4-3f57-4b91-b4eb-97a075024a4f"
                        }
                    },
                    {
                        "item": {
                            "reference": "urn:uuid:6b30bd2f-5340-4747-9fdc-acf4cef27a3f"
                        }
                    },
                    {
                        "item": {
                            "reference": "urn:uuid:c9872676-4d02-4330-926a-8c1fbaa56cf5"
                        }
                    },
                    {
                        "item": {
                            "reference": "urn:uuid:bb8672d7-465d-44ba-be09-05ec2d781213"
                        }
                    }
                ]
            }
        }
    ]
}
