{
  "resourceType": "Bundle",
  "identifier": {
    "type": {
      "text": "ClinicalDocument VersionNumber"
    },
    "value": "1"
  },
  "type": "message",
  "entry": [ {
    "fullUrl": "urn:uuid:F7916D36-4D5F-4A64-BD08-644E8A234AE2",
    "resource": {
      "resourceType": "MessageHeader",
      "id": "F7916D36-4D5F-4A64-BD08-644E8A234AE2",
      "event": {
        "system": "https://fhir.nhs.uk/STU3/CodeSystem/EventType-1",
        "code": "referral-1",
        "display": "Referral"
      },
      "destination": [ {
        "endpoint": "urn:nhs-uk:addressing:ods:NVE06:DOSServiceID:1335970392"
      } ],
      "timestamp": "2021-05-13T17:24:56.000+00:00",
      "source": {
        "name": "NHS 111 Adaptor",
        "endpoint": "http://localhost:8080/report"
      },
      "reason": {
        "coding": [ {
          "system": "urn:nhs-itk:ns:201005:interaction",
          "code": "urn:nhs-itk:interaction:primaryOutofHourRecipientNHS111CDADocument-v2-0"
        } ]
      }
    }
  }, {
    "fullUrl": "urn:uuid:b7814d17-0365-4fb2-95f4-a985dc994c71",
    "resource": {
      "resourceType": "Encounter",
      "id": "b7814d17-0365-4fb2-95f4-a985dc994c71",
      "identifier": [ {
        "system": "2.16.840.1.113883.2.1.3.2.4.18.34",
        "value": "2DBAE50F-F88C-4572-9866-F94FE0F1F25A"
      }, {
        "system": "2.16.840.1.113883.2.1.3.2.4.18.35",
        "value": "2100310450"
      } ],
      "status": "finished",
      "type": [ {
        "text": "111 Encounter Referral"
      } ],
      "subject": {
        "reference": "urn:uuid:d25ac86d-cc1c-4b23-9d18-1704036e7a4c"
      },
      "participant": [ {
        "type": [ {
          "coding": [ {
            "system": "http://hl7.org/fhir/ValueSet/encounter-participant-type",
            "code": "PPRF",
            "display": "Author"
          } ]
        } ],
        "individual": {
          "reference": "urn:uuid:14a6bb1b-8580-46e7-a0c4-d8c80585bd98"
        }
      }, {
        "type": [ {
          "text": "Informant"
        } ],
        "individual": {
          "reference": "urn:uuid:bcd951a3-9e79-4b09-bed2-58128a463247"
        }
      } ],
      "period": {
        "start": "2021-05-13T17:24:56+00:00"
      },
      "location": [ {
        "location": {
          "reference": "urn:uuid:5b00938d-1482-46d5-9577-29aa33b19822"
        },
        "status": "active"
      }, {
        "location": {
          "reference": "urn:uuid:2c4bcb23-6b08-406e-8145-9aaa4c143223"
        },
        "status": "completed"
      } ],
      "serviceProvider": {
        "reference": "urn:uuid:e8a19cd9-9f20-42e9-9b1c-53d98e8b8f96"
      }
    }
  }, {
    "fullUrl": "urn:uuid:e8a19cd9-9f20-42e9-9b1c-53d98e8b8f96",
    "resource": {
      "resourceType": "Organization",
      "id": "e8a19cd9-9f20-42e9-9b1c-53d98e8b8f96",
      "active": true,
      "type": [ {
        "text": "CST"
      } ],
      "name": "Norfolk and Wisbech 111"
    }
  }, {
    "fullUrl": "urn:uuid:14a6bb1b-8580-46e7-a0c4-d8c80585bd98",
    "resource": {
      "resourceType": "Practitioner",
      "id": "14a6bb1b-8580-46e7-a0c4-d8c80585bd98",
      "active": true,
      "name": [ {
        "text": "Ben Smythson"
      } ]
    }
  }, {
    "fullUrl": "urn:uuid:bcd951a3-9e79-4b09-bed2-58128a463247",
    "resource": {
      "resourceType": "RelatedPerson",
      "id": "bcd951a3-9e79-4b09-bed2-58128a463247",
      "active": true,
      "patient": {
        "reference": "urn:uuid:d25ac86d-cc1c-4b23-9d18-1704036e7a4c"
      },
      "relationship": {
        "coding": [ {
          "system": "2.16.840.1.113883.2.1.3.2.4.16.45",
          "code": "21",
          "display": "Self"
        }, {
          "system": "http://hl7.org/fhir/v2/0131",
          "code": "C",
          "display": "Emergency Contact"
        } ]
      },
      "name": [ {
        "text": "Test Call Dx10 TEST CALL DX10"
      } ],
      "telecom": [ {
        "system": "phone",
        "value": "tel:01233123123"
      } ],
      "gender": "unknown"
    }
  }, {
    "fullUrl": "urn:uuid:5b00938d-1482-46d5-9577-29aa33b19822",
    "resource": {
      "resourceType": "Location",
      "id": "5b00938d-1482-46d5-9577-29aa33b19822",
      "managingOrganization": {
        "reference": "urn:uuid:266aab0d-75c0-409e-980e-88083cd46331"
      }
    }
  }, {
    "fullUrl": "urn:uuid:266aab0d-75c0-409e-980e-88083cd46331",
    "resource": {
      "resourceType": "Organization",
      "id": "266aab0d-75c0-409e-980e-88083cd46331",
      "identifier": [ {
        "value": "Z10000"
      } ],
      "type": [ {
        "text": "GP Practice"
      } ],
      "name": "UNKNOWN"
    }
  }, {
    "fullUrl": "urn:uuid:2c4bcb23-6b08-406e-8145-9aaa4c143223",
    "resource": {
      "resourceType": "Location",
      "id": "2c4bcb23-6b08-406e-8145-9aaa4c143223",
      "address": {
        "type": "physical",
        "line": [ "313 VICTORIA ROAD", "LOWESTOFT" ],
        "postalCode": "NR33 9LS"
      }
    }
  }, {
    "fullUrl": "urn:uuid:d25ac86d-cc1c-4b23-9d18-1704036e7a4c",
    "resource": {
      "resourceType": "Patient",
      "id": "d25ac86d-cc1c-4b23-9d18-1704036e7a4c",
      "language": "en",
      "active": true,
      "name": [ {
        "use": "official",
        "family": "TEST CALL DX10",
        "given": [ "Test Call Dx10" ]
      } ],
      "telecom": [ {
        "system": "phone",
        "value": "tel:01233123123"
      } ],
      "gender": "male",
      "birthDate": "1996-03-25",
      "address": [ {
        "use": "home",
        "line": [ "313 VICTORIA ROAD", "LOWESTOFT" ],
        "postalCode": "NR33 9LS"
      }, {
        "type": "physical",
        "line": [ "313 VICTORIA ROAD", "LOWESTOFT" ],
        "postalCode": "NR33 9LS"
      } ],
      "generalPractitioner": [ {
        "reference": "urn:uuid:5d6939f9-953e-41d2-8cd6-25a08d190ddf"
      } ]
    }
  }, {
    "fullUrl": "urn:uuid:5d6939f9-953e-41d2-8cd6-25a08d190ddf",
    "resource": {
      "resourceType": "Organization",
      "id": "5d6939f9-953e-41d2-8cd6-25a08d190ddf",
      "identifier": [ {
        "value": "Z10000"
      } ],
      "type": [ {
        "text": "GP Practice"
      } ],
      "name": "UNKNOWN"
    }
  }, {
    "fullUrl": "urn:uuid:65ab3cef-00c8-43a2-935a-5826b2c4eda9",
    "resource": {
      "resourceType": "HealthcareService",
      "id": "65ab3cef-00c8-43a2-935a-5826b2c4eda9",
      "active": true,
      "providedBy": {
        "reference": "urn:uuid:63d74426-feab-4319-8b80-e5a2b3de2b89"
      },
      "location": [ {
        "reference": "urn:uuid:ddf61477-7178-4256-9396-13fcf9f7df6e"
      } ],
      "name": "Out of Hours GP Service (Waveney) - Kirkley Mill Health Centre, Lowestoft"
    }
  }, {
    "fullUrl": "urn:uuid:ddf61477-7178-4256-9396-13fcf9f7df6e",
    "resource": {
      "resourceType": "Location",
      "id": "ddf61477-7178-4256-9396-13fcf9f7df6e",
      "managingOrganization": {
        "reference": "urn:uuid:63d74426-feab-4319-8b80-e5a2b3de2b89"
      }
    }
  }, {
    "fullUrl": "urn:uuid:63d74426-feab-4319-8b80-e5a2b3de2b89",
    "resource": {
      "resourceType": "Organization",
      "id": "63d74426-feab-4319-8b80-e5a2b3de2b89",
      "identifier": [ {
        "value": "NVE06"
      } ],
      "type": [ {
        "coding": [ {
          "code": "PRCP",
          "display": "Out of Hours GP Service (Waveney) - Kirkley Mill Health Centre, Lowestoft"
        } ]
      } ],
      "name": "Out of Hours GP Service (Waveney) - Kirkley Mill Health Centre, Lowestoft"
    }
  }, {
    "fullUrl": "urn:uuid:2e999a8c-7b54-49c7-84ca-523d6cb8b49f",
    "resource": {
      "resourceType": "ReferralRequest",
      "id": "2e999a8c-7b54-49c7-84ca-523d6cb8b49f",
      "status": "active",
      "intent": "plan",
      "priority": "routine",
      "subject": {
        "reference": "urn:uuid:d25ac86d-cc1c-4b23-9d18-1704036e7a4c"
      },
      "context": {
        "reference": "urn:uuid:b7814d17-0365-4fb2-95f4-a985dc994c71"
      },
      "occurrencePeriod": {
        "start": "2022-05-05T07:31:36+00:00",
        "end": "2022-05-05T08:31:36+00:00"
      },
      "authoredOn": "2021-05-13T17:24:56+00:00",
      "requester": {
        "agent": {
          "reference": "urn:uuid:d433f374-a0e8-4b1f-8d92-da036c1676fb"
        },
        "onBehalfOf": {
          "reference": "urn:uuid:e8a19cd9-9f20-42e9-9b1c-53d98e8b8f96"
        }
      },
      "recipient": [ {
        "reference": "urn:uuid:043ebdbc-e401-4901-a9b6-998e512ff481"
      }, {
        "reference": "urn:uuid:65ab3cef-00c8-43a2-935a-5826b2c4eda9"
      } ],
      "reasonReference": [ {
        "reference": "urn:uuid:0f2504f4-8e30-4264-8784-1da33b26b6ce"
      } ],
      "supportingInfo": [ {
        "reference": "urn:uuid:3cc529ed-fc2c-4ba0-a44b-ac0b8f5cfaa3"
      } ]
    }
  }, {
    "fullUrl": "urn:uuid:3cc529ed-fc2c-4ba0-a44b-ac0b8f5cfaa3",
    "resource": {
      "resourceType": "ProcedureRequest",
      "id": "3cc529ed-fc2c-4ba0-a44b-ac0b8f5cfaa3",
      "status": "active",
      "intent": "plan",
      "priority": "routine",
      "doNotPerform": false,
      "code": {
        "coding": [ {
          "system": "2.16.840.1.113883.2.1.3.2.4.17.325",
          "code": "Dx10",
          "display": "MUST contact a local service for a Non-Urgent Appointment"
        } ]
      },
      "subject": {
        "reference": "urn:uuid:d25ac86d-cc1c-4b23-9d18-1704036e7a4c"
      },
      "occurrencePeriod": {
        "start": "2022-05-05T07:31:36+00:00",
        "end": "2022-05-05T08:31:36+00:00"
      },
      "reasonReference": [ {
        "reference": "urn:uuid:0f2504f4-8e30-4264-8784-1da33b26b6ce"
      } ]
    }
  }, {
    "fullUrl": "urn:uuid:043ebdbc-e401-4901-a9b6-998e512ff481",
    "resource": {
      "resourceType": "Practitioner",
      "id": "043ebdbc-e401-4901-a9b6-998e512ff481",
      "active": true,
      "telecom": [ {
        "system": "phone",
        "value": "tel:01233505450"
      } ],
      "address": [ {
        "type": "physical",
        "line": [ "Kingston House", "The Long Barrow", "Orbital Park", "Ashford", "Kent" ],
        "postalCode": "TN24 0GP"
      } ]
    }
  }, {
    "fullUrl": "urn:uuid:5ee351bc-8abe-4ca1-9ecb-b0afda660fdc",
    "resource": {
      "resourceType": "Composition",
      "id": "5ee351bc-8abe-4ca1-9ecb-b0afda660fdc",
      "identifier": {
        "use": "usual",
        "value": "895062D0-60A8-4EB4-9017-5F489D53694D"
      },
      "status": "final",
      "type": {
        "coding": [ {
          "system": "http://snomed.info/sct",
          "code": "371531000",
          "display": "Report of clinical encounter (record artifact)"
        } ]
      },
      "subject": {
        "reference": "urn:uuid:d25ac86d-cc1c-4b23-9d18-1704036e7a4c"
      },
      "encounter": {
        "reference": "urn:uuid:b7814d17-0365-4fb2-95f4-a985dc994c71"
      },
      "date": "2021-05-13T17:24:56+00:00",
      "author": [ {
        "reference": "urn:uuid:14a6bb1b-8580-46e7-a0c4-d8c80585bd98"
      } ],
      "title": "111 Report",
      "confidentiality": "R",
      "section": [ {
        "section": [ {
          "title": "Patient's Reported Condition",
          "text": {
            "status": "generated",
            "div": "<div xmlns=\"http://www.w3.org/1999/xhtml\">&lt;content&gt;&amp;lt;CLEO Ref: 2100310450&amp;gt; Test Call &lt;br/&gt;\n                                                    &lt;/content&gt;</div>"
          }
        }, {
          "title": "Pathways Disposition",
          "text": {
            "status": "generated",
            "div": "<div xmlns=\"http://www.w3.org/1999/xhtml\">&lt;content&gt;If a pharmacy service is not available contact the GP practice during normal working hours. (Dx10)&lt;/content&gt;\n                                                    &lt;br/&gt;\n                                                    &lt;br/&gt;\n                                                    &lt;content&gt;Selected Service: 1335970392, Out of Hours GP Service (Waveney) - Kirkley Mill Health Centre, Lowestoft, 111&lt;/content&gt;\n                                                    &lt;br/&gt;</div>"
          }
        }, {
          "title": "Consultation Summary",
          "text": {
            "status": "generated",
            "div": "<div xmlns=\"http://www.w3.org/1999/xhtml\">&lt;content&gt;\n                                                        &lt;content&gt;Worst acne feature, blackheads or whiteheads&lt;/content&gt;\n                                                        &lt;br/&gt;\n                                                        &lt;content&gt;Acne&lt;/content&gt;\n                                                        &lt;br/&gt;\n                                                        &lt;content&gt;Warm to touch&lt;/content&gt;\n                                                        &lt;br/&gt;\n                                                        &lt;content&gt;Illness - test&lt;/content&gt;\n                                                        &lt;br/&gt;\n                                                    &lt;/content&gt;</div>"
          }
        }, {
          "title": "Pathways Assessment",
          "text": {
            "status": "generated",
            "div": "<div xmlns=\"http://www.w3.org/1999/xhtml\">&lt;content&gt;An injury or health problem was the reason for the contact.&lt;/content&gt;\n                                                    &lt;br/&gt;\n                                                    &lt;content&gt;Heavy bleeding had not occurred in the previous 2 hours.&lt;/content&gt;\n                                                    &lt;br/&gt;\n                                                    &lt;content&gt;An illness or health problem was the main problem. - test&lt;/content&gt;\n                                                    &lt;br/&gt;\n                                                    &lt;content&gt;The individual was not fighting for breath.&lt;/content&gt;\n                                                    &lt;br/&gt;\n                                                    &lt;content&gt;The main reason for the assessment was not an allergic reaction, heart attack, chest/upper back pain, probable stroke, recent fit/seizure or suicide attempt.&lt;/content&gt;\n                                                    &lt;br/&gt;\n                                                    &lt;content&gt;The main reason for contact was not new confusion, declared diabetic hypo/hyperglycaemia, or ICD shock.&lt;/content&gt;\n                                                    &lt;br/&gt;\n                                                    &lt;content&gt;The skin on the torso felt normal, warm or hot.&lt;/content&gt;\n                                                    &lt;br/&gt;\n                                                    &lt;content&gt;The main problem was not a rash, itch, jaundice, skin lumps or abnormal bruising.&lt;/content&gt;\n                                                    &lt;br/&gt;\n                                                    &lt;content&gt;The main problem was acne, spots or pimples.&lt;/content&gt;\n                                                    &lt;br/&gt;\n                                                    &lt;content&gt;The worst problem with the acne was blackheads or white heads.&lt;/content&gt;\n                                                    &lt;br/&gt;\n                                                    &lt;content&gt;The problem had not persisted for 3 months or got worse over that time.&lt;/content&gt;\n                                                    &lt;br/&gt;</div>"
          }
        }, {
          "title": "Advice Given",
          "text": {
            "status": "generated",
            "div": "<div xmlns=\"http://www.w3.org/1999/xhtml\">&lt;content&gt;Speak to a pharmacist for advice on suitable treatment.&lt;/content&gt;\n                                                    &lt;br/&gt;\n                                                    &lt;content&gt;If there are any new symptoms, or if the condition gets worse, changes or you have any other concerns, call us back.&lt;/content&gt;\n                                                    &lt;br/&gt;</div>"
          }
        }, {
          "title": "SCR Consent",
          "text": {
            "status": "generated",
            "div": "<div xmlns=\"http://www.w3.org/1999/xhtml\">&lt;content&gt;Consent given for SCR sharing&lt;br/&gt;\n                                                        &lt;br/&gt;\n                                                    &lt;/content&gt;</div>"
          }
        } ]
      }, {
        "title": "ReferralRequest",
        "entry": [ {
          "reference": "urn:uuid:2e999a8c-7b54-49c7-84ca-523d6cb8b49f"
        } ]
      } ]
    }
  }, {
    "fullUrl": "urn:uuid:b8b4ce9b-5f1e-4dc4-aa0e-c6871c18b2b9",
    "resource": {
      "resourceType": "Consent",
      "id": "b8b4ce9b-5f1e-4dc4-aa0e-c6871c18b2b9",
      "identifier": {
        "use": "usual",
        "value": "895062D0-60A8-4EB4-9017-5F489D53694D"
      },
      "status": "active",
      "patient": {
        "reference": "urn:uuid:d25ac86d-cc1c-4b23-9d18-1704036e7a4c"
      },
      "period": {
        "start": "2021-05-13T17:24:56+00:00"
      },
      "consentingParty": [ {
        "reference": "urn:uuid:d25ac86d-cc1c-4b23-9d18-1704036e7a4c"
      } ],
      "action": [ {
        "coding": [ {
          "system": "http://snomed.info/sct",
          "code": "425691002",
          "display": "Consent given for electronic record sharing"
        } ],
        "text": "Consent given for electronic record sharing"
      } ],
      "organization": [ {
        "reference": "urn:uuid:e8a19cd9-9f20-42e9-9b1c-53d98e8b8f96"
      } ],
      "policyRule": "http://hl7.org/fhir/ConsentPolicy/opt-out",
      "data": [ {
        "meaning": "related",
        "reference": {
          "reference": "urn:uuid:b7814d17-0365-4fb2-95f4-a985dc994c71"
        }
      } ]
    }
  }, {
    "fullUrl": "urn:uuid:0f2504f4-8e30-4264-8784-1da33b26b6ce",
    "resource": {
      "resourceType": "Condition",
      "id": "0f2504f4-8e30-4264-8784-1da33b26b6ce",
      "clinicalStatus": "active",
      "verificationStatus": "unknown",
      "subject": {
        "reference": "urn:uuid:d25ac86d-cc1c-4b23-9d18-1704036e7a4c"
      },
      "context": {
        "reference": "urn:uuid:b7814d17-0365-4fb2-95f4-a985dc994c71"
      }
    }
  }, {
    "fullUrl": "urn:uuid:7c7695ac-e47c-4e5d-8f30-07931916d247",
    "resource": {
      "resourceType": "Observation",
      "id": "7c7695ac-e47c-4e5d-8f30-07931916d247",
      "status": "final",
      "code": {
        "coding": [ {
          "system": "http://snomed.info/sct",
          "code": "33962009",
          "display": "Presenting complaint"
        } ]
      },
      "subject": {
        "reference": "urn:uuid:d25ac86d-cc1c-4b23-9d18-1704036e7a4c"
      },
      "context": {
        "reference": "urn:uuid:b7814d17-0365-4fb2-95f4-a985dc994c71"
      },
      "valueString": "<CLEO Ref: 2100310450> Test Call "
    }
  }, {
    "fullUrl": "urn:uuid:5273e57d-5d9d-4c13-a2ba-d324157707f7",
    "resource": {
      "resourceType": "PractitionerRole",
      "id": "5273e57d-5d9d-4c13-a2ba-d324157707f7",
      "practitioner": {
        "reference": "urn:uuid:14a6bb1b-8580-46e7-a0c4-d8c80585bd98"
      },
      "organization": {
        "reference": "urn:uuid:fb216504-b126-4b82-aafa-a7d3fb51563e"
      },
      "code": [ {
        "coding": [ {
          "system": "2.16.840.1.113883.2.1.3.2.4.17.196",
          "code": "NR1690",
          "display": "Call Operator"
        } ]
      } ]
    }
  }, {
    "fullUrl": "urn:uuid:fb216504-b126-4b82-aafa-a7d3fb51563e",
    "resource": {
      "resourceType": "Organization",
      "id": "fb216504-b126-4b82-aafa-a7d3fb51563e",
      "identifier": [ {
        "value": "NTN08"
      } ],
      "name": "Norfolk and Wisbech 111"
    }
  }, {
    "fullUrl": "urn:uuid:822cc6da-c8d0-451d-bd2d-7aebdd0ba64f",
    "resource": {
      "resourceType": "RelatedPerson",
      "id": "822cc6da-c8d0-451d-bd2d-7aebdd0ba64f",
      "patient": {
        "reference": "urn:uuid:d25ac86d-cc1c-4b23-9d18-1704036e7a4c"
      },
      "relationship": {
        "coding": [ {
          "system": "http://hl7.org/fhir/v2/0131",
          "code": "C",
          "display": "Emergency Contact"
        } ]
      },
      "telecom": [ {
        "system": "phone",
        "value": "tel:01233123123"
      } ]
    }
  }, {
    "fullUrl": "urn:uuid:d433f374-a0e8-4b1f-8d92-da036c1676fb",
    "resource": {
      "resourceType": "Device",
      "id": "d433f374-a0e8-4b1f-8d92-da036c1676fb",
      "model": "111 Adaptor",
      "version": "1.0.1"
    }
  }, {
    "fullUrl": "urn:uuid:ed00b288-803f-4a56-8dbb-33728142e24f",
    "resource": {
      "resourceType": "List",
      "id": "ed00b288-803f-4a56-8dbb-33728142e24f",
      "status": "current",
      "mode": "working",
      "title": "111 Report List",
      "code": {
        "coding": [ {
          "system": "http://snomed.info/sct",
          "code": "225390008",
          "display": "Triage"
        } ]
      },
      "subject": {
        "reference": "urn:uuid:d25ac86d-cc1c-4b23-9d18-1704036e7a4c"
      },
      "encounter": {
        "reference": "urn:uuid:b7814d17-0365-4fb2-95f4-a985dc994c71"
      },
      "date": "2021-05-13T17:24:56+00:00",
      "source": {
        "reference": "urn:uuid:d433f374-a0e8-4b1f-8d92-da036c1676fb"
      },
      "orderedBy": {
        "coding": [ {
          "system": "http://hl7.org/fhir/list-order",
          "code": "event-date",
          "display": "Sorted by Event Date"
        } ]
      },
      "entry": [ {
        "item": {
          "reference": "urn:uuid:5d6939f9-953e-41d2-8cd6-25a08d190ddf"
        }
      }, {
        "item": {
          "reference": "urn:uuid:bcd951a3-9e79-4b09-bed2-58128a463247"
        }
      }, {
        "item": {
          "reference": "urn:uuid:7c7695ac-e47c-4e5d-8f30-07931916d247"
        }
      }, {
        "item": {
          "reference": "urn:uuid:043ebdbc-e401-4901-a9b6-998e512ff481"
        }
      }, {
        "item": {
          "reference": "urn:uuid:266aab0d-75c0-409e-980e-88083cd46331"
        }
      }, {
        "item": {
          "reference": "urn:uuid:822cc6da-c8d0-451d-bd2d-7aebdd0ba64f"
        }
      }, {
        "item": {
          "reference": "urn:uuid:63d74426-feab-4319-8b80-e5a2b3de2b89"
        }
      }, {
        "item": {
          "reference": "urn:uuid:fb216504-b126-4b82-aafa-a7d3fb51563e"
        }
      }, {
        "item": {
          "reference": "urn:uuid:0f2504f4-8e30-4264-8784-1da33b26b6ce"
        }
      }, {
        "item": {
          "reference": "urn:uuid:e8a19cd9-9f20-42e9-9b1c-53d98e8b8f96"
        }
      }, {
        "item": {
          "reference": "urn:uuid:14a6bb1b-8580-46e7-a0c4-d8c80585bd98"
        }
      }, {
        "item": {
          "reference": "urn:uuid:2e999a8c-7b54-49c7-84ca-523d6cb8b49f"
        }
      } ]
    }
  } ]
}