{
  "resourceType": "Bundle",
  "identifier": {
    "type": {
      "text": "ClinicalDocument VersionNumber"
    },
    "value": "1"
  },
  "type": "message",
  "entry": [ {
    "fullUrl": "urn:uuid:05040617-33BA-4344-AA59-281CF2FE63CA",
    "resource": {
      "resourceType": "MessageHeader",
      "id": "05040617-33BA-4344-AA59-281CF2FE63CA",
      "event": {
        "system": "https://fhir.nhs.uk/STU3/CodeSystem/EventType-1",
        "code": "referral-1",
        "display": "Referral"
      },
      "destination": [ {
        "endpoint": "urn:nhs-uk:addressing:ods:FHR04RPX:DOSServiceID:2000038667"
      } ],
      "timestamp": "2021-04-06T15:19:34.000+00:00",
      "source": {
        "name": "NHS 111 Adaptor",
        "endpoint": "http://localhost:8080/report"
      },
      "reason": {
        "coding": [ {
          "system": "urn:nhs-itk:ns:201005:interaction",
          "code": "urn:nhs-itk:interaction:primaryOutofHourRecipientNHS111CDADocument-v2-0"
        } ]
      }
    }
  }, {
    "fullUrl": "urn:uuid:ae870887-c810-45ba-b813-e0cce9bd82aa",
    "resource": {
      "resourceType": "Encounter",
      "id": "ae870887-c810-45ba-b813-e0cce9bd82aa",
      "identifier": [ {
        "system": "2.16.840.1.113883.2.1.3.2.4.18.34",
        "value": "AdastraCaseGUID34"
      }, {
        "system": "2.16.840.1.113883.2.1.3.2.4.18.35",
        "value": "AdastraCaseID35"
      }, {
        "system": "2.16.840.1.113883.2.1.3.2.4.18.49",
        "value": "AdastraCaseGUID49"
      } ],
      "status": "finished",
      "type": [ {
        "text": "111 Encounter Referral"
      } ],
      "subject": {
        "reference": "urn:uuid:fbbb29d1-e512-4a31-ab01-6a29e1799909"
      },
      "participant": [ {
        "type": [ {
          "coding": [ {
            "system": "http://hl7.org/fhir/ValueSet/encounter-participant-type",
            "code": "PPRF",
            "display": "Author"
          } ]
        } ],
        "individual": {
          "reference": "urn:uuid:f681d2d5-457b-4027-b1e1-6b754c9105e4"
        }
      }, {
        "type": [ {
          "text": "Informant"
        } ],
        "individual": {
          "reference": "urn:uuid:d0001d13-c0e9-4544-910b-e9530bec513b"
        }
      }, {
        "type": [ {
          "coding": [ {
            "system": "http://hl7.org/fhir/ValueSet/encounter-participant-type",
            "code": "ATND",
            "display": "Responsible Party"
          } ]
        } ],
        "individual": {
          "reference": "urn:uuid:7e450dad-3b80-4ed3-ab4e-0bf39d811c7c"
        }
      } ],
      "period": {
        "start": "2021-04-06T15:19:34+00:00"
      },
      "location": [ {
        "location": {
          "reference": "urn:uuid:2d7952ca-3f34-41be-940c-359f53871482"
        },
        "status": "completed"
      } ],
      "serviceProvider": {
        "reference": "urn:uuid:d5b64025-8750-4585-ac33-b42b9bba5df6"
      }
    }
  }, {
    "fullUrl": "urn:uuid:d5b64025-8750-4585-ac33-b42b9bba5df6",
    "resource": {
      "resourceType": "Organization",
      "id": "d5b64025-8750-4585-ac33-b42b9bba5df6",
      "active": true,
      "type": [ {
        "text": "CST"
      } ],
      "name": "CustodianName"
    }
  }, {
    "fullUrl": "urn:uuid:f681d2d5-457b-4027-b1e1-6b754c9105e4",
    "resource": {
      "resourceType": "Practitioner",
      "id": "f681d2d5-457b-4027-b1e1-6b754c9105e4",
      "active": true,
      "name": [ {
        "use": "official",
        "family": "AuthorAssignedPerson FamilyName",
        "given": [ "AuthorAssignedPerson GivenName" ]
      } ]
    }
  }, {
    "fullUrl": "urn:uuid:d0001d13-c0e9-4544-910b-e9530bec513b",
    "resource": {
      "resourceType": "RelatedPerson",
      "id": "d0001d13-c0e9-4544-910b-e9530bec513b",
      "active": true,
      "patient": {
        "reference": "urn:uuid:fbbb29d1-e512-4a31-ab01-6a29e1799909"
      },
      "relationship": {
        "coding": [ {
          "system": "2.16.840.1.113883.2.1.3.2.4.16.45",
          "code": "16",
          "display": "Relative"
        } ]
      },
      "name": [ {
        "text": "RelatedPerson Name"
      } ],
      "telecom": [ {
        "system": "phone",
        "value": "tel:01111111111",
        "use": "home"
      } ],
      "gender": "unknown"
    }
  }, {
    "fullUrl": "urn:uuid:7e450dad-3b80-4ed3-ab4e-0bf39d811c7c",
    "resource": {
      "resourceType": "Practitioner",
      "id": "7e450dad-3b80-4ed3-ab4e-0bf39d811c7c",
      "active": true,
      "name": [ {
        "use": "official",
        "family": "ResponsablePartyMD FamilyName",
        "given": [ "ResponsablePartyMD GivenName" ]
      } ]
    }
  }, {
    "fullUrl": "urn:uuid:2d7952ca-3f34-41be-940c-359f53871482",
    "resource": {
      "resourceType": "Location",
      "id": "2d7952ca-3f34-41be-940c-359f53871482",
      "name": "Incident Location",
      "address": {
        "type": "physical",
        "line": [ "HealthCareFacility AddressLine1", "HealthCareFacility AddressLine2", "HealthCareFacility AddressLine3", "HealthCareFacility AddressLine4", "HealthCareFacility AddressLine5" ],
        "postalCode": "LOH25 4NS"
      }
    }
  }, {
    "fullUrl": "urn:uuid:fbbb29d1-e512-4a31-ab01-6a29e1799909",
    "resource": {
      "resourceType": "Patient",
      "id": "fbbb29d1-e512-4a31-ab01-6a29e1799909",
      "active": true,
      "name": [ {
        "use": "official",
        "family": "Patient Family Name",
        "given": [ "Patient Given Name" ]
      } ],
      "telecom": [ {
        "system": "phone",
        "value": "tel:000000000000",
        "use": "home"
      }, {
        "system": "phone",
        "value": "tel:000000000000"
      } ],
      "gender": "other",
      "birthDate": "1990-02-02",
      "address": [ {
        "use": "home",
        "line": [ "Home Address Line 1", "Home Address Line 2", "Home Address Line 3", "Home Address Line 4", "Home Address Line 5" ],
        "postalCode": "HA25 4NS"
      }, {
        "type": "physical",
        "line": [ "Home Address Line 1", "Home Address Line 2", "Home Address Line 3", "Home Address Line 4", "Home Address Line 5" ],
        "postalCode": "PH25 4NS"
      } ]
    }
  }, {
    "fullUrl": "urn:uuid:81a74edd-f5e7-4d54-b997-3660406d9fb5",
    "resource": {
      "resourceType": "HealthcareService",
      "id": "81a74edd-f5e7-4d54-b997-3660406d9fb5",
      "active": true,
      "providedBy": {
        "reference": "urn:uuid:bccc56da-09e7-487b-8533-f4b29362ce53"
      },
      "location": [ {
        "reference": "urn:uuid:f3d2508e-b5f2-4e8c-9bd0-b2dfc8c839a2"
      } ],
      "name": "InformationRecipient IntendedRecipient Name FHR0"
    }
  }, {
    "fullUrl": "urn:uuid:f3d2508e-b5f2-4e8c-9bd0-b2dfc8c839a2",
    "resource": {
      "resourceType": "Location",
      "id": "f3d2508e-b5f2-4e8c-9bd0-b2dfc8c839a2",
      "managingOrganization": {
        "reference": "urn:uuid:bccc56da-09e7-487b-8533-f4b29362ce53"
      }
    }
  }, {
    "fullUrl": "urn:uuid:bccc56da-09e7-487b-8533-f4b29362ce53",
    "resource": {
      "resourceType": "Organization",
      "id": "bccc56da-09e7-487b-8533-f4b29362ce53",
      "identifier": [ {
        "value": "FHR04RPX"
      } ],
      "type": [ {
        "coding": [ {
          "code": "PRCP",
          "display": "InformationRecipient IntendedRecipient Name FHR0"
        } ]
      } ],
      "name": "InformationRecipient IntendedRecipient Name FHR0"
    }
  }, {
    "fullUrl": "urn:uuid:6a177cfd-8c2d-4aee-9ce0-9865f7eeeedb",
    "resource": {
      "resourceType": "ReferralRequest",
      "id": "6a177cfd-8c2d-4aee-9ce0-9865f7eeeedb",
      "status": "active",
      "intent": "plan",
      "priority": "routine",
      "subject": {
        "reference": "urn:uuid:fbbb29d1-e512-4a31-ab01-6a29e1799909"
      },
      "context": {
        "reference": "urn:uuid:ae870887-c810-45ba-b813-e0cce9bd82aa"
      },
      "occurrencePeriod": {
        "start": "2022-04-07T07:52:14+00:00",
        "end": "2022-04-07T08:52:14+00:00"
      },
      "authoredOn": "2021-04-06T15:19:29+00:00",
      "requester": {
        "agent": {
          "reference": "urn:uuid:3ffd0ba5-7f68-40bf-aa04-18e194569ab3"
        },
        "onBehalfOf": {
          "reference": "urn:uuid:d5b64025-8750-4585-ac33-b42b9bba5df6"
        }
      },
      "recipient": [ {
        "reference": "urn:uuid:81a74edd-f5e7-4d54-b997-3660406d9fb5"
      } ],
      "reasonReference": [ {
        "reference": "urn:uuid:dbe366b7-1251-4af8-bfd6-932a3d417f14"
      } ],
      "supportingInfo": [ {
        "reference": "urn:uuid:ee868e2b-b5fa-4ec0-899b-297355c719e5"
      } ]
    }
  }, {
    "fullUrl": "urn:uuid:ee868e2b-b5fa-4ec0-899b-297355c719e5",
    "resource": {
      "resourceType": "ProcedureRequest",
      "id": "ee868e2b-b5fa-4ec0-899b-297355c719e5",
      "status": "active",
      "intent": "plan",
      "priority": "routine",
      "doNotPerform": false,
      "code": {
        "coding": [ {
          "system": "2.16.840.1.113883.2.1.3.2.4.17.325",
          "code": "DispoCodeDx87",
          "display": "DispoName - Repeat Prescription required within 24 hours"
        } ]
      },
      "subject": {
        "reference": "urn:uuid:fbbb29d1-e512-4a31-ab01-6a29e1799909"
      },
      "occurrencePeriod": {
        "start": "2022-04-07T07:52:14+00:00",
        "end": "2022-04-07T08:52:14+00:00"
      },
      "reasonReference": [ {
        "reference": "urn:uuid:dbe366b7-1251-4af8-bfd6-932a3d417f14"
      } ]
    }
  }, {
    "fullUrl": "urn:uuid:ca63d2d3-1446-4a94-bfe5-70961313f990",
    "resource": {
      "resourceType": "Composition",
      "id": "ca63d2d3-1446-4a94-bfe5-70961313f990",
      "identifier": {
        "use": "usual",
        "value": "E2DF04F7-95CA-40AD-808D-797C0A89E39C"
      },
      "status": "final",
      "type": {
        "coding": [ {
          "system": "http://snomed.info/sct",
          "code": "371531000",
          "display": "Report of clinical encounter (record artifact)"
        } ]
      },
      "subject": {
        "reference": "urn:uuid:fbbb29d1-e512-4a31-ab01-6a29e1799909"
      },
      "encounter": {
        "reference": "urn:uuid:ae870887-c810-45ba-b813-e0cce9bd82aa"
      },
      "date": "2022-04-07T07:52:14+00:00",
      "author": [ {
        "reference": "urn:uuid:f681d2d5-457b-4027-b1e1-6b754c9105e4"
      } ],
      "title": "111 Report",
      "confidentiality": "N",
      "section": [ {
        "section": [ {
          "title": "ComponentTitle - Patient's Reported Condition",
          "text": {
            "status": "generated",
            "div": "<div xmlns=\"http://www.w3.org/1999/xhtml\">&lt;content&gt;ComponentText - Pharmacy ITK Testing&lt;/content&gt;\n                                                    &lt;br/&gt;</div>"
          }
        }, {
          "title": "ComponentTitle - Pathways Disposition",
          "text": {
            "status": "generated",
            "div": "<div xmlns=\"http://www.w3.org/1999/xhtml\">ComponentText - Repeat Prescription required within 24 hours (Dx87)                                         &lt;br/&gt;\n                                                    &lt;br/&gt;                                         Selected service: Springvale, Fraser Road, Kings Worthy, Winchester&lt;br/&gt;</div>"
          }
        }, {
          "title": "ComponentTitle - Consultation Summary",
          "text": {
            "status": "generated",
            "div": "<div xmlns=\"http://www.w3.org/1999/xhtml\">ComponentText - Prescription request&lt;br/&gt;Not enough medication until surgery opens&lt;br/&gt;No medication available&lt;br/&gt;Next dose due in over 12 hours time&lt;br/&gt;</div>"
          }
        }, {
          "title": "ComponentTitle - Pathways Assessment",
          "text": {
            "status": "generated",
            "div": "<div xmlns=\"http://www.w3.org/1999/xhtml\">ComponentText - Reason for call menu - continued to next list.&lt;br/&gt;A prescription request was the main reason for the contact.&lt;br/&gt;The main reason for the contact was not a new or worsening illness.&lt;br/&gt;The individual did not have enough medication to last until the surgery next opened.&lt;br/&gt;The medication was suitable for repeat prescribing without further consultation.&lt;br/&gt;The individual had no medication available.&lt;br/&gt;The next dose was due in over 12 hours time.&lt;br/&gt;Instructions given were: The individual needs a repeat prescription.&lt;br/&gt;Directory of Services referral: Springvale, Fraser Road, Kings Worthy, Winchester&lt;br/&gt;</div>"
          }
        }, {
          "title": "ComponentTitle - Advice Given",
          "text": {
            "status": "generated",
            "div": "<div xmlns=\"http://www.w3.org/1999/xhtml\">ComponentText - I will arrange for a clinician or pharmacist to speak to the individual.&lt;br/&gt;IF THE RECOMMENDED TIMEFRAME FALLS OUTSIDE OPENING HOURS: I will arrange for a clinician to speak to the individual.&lt;br/&gt;\n                                                    &lt;br/&gt;</div>"
          }
        }, {
          "title": "ComponentTitle - Information And Advice Given"
        }, {
          "title": "ComponentTitle - Disposition",
          "text": {
            "status": "generated",
            "div": "<div xmlns=\"http://www.w3.org/1999/xhtml\">&lt;content&gt;ComponentText - Repeat Prescription required within 24 hours&lt;br/&gt;\n                                                    &lt;/content&gt;\n                                                    &lt;br/&gt;\n                                                    &lt;br/&gt;</div>"
          }
        } ]
      }, {
        "title": "CarePlan",
        "entry": [ {
          "reference": "urn:uuid:3da9f276-b59c-4bc0-9481-f3eb5a695ef1"
        } ]
      }, {
        "title": "ReferralRequest",
        "entry": [ {
          "reference": "urn:uuid:6a177cfd-8c2d-4aee-9ce0-9865f7eeeedb"
        } ]
      }, {
        "title": "QuestionnaireResponse",
        "entry": [ {
          "reference": "urn:uuid:bd3e8873-aeb3-4473-acaf-083d1e8ff553"
        } ]
      }, {
        "title": "QuestionnaireResponse",
        "entry": [ {
          "reference": "urn:uuid:d05e49b6-5c35-44f8-b2ee-1ccce44ff723"
        } ]
      }, {
        "title": "QuestionnaireResponse",
        "entry": [ {
          "reference": "urn:uuid:a20e1963-0101-4562-8438-836a14ee1c8d"
        } ]
      }, {
        "title": "QuestionnaireResponse",
        "entry": [ {
          "reference": "urn:uuid:34a36315-9bb7-4dbd-a14c-578d0a2460e4"
        } ]
      }, {
        "title": "QuestionnaireResponse",
        "entry": [ {
          "reference": "urn:uuid:6c2bc0cb-595a-44be-8af9-4fdb6d86b9ec"
        } ]
      }, {
        "title": "QuestionnaireResponse",
        "entry": [ {
          "reference": "urn:uuid:f3e98c94-3eaa-4d68-8e55-9d9af53f26c3"
        } ]
      }, {
        "title": "QuestionnaireResponse",
        "entry": [ {
          "reference": "urn:uuid:c7bf639e-11fb-4668-a25c-0d645057b4e0"
        } ]
      }, {
        "title": "QuestionnaireResponse",
        "entry": [ {
          "reference": "urn:uuid:17d134c6-6dba-4fa8-afda-5255a25afda0"
        } ]
      }, {
        "title": "QuestionnaireResponse",
        "entry": [ {
          "reference": "urn:uuid:d622627b-9ac7-45ac-8e83-878e944d4401"
        } ]
      }, {
        "title": "QuestionnaireResponse",
        "entry": [ {
          "reference": "urn:uuid:69de91c2-84cd-498b-830c-1d65eedecd4a"
        } ]
      }, {
        "title": "QuestionnaireResponse",
        "entry": [ {
          "reference": "urn:uuid:37279f42-7fd7-43ac-8a70-e8f00f4028f0"
        } ]
      }, {
        "title": "QuestionnaireResponse",
        "entry": [ {
          "reference": "urn:uuid:1f9d142f-c8e9-408d-9b83-465b3e82ccae"
        } ]
      }, {
        "title": "QuestionnaireResponse",
        "entry": [ {
          "reference": "urn:uuid:36bf5b6d-b7fb-4a3f-85a9-a0f4f5d5cc3f"
        } ]
      }, {
        "title": "QuestionnaireResponse",
        "entry": [ {
          "reference": "urn:uuid:f5f5e7d8-5adf-4a4d-b0b7-d8eec4f31ce3"
        } ]
      }, {
        "title": "QuestionnaireResponse",
        "entry": [ {
          "reference": "urn:uuid:1572c18f-633a-460a-9c4a-a35dfbfc22ae"
        } ]
      } ]
    }
  }, {
    "fullUrl": "urn:uuid:3da9f276-b59c-4bc0-9481-f3eb5a695ef1",
    "resource": {
      "resourceType": "CarePlan",
      "id": "3da9f276-b59c-4bc0-9481-f3eb5a695ef1",
      "status": "completed",
      "intent": "plan",
      "title": "ComponentTitle - Information And Advice Given",
      "subject": {
        "reference": "urn:uuid:fbbb29d1-e512-4a31-ab01-6a29e1799909"
      },
      "context": {
        "reference": "urn:uuid:ae870887-c810-45ba-b813-e0cce9bd82aa"
      },
      "period": {
        "start": "2021-04-06T15:19:34+00:00"
      },
      "addresses": [ {
        "reference": "urn:uuid:dbe366b7-1251-4af8-bfd6-932a3d417f14"
      } ]
    }
  }, {
    "fullUrl": "urn:uuid:149f54f0-864a-4884-b654-b5d991240ad9",
    "resource": {
      "resourceType": "Consent",
      "id": "149f54f0-864a-4884-b654-b5d991240ad9",
      "identifier": {
        "use": "usual",
        "value": "E2DF04F7-95CA-40AD-808D-797C0A89E39C"
      },
      "status": "active",
      "patient": {
        "reference": "urn:uuid:fbbb29d1-e512-4a31-ab01-6a29e1799909"
      },
      "period": {
        "start": "2021-04-06T15:19:34+00:00"
      },
      "consentingParty": [ {
        "reference": "urn:uuid:fbbb29d1-e512-4a31-ab01-6a29e1799909"
      } ],
      "action": [ {
        "coding": [ {
          "system": "http://snomed.info/sct",
          "code": "425691002",
          "display": "Consent given for electronic record sharing"
        } ],
        "text": "Consent given for electronic record sharing"
      } ],
      "organization": [ {
        "reference": "urn:uuid:d5b64025-8750-4585-ac33-b42b9bba5df6"
      } ],
      "policyRule": "http://hl7.org/fhir/ConsentPolicy/opt-out",
      "data": [ {
        "meaning": "related",
        "reference": {
          "reference": "urn:uuid:ae870887-c810-45ba-b813-e0cce9bd82aa"
        }
      } ]
    }
  }, {
    "fullUrl": "urn:uuid:dbe366b7-1251-4af8-bfd6-932a3d417f14",
    "resource": {
      "resourceType": "Condition",
      "id": "dbe366b7-1251-4af8-bfd6-932a3d417f14",
      "clinicalStatus": "active",
      "verificationStatus": "unknown",
      "subject": {
        "reference": "urn:uuid:fbbb29d1-e512-4a31-ab01-6a29e1799909"
      },
      "context": {
        "reference": "urn:uuid:ae870887-c810-45ba-b813-e0cce9bd82aa"
      },
      "evidence": [ {
        "detail": [ {
          "reference": "urn:uuid:bd3e8873-aeb3-4473-acaf-083d1e8ff553"
        } ]
      }, {
        "detail": [ {
          "reference": "urn:uuid:d05e49b6-5c35-44f8-b2ee-1ccce44ff723"
        } ]
      }, {
        "detail": [ {
          "reference": "urn:uuid:a20e1963-0101-4562-8438-836a14ee1c8d"
        } ]
      }, {
        "detail": [ {
          "reference": "urn:uuid:34a36315-9bb7-4dbd-a14c-578d0a2460e4"
        } ]
      }, {
        "detail": [ {
          "reference": "urn:uuid:6c2bc0cb-595a-44be-8af9-4fdb6d86b9ec"
        } ]
      }, {
        "detail": [ {
          "reference": "urn:uuid:f3e98c94-3eaa-4d68-8e55-9d9af53f26c3"
        } ]
      }, {
        "detail": [ {
          "reference": "urn:uuid:c7bf639e-11fb-4668-a25c-0d645057b4e0"
        } ]
      }, {
        "detail": [ {
          "reference": "urn:uuid:17d134c6-6dba-4fa8-afda-5255a25afda0"
        } ]
      }, {
        "detail": [ {
          "reference": "urn:uuid:d622627b-9ac7-45ac-8e83-878e944d4401"
        } ]
      }, {
        "detail": [ {
          "reference": "urn:uuid:69de91c2-84cd-498b-830c-1d65eedecd4a"
        } ]
      }, {
        "detail": [ {
          "reference": "urn:uuid:37279f42-7fd7-43ac-8a70-e8f00f4028f0"
        } ]
      }, {
        "detail": [ {
          "reference": "urn:uuid:1f9d142f-c8e9-408d-9b83-465b3e82ccae"
        } ]
      }, {
        "detail": [ {
          "reference": "urn:uuid:36bf5b6d-b7fb-4a3f-85a9-a0f4f5d5cc3f"
        } ]
      }, {
        "detail": [ {
          "reference": "urn:uuid:f5f5e7d8-5adf-4a4d-b0b7-d8eec4f31ce3"
        } ]
      }, {
        "detail": [ {
          "reference": "urn:uuid:1572c18f-633a-460a-9c4a-a35dfbfc22ae"
        } ]
      } ]
    }
  }, {
    "fullUrl": "urn:uuid:bd3e8873-aeb3-4473-acaf-083d1e8ff553",
    "resource": {
      "resourceType": "QuestionnaireResponse",
      "id": "bd3e8873-aeb3-4473-acaf-083d1e8ff553",
      "identifier": {
        "value": "60319"
      },
      "questionnaire": {
        "reference": "urn:uuid:cc767ddf-192c-4862-93aa-5f85813f7dcd"
      },
      "status": "completed",
      "subject": {
        "reference": "urn:uuid:fbbb29d1-e512-4a31-ab01-6a29e1799909"
      },
      "context": {
        "reference": "urn:uuid:ae870887-c810-45ba-b813-e0cce9bd82aa"
      },
      "authored": "2021-04-06T15:19:34+00:00",
      "item": [ {
        "linkId": "Tx220109",
        "text": "What is the reason for the contact?",
        "answer": [ {
          "valueString": "more"
        } ]
      } ]
    }
  }, {
    "fullUrl": "urn:uuid:cc767ddf-192c-4862-93aa-5f85813f7dcd",
    "resource": {
      "resourceType": "Questionnaire",
      "id": "cc767ddf-192c-4862-93aa-5f85813f7dcd",
      "identifier": [ {
        "value": "60319"
      } ],
      "version": "2021-04-06T15:19:34.083Z",
      "status": "active",
      "experimental": false,
      "date": "2021-04-06T15:19:34+00:00",
      "publisher": "User ID: 'HADFIELDR' User name: 'Ryan Hadfield' User skill set: 'T3'",
      "lastReviewDate": "2021-04-06",
      "contact": [ {
        "telecom": [ {
          "system": "phone",
          "value": "0111 111 1111"
        } ]
      } ],
      "subjectType": [ "Patient" ],
      "item": [ {
        "linkId": "60319",
        "prefix": "5",
        "text": "What is the reason for the contact?",
        "type": "choice",
        "required": true,
        "repeats": false,
        "option": [ {
          "valueString": "an injury or other health problem, Selected: false"
        }, {
          "valueString": "a need to access another healthcare service, Selected: false"
        }, {
          "valueString": "a healthcare professional requesting contact with another clinician, Selected: false"
        }, {
          "valueString": "a report of results or tests, Selected: false"
        }, {
          "valueString": "more, Selected: true"
        } ]
      } ]
    }
  }, {
    "fullUrl": "urn:uuid:d05e49b6-5c35-44f8-b2ee-1ccce44ff723",
    "resource": {
      "resourceType": "QuestionnaireResponse",
      "id": "d05e49b6-5c35-44f8-b2ee-1ccce44ff723",
      "identifier": {
        "value": "60319"
      },
      "questionnaire": {
        "reference": "urn:uuid:451dd4f9-9115-4648-b5d9-40eadcb61d9c"
      },
      "status": "completed",
      "subject": {
        "reference": "urn:uuid:fbbb29d1-e512-4a31-ab01-6a29e1799909"
      },
      "context": {
        "reference": "urn:uuid:ae870887-c810-45ba-b813-e0cce9bd82aa"
      },
      "authored": "2021-04-06T15:19:34+00:00",
      "item": [ {
        "linkId": "Tx221793",
        "text": "STRING:to'Social&information'-further'Callreason'menu",
        "answer": [ {
          "valueString": "\"present\""
        } ]
      } ]
    }
  }, {
    "fullUrl": "urn:uuid:451dd4f9-9115-4648-b5d9-40eadcb61d9c",
    "resource": {
      "resourceType": "Questionnaire",
      "id": "451dd4f9-9115-4648-b5d9-40eadcb61d9c",
      "identifier": [ {
        "value": "60319"
      } ],
      "version": "2021-04-06T15:19:34.083Z",
      "status": "active",
      "experimental": false,
      "date": "2021-04-06T15:19:34+00:00",
      "publisher": "User ID: 'HADFIELDR' User name: 'Ryan Hadfield' User skill set: 'T3'",
      "lastReviewDate": "2021-04-06",
      "contact": [ {
        "telecom": [ {
          "system": "phone",
          "value": "0111 111 1111"
        } ]
      } ],
      "subjectType": [ "Patient" ],
      "item": [ {
        "linkId": "60319",
        "prefix": "600",
        "text": "STRING:to'Social&information'-further'Callreason'menu",
        "type": "choice",
        "required": true,
        "repeats": false,
        "option": [ {
          "valueString": "\"present\", Selected: true"
        } ]
      } ]
    }
  }, {
    "fullUrl": "urn:uuid:a20e1963-0101-4562-8438-836a14ee1c8d",
    "resource": {
      "resourceType": "QuestionnaireResponse",
      "id": "a20e1963-0101-4562-8438-836a14ee1c8d",
      "identifier": {
        "value": "60319"
      },
      "questionnaire": {
        "reference": "urn:uuid:3691fa1e-36d6-48c1-a234-45c10475a853"
      },
      "status": "completed",
      "subject": {
        "reference": "urn:uuid:fbbb29d1-e512-4a31-ab01-6a29e1799909"
      },
      "context": {
        "reference": "urn:uuid:ae870887-c810-45ba-b813-e0cce9bd82aa"
      },
      "authored": "2021-04-06T15:19:34+00:00"
    }
  }, {
    "fullUrl": "urn:uuid:3691fa1e-36d6-48c1-a234-45c10475a853",
    "resource": {
      "resourceType": "Questionnaire",
      "id": "3691fa1e-36d6-48c1-a234-45c10475a853",
      "identifier": [ {
        "value": "60319"
      } ],
      "version": "2021-04-06T15:19:34.083Z",
      "status": "active",
      "experimental": false,
      "date": "2021-04-06T15:19:34+00:00",
      "publisher": "User ID: 'HADFIELDR' User name: 'Ryan Hadfield' User skill set: 'T3'",
      "lastReviewDate": "2021-04-06",
      "contact": [ {
        "telecom": [ {
          "system": "phone",
          "value": "0111 111 1111"
        } ]
      } ],
      "subjectType": [ "Patient" ]
    }
  }, {
    "fullUrl": "urn:uuid:34a36315-9bb7-4dbd-a14c-578d0a2460e4",
    "resource": {
      "resourceType": "QuestionnaireResponse",
      "id": "34a36315-9bb7-4dbd-a14c-578d0a2460e4",
      "identifier": {
        "value": "60319"
      },
      "questionnaire": {
        "reference": "urn:uuid:c59ab917-03b9-446e-a442-676d05fcde33"
      },
      "status": "completed",
      "subject": {
        "reference": "urn:uuid:fbbb29d1-e512-4a31-ab01-6a29e1799909"
      },
      "context": {
        "reference": "urn:uuid:ae870887-c810-45ba-b813-e0cce9bd82aa"
      },
      "authored": "2021-04-06T15:19:34+00:00",
      "item": [ {
        "linkId": "Tx221804",
        "text": "STRING:transfertofurthermenuquestionestablishedinEntryFlow",
        "answer": [ {
          "valueString": "\"present\""
        } ]
      } ]
    }
  }, {
    "fullUrl": "urn:uuid:c59ab917-03b9-446e-a442-676d05fcde33",
    "resource": {
      "resourceType": "Questionnaire",
      "id": "c59ab917-03b9-446e-a442-676d05fcde33",
      "identifier": [ {
        "value": "60319"
      } ],
      "version": "2021-04-06T15:19:34.083Z",
      "status": "active",
      "experimental": false,
      "date": "2021-04-06T15:19:34+00:00",
      "publisher": "User ID: 'HADFIELDR' User name: 'Ryan Hadfield' User skill set: 'T3'",
      "lastReviewDate": "2021-04-06",
      "contact": [ {
        "telecom": [ {
          "system": "phone",
          "value": "0111 111 1111"
        } ]
      } ],
      "subjectType": [ "Patient" ],
      "item": [ {
        "linkId": "60319",
        "prefix": "41",
        "text": "STRING:transfertofurthermenuquestionestablishedinEntryFlow",
        "type": "choice",
        "required": true,
        "repeats": false,
        "option": [ {
          "valueString": "\"present\", Selected: true"
        } ]
      } ]
    }
  }, {
    "fullUrl": "urn:uuid:6c2bc0cb-595a-44be-8af9-4fdb6d86b9ec",
    "resource": {
      "resourceType": "QuestionnaireResponse",
      "id": "6c2bc0cb-595a-44be-8af9-4fdb6d86b9ec",
      "identifier": {
        "value": "60319"
      },
      "questionnaire": {
        "reference": "urn:uuid:5940ce9d-6b27-4f0f-a425-8268afa6603e"
      },
      "status": "completed",
      "subject": {
        "reference": "urn:uuid:fbbb29d1-e512-4a31-ab01-6a29e1799909"
      },
      "context": {
        "reference": "urn:uuid:ae870887-c810-45ba-b813-e0cce9bd82aa"
      },
      "authored": "2021-04-06T15:19:34+00:00",
      "item": [ {
        "linkId": "Tx224998",
        "text": "SYSTEM_COVIDLEVEL2",
        "answer": [ {
          "valueString": "==\"covidlevel2\""
        } ]
      } ]
    }
  }, {
    "fullUrl": "urn:uuid:5940ce9d-6b27-4f0f-a425-8268afa6603e",
    "resource": {
      "resourceType": "Questionnaire",
      "id": "5940ce9d-6b27-4f0f-a425-8268afa6603e",
      "identifier": [ {
        "value": "60319"
      } ],
      "version": "2021-04-06T15:19:34.083Z",
      "status": "active",
      "experimental": false,
      "date": "2021-04-06T15:19:34+00:00",
      "publisher": "User ID: 'HADFIELDR' User name: 'Ryan Hadfield' User skill set: 'T3'",
      "lastReviewDate": "2021-04-06",
      "contact": [ {
        "telecom": [ {
          "system": "phone",
          "value": "0111 111 1111"
        } ]
      } ],
      "subjectType": [ "Patient" ],
      "item": [ {
        "linkId": "60319",
        "prefix": "5900",
        "text": "SYSTEM_COVIDLEVEL2",
        "type": "choice",
        "required": true,
        "repeats": false,
        "option": [ {
          "valueString": "==\"covidlevel2\", Selected: true"
        }, {
          "valueString": "*, Selected: false"
        } ]
      } ]
    }
  }, {
    "fullUrl": "urn:uuid:f3e98c94-3eaa-4d68-8e55-9d9af53f26c3",
    "resource": {
      "resourceType": "QuestionnaireResponse",
      "id": "f3e98c94-3eaa-4d68-8e55-9d9af53f26c3",
      "identifier": {
        "value": "60319"
      },
      "questionnaire": {
        "reference": "urn:uuid:9f90cd5c-0883-4a51-a409-c5edaa773337"
      },
      "status": "completed",
      "subject": {
        "reference": "urn:uuid:fbbb29d1-e512-4a31-ab01-6a29e1799909"
      },
      "context": {
        "reference": "urn:uuid:ae870887-c810-45ba-b813-e0cce9bd82aa"
      },
      "authored": "2021-04-06T15:19:34+00:00",
      "item": [ {
        "linkId": "Tx225069",
        "text": "What is the reason for the contact?",
        "answer": [ {
          "valueString": "a prescription request"
        } ]
      } ]
    }
  }, {
    "fullUrl": "urn:uuid:9f90cd5c-0883-4a51-a409-c5edaa773337",
    "resource": {
      "resourceType": "Questionnaire",
      "id": "9f90cd5c-0883-4a51-a409-c5edaa773337",
      "identifier": [ {
        "value": "60319"
      } ],
      "version": "2021-04-06T15:19:34.083Z",
      "status": "active",
      "experimental": false,
      "date": "2021-04-06T15:19:34+00:00",
      "publisher": "User ID: 'HADFIELDR' User name: 'Ryan Hadfield' User skill set: 'T3'",
      "lastReviewDate": "2021-04-06",
      "contact": [ {
        "telecom": [ {
          "system": "phone",
          "value": "0111 111 1111"
        } ]
      } ],
      "subjectType": [ "Patient" ],
      "item": [ {
        "linkId": "60319",
        "prefix": "6000",
        "text": "What is the reason for the contact?",
        "type": "choice",
        "required": true,
        "repeats": false,
        "option": [ {
          "valueString": "a child protection/vulnerable adult concern (specify), Selected: false"
        }, {
          "valueString": "a social or domestic emergency, Selected: false"
        }, {
          "valueString": "a prescription request, Selected: true"
        }, {
          "valueString": "an appointment request, Selected: false"
        }, {
          "valueString": "a request for health or medication information, Selected: false"
        }, {
          "valueString": "public health alert information, Selected: false"
        } ]
      } ]
    }
  }, {
    "fullUrl": "urn:uuid:c7bf639e-11fb-4668-a25c-0d645057b4e0",
    "resource": {
      "resourceType": "QuestionnaireResponse",
      "id": "c7bf639e-11fb-4668-a25c-0d645057b4e0",
      "identifier": {
        "value": "60319"
      },
      "questionnaire": {
        "reference": "urn:uuid:b036822b-018a-4cf3-9640-e626f0700aaa"
      },
      "status": "completed",
      "subject": {
        "reference": "urn:uuid:fbbb29d1-e512-4a31-ab01-6a29e1799909"
      },
      "context": {
        "reference": "urn:uuid:ae870887-c810-45ba-b813-e0cce9bd82aa"
      },
      "authored": "2021-04-06T15:19:34+00:00",
      "item": [ {
        "linkId": "Tx220957",
        "text": "Is this contact about a new or worsening illness?",
        "answer": [ {
          "valueString": "no"
        } ]
      } ]
    }
  }, {
    "fullUrl": "urn:uuid:b036822b-018a-4cf3-9640-e626f0700aaa",
    "resource": {
      "resourceType": "Questionnaire",
      "id": "b036822b-018a-4cf3-9640-e626f0700aaa",
      "identifier": [ {
        "value": "60319"
      } ],
      "version": "2021-04-06T15:19:34.083Z",
      "status": "active",
      "experimental": false,
      "date": "2021-04-06T15:19:34+00:00",
      "publisher": "User ID: 'HADFIELDR' User name: 'Ryan Hadfield' User skill set: 'T3'",
      "lastReviewDate": "2021-04-06",
      "contact": [ {
        "telecom": [ {
          "system": "phone",
          "value": "0111 111 1111"
        } ]
      } ],
      "subjectType": [ "Patient" ],
      "item": [ {
        "linkId": "60319",
        "prefix": "1400",
        "text": "Is this contact about a new or worsening illness?",
        "type": "choice",
        "required": true,
        "repeats": false,
        "option": [ {
          "valueString": "yes, Selected: false"
        }, {
          "valueString": "not sure, Selected: false"
        }, {
          "valueString": "no, Selected: true"
        } ]
      } ]
    }
  }, {
    "fullUrl": "urn:uuid:17d134c6-6dba-4fa8-afda-5255a25afda0",
    "resource": {
      "resourceType": "QuestionnaireResponse",
      "id": "17d134c6-6dba-4fa8-afda-5255a25afda0",
      "identifier": {
        "value": "60319"
      },
      "questionnaire": {
        "reference": "urn:uuid:b2831060-385e-47da-ab75-15211cde7953"
      },
      "status": "completed",
      "subject": {
        "reference": "urn:uuid:fbbb29d1-e512-4a31-ab01-6a29e1799909"
      },
      "context": {
        "reference": "urn:uuid:ae870887-c810-45ba-b813-e0cce9bd82aa"
      },
      "authored": "2021-04-06T15:19:34+00:00",
      "item": [ {
        "linkId": "Tx221352",
        "text": "Have you got enough medication to last until the surgery opens?",
        "answer": [ {
          "valueString": "no"
        } ]
      } ]
    }
  }, {
    "fullUrl": "urn:uuid:b2831060-385e-47da-ab75-15211cde7953",
    "resource": {
      "resourceType": "Questionnaire",
      "id": "b2831060-385e-47da-ab75-15211cde7953",
      "identifier": [ {
        "value": "60319"
      } ],
      "version": "2021-04-06T15:19:34.083Z",
      "status": "active",
      "experimental": false,
      "date": "2021-04-06T15:19:34+00:00",
      "publisher": "User ID: 'HADFIELDR' User name: 'Ryan Hadfield' User skill set: 'T3'",
      "lastReviewDate": "2021-04-06",
      "contact": [ {
        "telecom": [ {
          "system": "phone",
          "value": "0111 111 1111"
        } ]
      } ],
      "subjectType": [ "Patient" ],
      "item": [ {
        "linkId": "60319",
        "prefix": "1500",
        "text": "Have you got enough medication to last until the surgery opens?",
        "type": "choice",
        "required": true,
        "repeats": false,
        "option": [ {
          "valueString": "yes, Selected: false"
        }, {
          "valueString": "not sure, Selected: false"
        }, {
          "valueString": "no, Selected: true"
        } ]
      } ]
    }
  }, {
    "fullUrl": "urn:uuid:d622627b-9ac7-45ac-8e83-878e944d4401",
    "resource": {
      "resourceType": "QuestionnaireResponse",
      "id": "d622627b-9ac7-45ac-8e83-878e944d4401",
      "identifier": {
        "value": "60319"
      },
      "questionnaire": {
        "reference": "urn:uuid:7fa0dcab-fa6b-4f82-818a-014d5b82f6ec"
      },
      "status": "completed",
      "subject": {
        "reference": "urn:uuid:fbbb29d1-e512-4a31-ab01-6a29e1799909"
      },
      "context": {
        "reference": "urn:uuid:ae870887-c810-45ba-b813-e0cce9bd82aa"
      },
      "authored": "2021-04-06T15:19:34+00:00"
    }
  }, {
    "fullUrl": "urn:uuid:7fa0dcab-fa6b-4f82-818a-014d5b82f6ec",
    "resource": {
      "resourceType": "Questionnaire",
      "id": "7fa0dcab-fa6b-4f82-818a-014d5b82f6ec",
      "identifier": [ {
        "value": "60319"
      } ],
      "version": "2021-04-06T15:19:34.083Z",
      "status": "active",
      "experimental": false,
      "date": "2021-04-06T15:19:34+00:00",
      "publisher": "User ID: 'HADFIELDR' User name: 'Ryan Hadfield' User skill set: 'T3'",
      "lastReviewDate": "2021-04-06",
      "contact": [ {
        "telecom": [ {
          "system": "phone",
          "value": "0111 111 1111"
        } ]
      } ],
      "subjectType": [ "Patient" ]
    }
  }, {
    "fullUrl": "urn:uuid:69de91c2-84cd-498b-830c-1d65eedecd4a",
    "resource": {
      "resourceType": "QuestionnaireResponse",
      "id": "69de91c2-84cd-498b-830c-1d65eedecd4a",
      "identifier": {
        "value": "60319"
      },
      "questionnaire": {
        "reference": "urn:uuid:72ca26b7-229f-4685-9ec5-f78560380af6"
      },
      "status": "completed",
      "subject": {
        "reference": "urn:uuid:fbbb29d1-e512-4a31-ab01-6a29e1799909"
      },
      "context": {
        "reference": "urn:uuid:ae870887-c810-45ba-b813-e0cce9bd82aa"
      },
      "authored": "2021-04-06T15:19:34+00:00",
      "item": [ {
        "linkId": "Tx224231",
        "text": "FROM WHAT YOU HAVE HEARD IS A CONSULTATION WITH A PRESCRIBER NEEDED?",
        "answer": [ {
          "valueString": "no"
        } ]
      } ]
    }
  }, {
    "fullUrl": "urn:uuid:72ca26b7-229f-4685-9ec5-f78560380af6",
    "resource": {
      "resourceType": "Questionnaire",
      "id": "72ca26b7-229f-4685-9ec5-f78560380af6",
      "identifier": [ {
        "value": "60319"
      } ],
      "version": "2021-04-06T15:19:34.083Z",
      "status": "active",
      "experimental": false,
      "date": "2021-04-06T15:19:34+00:00",
      "publisher": "User ID: 'HADFIELDR' User name: 'Ryan Hadfield' User skill set: 'T3'",
      "lastReviewDate": "2021-04-06",
      "contact": [ {
        "telecom": [ {
          "system": "phone",
          "value": "0111 111 1111"
        } ]
      } ],
      "subjectType": [ "Patient" ],
      "item": [ {
        "linkId": "60319",
        "prefix": "0",
        "text": "FROM WHAT YOU HAVE HEARD IS A CONSULTATION WITH A PRESCRIBER NEEDED?",
        "type": "choice",
        "required": true,
        "repeats": false,
        "option": [ {
          "valueString": "yes, Selected: false"
        }, {
          "valueString": "not sure, Selected: false"
        }, {
          "valueString": "no, Selected: true"
        } ]
      } ]
    }
  }, {
    "fullUrl": "urn:uuid:37279f42-7fd7-43ac-8a70-e8f00f4028f0",
    "resource": {
      "resourceType": "QuestionnaireResponse",
      "id": "37279f42-7fd7-43ac-8a70-e8f00f4028f0",
      "identifier": {
        "value": "60319"
      },
      "questionnaire": {
        "reference": "urn:uuid:04bbe6fc-1ac5-4130-8ea7-15c0cde2fdce"
      },
      "status": "completed",
      "subject": {
        "reference": "urn:uuid:fbbb29d1-e512-4a31-ab01-6a29e1799909"
      },
      "context": {
        "reference": "urn:uuid:ae870887-c810-45ba-b813-e0cce9bd82aa"
      },
      "authored": "2021-04-06T15:19:34+00:00",
      "item": [ {
        "linkId": "Tx222687",
        "text": "Have you got any of the medication available at the moment?",
        "answer": [ {
          "valueString": "no"
        } ]
      } ]
    }
  }, {
    "fullUrl": "urn:uuid:04bbe6fc-1ac5-4130-8ea7-15c0cde2fdce",
    "resource": {
      "resourceType": "Questionnaire",
      "id": "04bbe6fc-1ac5-4130-8ea7-15c0cde2fdce",
      "identifier": [ {
        "value": "60319"
      } ],
      "version": "2021-04-06T15:19:34.083Z",
      "status": "active",
      "experimental": false,
      "date": "2021-04-06T15:19:34+00:00",
      "publisher": "User ID: 'HADFIELDR' User name: 'Ryan Hadfield' User skill set: 'T3'",
      "lastReviewDate": "2021-04-06",
      "contact": [ {
        "telecom": [ {
          "system": "phone",
          "value": "0111 111 1111"
        } ]
      } ],
      "subjectType": [ "Patient" ],
      "item": [ {
        "linkId": "60319",
        "prefix": "200",
        "text": "Have you got any of the medication available at the moment?",
        "type": "choice",
        "required": true,
        "repeats": false,
        "option": [ {
          "valueString": "yes, Selected: false"
        }, {
          "valueString": "not sure, Selected: false"
        }, {
          "valueString": "no, Selected: true"
        } ]
      } ]
    }
  }, {
    "fullUrl": "urn:uuid:1f9d142f-c8e9-408d-9b83-465b3e82ccae",
    "resource": {
      "resourceType": "QuestionnaireResponse",
      "id": "1f9d142f-c8e9-408d-9b83-465b3e82ccae",
      "identifier": {
        "value": "60319"
      },
      "questionnaire": {
        "reference": "urn:uuid:dfa7e988-8da1-4c1f-a5af-3745554582dc"
      },
      "status": "completed",
      "subject": {
        "reference": "urn:uuid:fbbb29d1-e512-4a31-ab01-6a29e1799909"
      },
      "context": {
        "reference": "urn:uuid:ae870887-c810-45ba-b813-e0cce9bd82aa"
      },
      "authored": "2021-04-06T15:19:34+00:00",
      "item": [ {
        "linkId": "Tx221367",
        "text": "When is the next dose due?",
        "answer": [ {
          "valueString": "over 12 hours time"
        } ]
      } ]
    }
  }, {
    "fullUrl": "urn:uuid:dfa7e988-8da1-4c1f-a5af-3745554582dc",
    "resource": {
      "resourceType": "Questionnaire",
      "id": "dfa7e988-8da1-4c1f-a5af-3745554582dc",
      "identifier": [ {
        "value": "60319"
      } ],
      "version": "2021-04-06T15:19:34.083Z",
      "status": "active",
      "experimental": false,
      "date": "2021-04-06T15:19:34+00:00",
      "publisher": "User ID: 'HADFIELDR' User name: 'Ryan Hadfield' User skill set: 'T3'",
      "lastReviewDate": "2021-04-06",
      "contact": [ {
        "telecom": [ {
          "system": "phone",
          "value": "0111 111 1111"
        } ]
      } ],
      "subjectType": [ "Patient" ],
      "item": [ {
        "linkId": "60319",
        "prefix": "100",
        "text": "When is the next dose due?",
        "type": "choice",
        "required": true,
        "repeats": false,
        "option": [ {
          "valueString": "within the next 2 hours, Selected: false"
        }, {
          "valueString": "within the next 6 hours, Selected: false"
        }, {
          "valueString": "within the next 12 hours, Selected: false"
        }, {
          "valueString": "over 12 hours time, Selected: true"
        }, {
          "valueString": "not sure, Selected: false"
        } ]
      } ]
    }
  }, {
    "fullUrl": "urn:uuid:36bf5b6d-b7fb-4a3f-85a9-a0f4f5d5cc3f",
    "resource": {
      "resourceType": "QuestionnaireResponse",
      "id": "36bf5b6d-b7fb-4a3f-85a9-a0f4f5d5cc3f",
      "identifier": {
        "value": "60319"
      },
      "questionnaire": {
        "reference": "urn:uuid:6f31ab66-2327-4108-8cb3-2fcd673a44b7"
      },
      "status": "completed",
      "subject": {
        "reference": "urn:uuid:fbbb29d1-e512-4a31-ab01-6a29e1799909"
      },
      "context": {
        "reference": "urn:uuid:ae870887-c810-45ba-b813-e0cce9bd82aa"
      },
      "authored": "2021-04-06T15:19:34+00:00",
      "item": [ {
        "linkId": "Tx223441",
        "text": "STRING:SDPCRepeatPrescription",
        "answer": [ {
          "valueString": "\"PC repeat prescription\""
        } ]
      } ]
    }
  }, {
    "fullUrl": "urn:uuid:6f31ab66-2327-4108-8cb3-2fcd673a44b7",
    "resource": {
      "resourceType": "Questionnaire",
      "id": "6f31ab66-2327-4108-8cb3-2fcd673a44b7",
      "identifier": [ {
        "value": "60319"
      } ],
      "version": "2021-04-06T15:19:34.083Z",
      "status": "active",
      "experimental": false,
      "date": "2021-04-06T15:19:34+00:00",
      "publisher": "User ID: 'HADFIELDR' User name: 'Ryan Hadfield' User skill set: 'T3'",
      "lastReviewDate": "2021-04-06",
      "contact": [ {
        "telecom": [ {
          "system": "phone",
          "value": "0111 111 1111"
        } ]
      } ],
      "subjectType": [ "Patient" ],
      "item": [ {
        "linkId": "60319",
        "prefix": "1100",
        "text": "STRING:SDPCRepeatPrescription",
        "type": "choice",
        "required": true,
        "repeats": false,
        "option": [ {
          "valueString": "\"PC repeat prescription\", Selected: true"
        } ]
      } ]
    }
  }, {
    "fullUrl": "urn:uuid:f5f5e7d8-5adf-4a4d-b0b7-d8eec4f31ce3",
    "resource": {
      "resourceType": "QuestionnaireResponse",
      "id": "f5f5e7d8-5adf-4a4d-b0b7-d8eec4f31ce3",
      "identifier": {
        "value": "60319"
      },
      "questionnaire": {
        "reference": "urn:uuid:5ffce28b-0191-4b1e-9620-e83048a8458d"
      },
      "status": "completed",
      "subject": {
        "reference": "urn:uuid:fbbb29d1-e512-4a31-ab01-6a29e1799909"
      },
      "context": {
        "reference": "urn:uuid:ae870887-c810-45ba-b813-e0cce9bd82aa"
      },
      "authored": "2021-04-06T15:19:34+00:00"
    }
  }, {
    "fullUrl": "urn:uuid:5ffce28b-0191-4b1e-9620-e83048a8458d",
    "resource": {
      "resourceType": "Questionnaire",
      "id": "5ffce28b-0191-4b1e-9620-e83048a8458d",
      "identifier": [ {
        "value": "60319"
      } ],
      "version": "2021-04-06T15:19:34.083Z",
      "status": "active",
      "experimental": false,
      "date": "2021-04-06T15:19:34+00:00",
      "publisher": "User ID: 'HADFIELDR' User name: 'Ryan Hadfield' User skill set: 'T3'",
      "lastReviewDate": "2021-04-06",
      "contact": [ {
        "telecom": [ {
          "system": "phone",
          "value": "0111 111 1111"
        } ]
      } ],
      "subjectType": [ "Patient" ]
    }
  }, {
    "fullUrl": "urn:uuid:1572c18f-633a-460a-9c4a-a35dfbfc22ae",
    "resource": {
      "resourceType": "QuestionnaireResponse",
      "id": "1572c18f-633a-460a-9c4a-a35dfbfc22ae",
      "identifier": {
        "value": "60319"
      },
      "questionnaire": {
        "reference": "urn:uuid:581730fb-893d-4b47-bbac-2beed3843a59"
      },
      "status": "completed",
      "subject": {
        "reference": "urn:uuid:fbbb29d1-e512-4a31-ab01-6a29e1799909"
      },
      "context": {
        "reference": "urn:uuid:ae870887-c810-45ba-b813-e0cce9bd82aa"
      },
      "authored": "2021-04-06T15:19:34+00:00"
    }
  }, {
    "fullUrl": "urn:uuid:581730fb-893d-4b47-bbac-2beed3843a59",
    "resource": {
      "resourceType": "Questionnaire",
      "id": "581730fb-893d-4b47-bbac-2beed3843a59",
      "identifier": [ {
        "value": "60319"
      } ],
      "version": "2021-04-06T15:19:34.083Z",
      "status": "active",
      "experimental": false,
      "date": "2021-04-06T15:19:34+00:00",
      "publisher": "User ID: 'HADFIELDR' User name: 'Ryan Hadfield' User skill set: 'T3'",
      "lastReviewDate": "2021-04-06",
      "contact": [ {
        "telecom": [ {
          "system": "phone",
          "value": "0111 111 1111"
        } ]
      } ],
      "subjectType": [ "Patient" ]
    }
  }, {
    "fullUrl": "urn:uuid:052999fa-46ef-4571-9d80-ff9a87b6095d",
    "resource": {
      "resourceType": "PractitionerRole",
      "id": "052999fa-46ef-4571-9d80-ff9a87b6095d",
      "practitioner": {
        "reference": "urn:uuid:f681d2d5-457b-4027-b1e1-6b754c9105e4"
      },
      "organization": {
        "reference": "urn:uuid:492c7da5-963d-4c07-9b05-37112aa69a04"
      },
      "code": [ {
        "coding": [ {
          "system": "2.16.840.1.113883.2.1.3.2.4.17.339",
          "code": "DOCTOR",
          "display": "Doctor"
        } ]
      } ]
    }
  }, {
    "fullUrl": "urn:uuid:492c7da5-963d-4c07-9b05-37112aa69a04",
    "resource": {
      "resourceType": "Organization",
      "id": "492c7da5-963d-4c07-9b05-37112aa69a04",
      "identifier": [ {
        "value": "RYE"
      } ],
      "name": "RepresentedOrg Name"
    }
  }, {
    "fullUrl": "urn:uuid:4bbb4430-8cc8-40cc-8cdc-968a317b0788",
    "resource": {
      "resourceType": "PractitionerRole",
      "id": "4bbb4430-8cc8-40cc-8cdc-968a317b0788",
      "practitioner": {
        "reference": "urn:uuid:7e450dad-3b80-4ed3-ab4e-0bf39d811c7c"
      },
      "organization": {
        "reference": "urn:uuid:ac274e70-67e3-4416-840c-e85ac301ee83"
      },
      "code": [ {
        "coding": [ {
          "system": "2.16.840.1.113883.2.1.3.2.4.17.196",
          "code": "R0010",
          "display": "Medical Director"
        } ]
      } ]
    }
  }, {
    "fullUrl": "urn:uuid:ac274e70-67e3-4416-840c-e85ac301ee83",
    "resource": {
      "resourceType": "Organization",
      "id": "ac274e70-67e3-4416-840c-e85ac301ee83",
      "identifier": [ {
        "value": "RYE"
      } ],
      "name": "RepresentedOrgNameRYE"
    }
  }, {
    "fullUrl": "urn:uuid:11c460fe-ff93-425a-81ac-cc999033c327",
    "resource": {
      "resourceType": "RelatedPerson",
      "id": "11c460fe-ff93-425a-81ac-cc999033c327",
      "patient": {
        "reference": "urn:uuid:fbbb29d1-e512-4a31-ab01-6a29e1799909"
      },
      "relationship": {
        "coding": [ {
          "system": "http://hl7.org/fhir/v2/0131",
          "code": "C",
          "display": "Emergency Contact"
        } ]
      },
      "telecom": [ {
        "system": "phone",
        "value": "tel:000000000000"
      } ]
    }
  }, {
    "fullUrl": "urn:uuid:3ffd0ba5-7f68-40bf-aa04-18e194569ab3",
    "resource": {
      "resourceType": "Device",
      "id": "3ffd0ba5-7f68-40bf-aa04-18e194569ab3",
      "model": "111 Adaptor",
      "version": "1.0.1"
    }
  }, {
    "fullUrl": "urn:uuid:e5f3edea-654e-4d71-afdc-41776bd78c89",
    "resource": {
      "resourceType": "List",
      "id": "e5f3edea-654e-4d71-afdc-41776bd78c89",
      "status": "current",
      "mode": "working",
      "title": "111 Report List",
      "code": {
        "coding": [ {
          "system": "http://snomed.info/sct",
          "code": "225390008",
          "display": "Triage"
        } ]
      },
      "subject": {
        "reference": "urn:uuid:fbbb29d1-e512-4a31-ab01-6a29e1799909"
      },
      "encounter": {
        "reference": "urn:uuid:ae870887-c810-45ba-b813-e0cce9bd82aa"
      },
      "date": "2022-04-07T07:52:14+00:00",
      "source": {
        "reference": "urn:uuid:3ffd0ba5-7f68-40bf-aa04-18e194569ab3"
      },
      "orderedBy": {
        "coding": [ {
          "system": "http://hl7.org/fhir/list-order",
          "code": "event-date",
          "display": "Sorted by Event Date"
        } ]
      },
      "entry": [ {
        "item": {
          "reference": "urn:uuid:11c460fe-ff93-425a-81ac-cc999033c327"
        }
      }, {
        "item": {
          "reference": "urn:uuid:d0001d13-c0e9-4544-910b-e9530bec513b"
        }
      }, {
        "item": {
          "reference": "urn:uuid:d5b64025-8750-4585-ac33-b42b9bba5df6"
        }
      }, {
        "item": {
          "reference": "urn:uuid:dbe366b7-1251-4af8-bfd6-932a3d417f14"
        }
      }, {
        "item": {
          "reference": "urn:uuid:492c7da5-963d-4c07-9b05-37112aa69a04"
        }
      }, {
        "item": {
          "reference": "urn:uuid:bccc56da-09e7-487b-8533-f4b29362ce53"
        }
      }, {
        "item": {
          "reference": "urn:uuid:7e450dad-3b80-4ed3-ab4e-0bf39d811c7c"
        }
      }, {
        "item": {
          "reference": "urn:uuid:ac274e70-67e3-4416-840c-e85ac301ee83"
        }
      }, {
        "item": {
          "reference": "urn:uuid:f681d2d5-457b-4027-b1e1-6b754c9105e4"
        }
      }, {
        "item": {
          "reference": "urn:uuid:6c2bc0cb-595a-44be-8af9-4fdb6d86b9ec"
        }
      }, {
        "item": {
          "reference": "urn:uuid:04bbe6fc-1ac5-4130-8ea7-15c0cde2fdce"
        }
      }, {
        "item": {
          "reference": "urn:uuid:dfa7e988-8da1-4c1f-a5af-3745554582dc"
        }
      }, {
        "item": {
          "reference": "urn:uuid:b2831060-385e-47da-ab75-15211cde7953"
        }
      }, {
        "item": {
          "reference": "urn:uuid:6f31ab66-2327-4108-8cb3-2fcd673a44b7"
        }
      }, {
        "item": {
          "reference": "urn:uuid:1f9d142f-c8e9-408d-9b83-465b3e82ccae"
        }
      }, {
        "item": {
          "reference": "urn:uuid:cc767ddf-192c-4862-93aa-5f85813f7dcd"
        }
      }, {
        "item": {
          "reference": "urn:uuid:1572c18f-633a-460a-9c4a-a35dfbfc22ae"
        }
      }, {
        "item": {
          "reference": "urn:uuid:9f90cd5c-0883-4a51-a409-c5edaa773337"
        }
      }, {
        "item": {
          "reference": "urn:uuid:c59ab917-03b9-446e-a442-676d05fcde33"
        }
      }, {
        "item": {
          "reference": "urn:uuid:34a36315-9bb7-4dbd-a14c-578d0a2460e4"
        }
      }, {
        "item": {
          "reference": "urn:uuid:bd3e8873-aeb3-4473-acaf-083d1e8ff553"
        }
      }, {
        "item": {
          "reference": "urn:uuid:69de91c2-84cd-498b-830c-1d65eedecd4a"
        }
      }, {
        "item": {
          "reference": "urn:uuid:36bf5b6d-b7fb-4a3f-85a9-a0f4f5d5cc3f"
        }
      }, {
        "item": {
          "reference": "urn:uuid:5940ce9d-6b27-4f0f-a425-8268afa6603e"
        }
      }, {
        "item": {
          "reference": "urn:uuid:b036822b-018a-4cf3-9640-e626f0700aaa"
        }
      }, {
        "item": {
          "reference": "urn:uuid:f3e98c94-3eaa-4d68-8e55-9d9af53f26c3"
        }
      }, {
        "item": {
          "reference": "urn:uuid:a20e1963-0101-4562-8438-836a14ee1c8d"
        }
      }, {
        "item": {
          "reference": "urn:uuid:451dd4f9-9115-4648-b5d9-40eadcb61d9c"
        }
      }, {
        "item": {
          "reference": "urn:uuid:37279f42-7fd7-43ac-8a70-e8f00f4028f0"
        }
      }, {
        "item": {
          "reference": "urn:uuid:f5f5e7d8-5adf-4a4d-b0b7-d8eec4f31ce3"
        }
      }, {
        "item": {
          "reference": "urn:uuid:5ffce28b-0191-4b1e-9620-e83048a8458d"
        }
      }, {
        "item": {
          "reference": "urn:uuid:17d134c6-6dba-4fa8-afda-5255a25afda0"
        }
      }, {
        "item": {
          "reference": "urn:uuid:d05e49b6-5c35-44f8-b2ee-1ccce44ff723"
        }
      }, {
        "item": {
          "reference": "urn:uuid:d622627b-9ac7-45ac-8e83-878e944d4401"
        }
      }, {
        "item": {
          "reference": "urn:uuid:581730fb-893d-4b47-bbac-2beed3843a59"
        }
      }, {
        "item": {
          "reference": "urn:uuid:72ca26b7-229f-4685-9ec5-f78560380af6"
        }
      }, {
        "item": {
          "reference": "urn:uuid:c7bf639e-11fb-4668-a25c-0d645057b4e0"
        }
      }, {
        "item": {
          "reference": "urn:uuid:7fa0dcab-fa6b-4f82-818a-014d5b82f6ec"
        }
      }, {
        "item": {
          "reference": "urn:uuid:3691fa1e-36d6-48c1-a234-45c10475a853"
        }
      }, {
        "item": {
          "reference": "urn:uuid:6a177cfd-8c2d-4aee-9ce0-9865f7eeeedb"
        }
      } ]
    }
  } ]
}