{
  "resourceType": "Bundle",
  "identifier": {
    "type": {
      "text": "ClinicalDocument VersionNumber"
    },
    "value": "1"
  },
  "type": "message",
  "entry": [ {
    "fullUrl": "urn:uuid:F7916D36-4D5F-4A64-BD08-644E8A234AE2",
    "resource": {
      "resourceType": "MessageHeader",
      "id": "F7916D36-4D5F-4A64-BD08-644E8A234AE2",
      "event": {
        "system": "https://fhir.nhs.uk/STU3/CodeSystem/EventType-1",
        "code": "referral-1",
        "display": "Referral"
      },
      "destination": [ {
        "endpoint": "urn:nhs-uk:addressing:ods:NVE06:DOSServiceID:1335970392"
      } ],
      "timestamp": "2021-05-13T17:24:56.000+00:00",
      "source": {
        "name": "NHS 111 Adaptor",
        "endpoint": "http://localhost:8080/report"
      },
      "reason": {
        "coding": [ {
          "system": "urn:nhs-itk:ns:201005:interaction",
          "code": "urn:nhs-itk:interaction:primaryOutofHourRecipientNHS111CDADocument-v2-0"
        } ]
      }
    }
  }, {
    "fullUrl": "urn:uuid:30d20e22-44f7-4071-bbb2-c5c45954e3d5",
    "resource": {
      "resourceType": "Encounter",
      "id": "30d20e22-44f7-4071-bbb2-c5c45954e3d5",
      "identifier": [ {
        "system": "2.16.840.1.113883.2.1.3.2.4.18.34",
        "value": "2DBAE50F-F88C-4572-9866-F94FE0F1F25A"
      }, {
        "system": "2.16.840.1.113883.2.1.3.2.4.18.35",
        "value": "2100310450"
      } ],
      "status": "finished",
      "type": [ {
        "text": "111 Encounter Referral"
      } ],
      "subject": {
        "reference": "urn:uuid:adac033f-d3e7-42fb-acfb-178f90585115"
      },
      "participant": [ {
        "type": [ {
          "coding": [ {
            "system": "http://hl7.org/fhir/ValueSet/encounter-participant-type",
            "code": "PPRF",
            "display": "Author"
          } ]
        } ],
        "individual": {
          "reference": "urn:uuid:0c70e347-c281-4dc5-841e-192c3c1a48c8"
        }
      }, {
        "type": [ {
          "text": "Informant"
        } ],
        "individual": {
          "reference": "urn:uuid:f2815747-bc6e-4ac8-81d5-84122a2f6376"
        }
      } ],
      "period": {
        "start": "2021-05-13T17:24:56+00:00"
      },
      "location": [ {
        "location": {
          "reference": "urn:uuid:db8de7ac-9a6a-43aa-afb4-d99b06f77d44"
        },
        "status": "active"
      }, {
        "location": {
          "reference": "urn:uuid:1517651f-71fe-47dc-a62f-8775a2f8e245"
        },
        "status": "completed"
      } ],
      "serviceProvider": {
        "reference": "urn:uuid:9401802d-41ed-464f-bf3f-cd4f9d0a31cd"
      }
    }
  }, {
    "fullUrl": "urn:uuid:9401802d-41ed-464f-bf3f-cd4f9d0a31cd",
    "resource": {
      "resourceType": "Organization",
      "id": "9401802d-41ed-464f-bf3f-cd4f9d0a31cd",
      "active": true,
      "type": [ {
        "text": "CST"
      } ],
      "name": "Norfolk and Wisbech 111"
    }
  }, {
    "fullUrl": "urn:uuid:0c70e347-c281-4dc5-841e-192c3c1a48c8",
    "resource": {
      "resourceType": "Practitioner",
      "id": "0c70e347-c281-4dc5-841e-192c3c1a48c8",
      "active": true,
      "name": [ {
        "text": "Ben Smythson"
      } ]
    }
  }, {
    "fullUrl": "urn:uuid:f2815747-bc6e-4ac8-81d5-84122a2f6376",
    "resource": {
      "resourceType": "RelatedPerson",
      "id": "f2815747-bc6e-4ac8-81d5-84122a2f6376",
      "active": true,
      "patient": {
        "reference": "urn:uuid:adac033f-d3e7-42fb-acfb-178f90585115"
      },
      "relationship": {
        "coding": [ {
          "system": "2.16.840.1.113883.2.1.3.2.4.16.45",
          "code": "21",
          "display": "Self"
        }, {
          "system": "http://hl7.org/fhir/v2/0131",
          "code": "C",
          "display": "Emergency Contact"
        } ]
      },
      "name": [ {
        "text": "Test Call Dx10 TEST CALL DX10"
      } ],
      "telecom": [ {
        "system": "phone",
        "value": "tel:01233123123"
      } ],
      "gender": "unknown"
    }
  }, {
    "fullUrl": "urn:uuid:db8de7ac-9a6a-43aa-afb4-d99b06f77d44",
    "resource": {
      "resourceType": "Location",
      "id": "db8de7ac-9a6a-43aa-afb4-d99b06f77d44",
      "managingOrganization": {
        "reference": "urn:uuid:33e761d3-a0dc-47bb-af31-250d664e314d"
      }
    }
  }, {
    "fullUrl": "urn:uuid:33e761d3-a0dc-47bb-af31-250d664e314d",
    "resource": {
      "resourceType": "Organization",
      "id": "33e761d3-a0dc-47bb-af31-250d664e314d",
      "identifier": [ {
        "value": "Z10000"
      } ],
      "type": [ {
        "text": "GP Practice"
      } ],
      "name": "UNKNOWN"
    }
  }, {
    "fullUrl": "urn:uuid:1517651f-71fe-47dc-a62f-8775a2f8e245",
    "resource": {
      "resourceType": "Location",
      "id": "1517651f-71fe-47dc-a62f-8775a2f8e245",
      "address": {
        "type": "physical",
        "line": [ "313 VICTORIA ROAD", "LOWESTOFT" ],
        "postalCode": "NR33 9LS"
      }
    }
  }, {
    "fullUrl": "urn:uuid:adac033f-d3e7-42fb-acfb-178f90585115",
    "resource": {
      "resourceType": "Patient",
      "id": "adac033f-d3e7-42fb-acfb-178f90585115",
      "language": "en",
      "active": true,
      "name": [ {
        "use": "official",
        "family": "TEST CALL DX10",
        "given": [ "Test Call Dx10" ]
      } ],
      "telecom": [ {
        "system": "phone",
        "value": "tel:01233123123"
      } ],
      "gender": "male",
      "birthDate": "1996-03-25",
      "address": [ {
        "use": "home",
        "line": [ "313 VICTORIA ROAD", "LOWESTOFT" ],
        "postalCode": "NR33 9LS"
      }, {
        "type": "physical",
        "line": [ "313 VICTORIA ROAD", "LOWESTOFT" ],
        "postalCode": "NR33 9LS"
      } ],
      "generalPractitioner": [ {
        "reference": "urn:uuid:be715a4d-e5dd-41fa-b121-28209221f375"
      } ]
    }
  }, {
    "fullUrl": "urn:uuid:be715a4d-e5dd-41fa-b121-28209221f375",
    "resource": {
      "resourceType": "Organization",
      "id": "be715a4d-e5dd-41fa-b121-28209221f375",
      "identifier": [ {
        "value": "Z10000"
      } ],
      "type": [ {
        "text": "GP Practice"
      } ],
      "name": "UNKNOWN"
    }
  }, {
    "fullUrl": "urn:uuid:ee39959c-e177-4d69-93ee-c3dbb5e06add",
    "resource": {
      "resourceType": "HealthcareService",
      "id": "ee39959c-e177-4d69-93ee-c3dbb5e06add",
      "active": true,
      "providedBy": {
        "reference": "urn:uuid:db011393-4e41-4ccf-b57e-6bf897e5ac6e"
      },
      "location": [ {
        "reference": "urn:uuid:370e1996-6206-4542-8981-856ac8d40d75"
      } ],
      "name": "Out of Hours GP Service (Waveney) - Kirkley Mill Health Centre, Lowestoft"
    }
  }, {
    "fullUrl": "urn:uuid:370e1996-6206-4542-8981-856ac8d40d75",
    "resource": {
      "resourceType": "Location",
      "id": "370e1996-6206-4542-8981-856ac8d40d75",
      "managingOrganization": {
        "reference": "urn:uuid:db011393-4e41-4ccf-b57e-6bf897e5ac6e"
      }
    }
  }, {
    "fullUrl": "urn:uuid:db011393-4e41-4ccf-b57e-6bf897e5ac6e",
    "resource": {
      "resourceType": "Organization",
      "id": "db011393-4e41-4ccf-b57e-6bf897e5ac6e",
      "identifier": [ {
        "value": "NVE06"
      } ],
      "type": [ {
        "coding": [ {
          "code": "PRCP",
          "display": "Out of Hours GP Service (Waveney) - Kirkley Mill Health Centre, Lowestoft"
        } ]
      } ],
      "name": "Out of Hours GP Service (Waveney) - Kirkley Mill Health Centre, Lowestoft"
    }
  }, {
    "fullUrl": "urn:uuid:571b2bea-b48c-41c6-a450-d580d9921354",
    "resource": {
      "resourceType": "ReferralRequest",
      "id": "571b2bea-b48c-41c6-a450-d580d9921354",
      "status": "active",
      "intent": "plan",
      "priority": "routine",
      "subject": {
        "reference": "urn:uuid:adac033f-d3e7-42fb-acfb-178f90585115"
      },
      "context": {
        "reference": "urn:uuid:30d20e22-44f7-4071-bbb2-c5c45954e3d5"
      },
      "occurrencePeriod": {
        "start": "2022-05-05T07:31:36+00:00",
        "end": "2022-05-05T08:31:36+00:00"
      },
      "authoredOn": "2021-05-13T17:24:56+00:00",
      "requester": {
        "agent": {
          "reference": "urn:uuid:0837765f-5cab-47e7-b41c-f265caa54968"
        },
        "onBehalfOf": {
          "reference": "urn:uuid:9401802d-41ed-464f-bf3f-cd4f9d0a31cd"
        }
      },
      "recipient": [ {
        "reference": "urn:uuid:15a49235-d937-46b9-a121-7f3b09c36b0a"
      }, {
        "reference": "urn:uuid:ee39959c-e177-4d69-93ee-c3dbb5e06add"
      } ],
      "reasonReference": [ {
        "reference": "urn:uuid:66fbf05a-b2bd-48e2-872a-2e12328cadd8"
      } ],
      "supportingInfo": [ {
        "reference": "urn:uuid:fc82143f-3438-4e1d-b611-4cb1e6180ff1"
      } ]
    }
  }, {
    "fullUrl": "urn:uuid:fc82143f-3438-4e1d-b611-4cb1e6180ff1",
    "resource": {
      "resourceType": "ProcedureRequest",
      "id": "fc82143f-3438-4e1d-b611-4cb1e6180ff1",
      "status": "active",
      "intent": "plan",
      "priority": "routine",
      "doNotPerform": false,
      "code": {
        "coding": [ {
          "system": "2.16.840.1.113883.2.1.3.2.4.17.325",
          "code": "Dx10",
          "display": "MUST contact a local service for a Non-Urgent Appointment"
        } ]
      },
      "subject": {
        "reference": "urn:uuid:adac033f-d3e7-42fb-acfb-178f90585115"
      },
      "occurrencePeriod": {
        "start": "2022-05-05T07:31:36+00:00",
        "end": "2022-05-05T08:31:36+00:00"
      },
      "reasonReference": [ {
        "reference": "urn:uuid:66fbf05a-b2bd-48e2-872a-2e12328cadd8"
      } ]
    }
  }, {
    "fullUrl": "urn:uuid:15a49235-d937-46b9-a121-7f3b09c36b0a",
    "resource": {
      "resourceType": "Practitioner",
      "id": "15a49235-d937-46b9-a121-7f3b09c36b0a",
      "active": true,
      "telecom": [ {
        "system": "phone",
        "value": "tel:01233505450"
      } ],
      "address": [ {
        "type": "physical",
        "line": [ "Kingston House", "The Long Barrow", "Orbital Park", "Ashford", "Kent" ],
        "postalCode": "TN24 0GP"
      } ]
    }
  }, {
    "fullUrl": "urn:uuid:ff55c0a7-a2c5-4bde-876e-ce8b67298375",
    "resource": {
      "resourceType": "Composition",
      "id": "ff55c0a7-a2c5-4bde-876e-ce8b67298375",
      "identifier": {
        "use": "usual",
        "value": "895062D0-60A8-4EB4-9017-5F489D53694D"
      },
      "status": "final",
      "type": {
        "coding": [ {
          "system": "http://snomed.info/sct",
          "code": "371531000",
          "display": "Report of clinical encounter (record artifact)"
        } ]
      },
      "subject": {
        "reference": "urn:uuid:adac033f-d3e7-42fb-acfb-178f90585115"
      },
      "encounter": {
        "reference": "urn:uuid:30d20e22-44f7-4071-bbb2-c5c45954e3d5"
      },
      "date": "2021-05-13T17:24:56+00:00",
      "author": [ {
        "reference": "urn:uuid:0c70e347-c281-4dc5-841e-192c3c1a48c8"
      } ],
      "title": "111 Report",
      "confidentiality": "R",
      "section": [ {
        "section": [ {
          "title": "Patient's Reported Condition",
          "text": {
            "status": "generated",
            "div": "<div xmlns=\"http://www.w3.org/1999/xhtml\">&lt;content&gt;&amp;lt;CLEO Ref: 2100310450&amp;gt; Test Call &lt;br/&gt;\n                                                    &lt;/content&gt;</div>"
          }
        }, {
          "title": "Pathways Disposition",
          "text": {
            "status": "generated",
            "div": "<div xmlns=\"http://www.w3.org/1999/xhtml\">&lt;content&gt;If a pharmacy service is not available contact the GP practice during normal working hours. (Dx10)&lt;/content&gt;\n                                                    &lt;br/&gt;\n                                                    &lt;br/&gt;\n                                                    &lt;content&gt;Selected Service: 1335970392, Out of Hours GP Service (Waveney) - Kirkley Mill Health Centre, Lowestoft, 111&lt;/content&gt;\n                                                    &lt;br/&gt;</div>"
          }
        }, {
          "title": "Consultation Summary",
          "text": {
            "status": "generated",
            "div": "<div xmlns=\"http://www.w3.org/1999/xhtml\">&lt;content&gt;\n                                                        &lt;content&gt;Worst acne feature, blackheads or whiteheads&lt;/content&gt;\n                                                        &lt;br/&gt;\n                                                        &lt;content&gt;Acne&lt;/content&gt;\n                                                        &lt;br/&gt;\n                                                        &lt;content&gt;Warm to touch&lt;/content&gt;\n                                                        &lt;br/&gt;\n                                                        &lt;content&gt;Illness - test&lt;/content&gt;\n                                                        &lt;br/&gt;\n                                                    &lt;/content&gt;</div>"
          }
        }, {
          "title": "Pathways Assessment",
          "text": {
            "status": "generated",
            "div": "<div xmlns=\"http://www.w3.org/1999/xhtml\">&lt;content&gt;An injury or health problem was the reason for the contact.&lt;/content&gt;\n                                                    &lt;br/&gt;\n                                                    &lt;content&gt;Heavy bleeding had not occurred in the previous 2 hours.&lt;/content&gt;\n                                                    &lt;br/&gt;\n                                                    &lt;content&gt;An illness or health problem was the main problem. - test&lt;/content&gt;\n                                                    &lt;br/&gt;\n                                                    &lt;content&gt;The individual was not fighting for breath.&lt;/content&gt;\n                                                    &lt;br/&gt;\n                                                    &lt;content&gt;The main reason for the assessment was not an allergic reaction, heart attack, chest/upper back pain, probable stroke, recent fit/seizure or suicide attempt.&lt;/content&gt;\n                                                    &lt;br/&gt;\n                                                    &lt;content&gt;The main reason for contact was not new confusion, declared diabetic hypo/hyperglycaemia, or ICD shock.&lt;/content&gt;\n                                                    &lt;br/&gt;\n                                                    &lt;content&gt;The skin on the torso felt normal, warm or hot.&lt;/content&gt;\n                                                    &lt;br/&gt;\n                                                    &lt;content&gt;The main problem was not a rash, itch, jaundice, skin lumps or abnormal bruising.&lt;/content&gt;\n                                                    &lt;br/&gt;\n                                                    &lt;content&gt;The main problem was acne, spots or pimples.&lt;/content&gt;\n                                                    &lt;br/&gt;\n                                                    &lt;content&gt;The worst problem with the acne was blackheads or white heads.&lt;/content&gt;\n                                                    &lt;br/&gt;\n                                                    &lt;content&gt;The problem had not persisted for 3 months or got worse over that time.&lt;/content&gt;\n                                                    &lt;br/&gt;</div>"
          }
        }, {
          "title": "Advice Given",
          "text": {
            "status": "generated",
            "div": "<div xmlns=\"http://www.w3.org/1999/xhtml\">&lt;content&gt;Speak to a pharmacist for advice on suitable treatment.&lt;/content&gt;\n                                                    &lt;br/&gt;\n                                                    &lt;content&gt;If there are any new symptoms, or if the condition gets worse, changes or you have any other concerns, call us back.&lt;/content&gt;\n                                                    &lt;br/&gt;</div>"
          }
        }, {
          "title": "SCR Consent",
          "text": {
            "status": "generated",
            "div": "<div xmlns=\"http://www.w3.org/1999/xhtml\">&lt;content&gt;Consent given for SCR sharing&lt;br/&gt;\n                                                        &lt;br/&gt;\n                                                    &lt;/content&gt;</div>"
          }
        } ]
      }, {
        "title": "ReferralRequest",
        "entry": [ {
          "reference": "urn:uuid:571b2bea-b48c-41c6-a450-d580d9921354"
        } ]
      } ]
    }
  }, {
    "fullUrl": "urn:uuid:338e7a8f-bc6a-42c2-a90f-d0348eaba5b0",
    "resource": {
      "resourceType": "Consent",
      "id": "338e7a8f-bc6a-42c2-a90f-d0348eaba5b0",
      "identifier": {
        "use": "usual",
        "value": "895062D0-60A8-4EB4-9017-5F489D53694D"
      },
      "status": "active",
      "patient": {
        "reference": "urn:uuid:adac033f-d3e7-42fb-acfb-178f90585115"
      },
      "period": {
        "start": "2021-05-13T17:24:56+00:00"
      },
      "consentingParty": [ {
        "reference": "urn:uuid:adac033f-d3e7-42fb-acfb-178f90585115"
      } ],
      "action": [ {
        "coding": [ {
          "system": "http://snomed.info/sct",
          "code": "425691002",
          "display": "Consent given for electronic record sharing"
        } ],
        "text": "Consent given for electronic record sharing"
      } ],
      "organization": [ {
        "reference": "urn:uuid:9401802d-41ed-464f-bf3f-cd4f9d0a31cd"
      } ],
      "policyRule": "http://hl7.org/fhir/ConsentPolicy/opt-out",
      "data": [ {
        "meaning": "related",
        "reference": {
          "reference": "urn:uuid:30d20e22-44f7-4071-bbb2-c5c45954e3d5"
        }
      } ]
    }
  }, {
    "fullUrl": "urn:uuid:66fbf05a-b2bd-48e2-872a-2e12328cadd8",
    "resource": {
      "resourceType": "Condition",
      "id": "66fbf05a-b2bd-48e2-872a-2e12328cadd8",
      "clinicalStatus": "active",
      "verificationStatus": "unknown",
      "subject": {
        "reference": "urn:uuid:adac033f-d3e7-42fb-acfb-178f90585115"
      },
      "context": {
        "reference": "urn:uuid:30d20e22-44f7-4071-bbb2-c5c45954e3d5"
      }
    }
  }, {
    "fullUrl": "urn:uuid:c3c6a1e3-7c31-4c55-a1df-c1e0342da975",
    "resource": {
      "resourceType": "Observation",
      "id": "c3c6a1e3-7c31-4c55-a1df-c1e0342da975",
      "status": "final",
      "code": {
        "coding": [ {
          "system": "http://snomed.info/sct",
          "code": "33962009",
          "display": "Presenting complaint"
        } ]
      },
      "subject": {
        "reference": "urn:uuid:adac033f-d3e7-42fb-acfb-178f90585115"
      },
      "context": {
        "reference": "urn:uuid:30d20e22-44f7-4071-bbb2-c5c45954e3d5"
      },
      "valueString": "<CLEO Ref: 2100310450> Test Call "
    }
  }, {
    "fullUrl": "urn:uuid:9df2239a-a4ac-4e5e-add0-d30f7de0670f",
    "resource": {
      "resourceType": "PractitionerRole",
      "id": "9df2239a-a4ac-4e5e-add0-d30f7de0670f",
      "practitioner": {
        "reference": "urn:uuid:0c70e347-c281-4dc5-841e-192c3c1a48c8"
      },
      "organization": {
        "reference": "urn:uuid:cf82f2f0-fbfe-4c95-b21d-46dcf592d825"
      },
      "code": [ {
        "coding": [ {
          "system": "2.16.840.1.113883.2.1.3.2.4.17.196",
          "code": "NR1690",
          "display": "Call Operator"
        } ]
      } ]
    }
  }, {
    "fullUrl": "urn:uuid:cf82f2f0-fbfe-4c95-b21d-46dcf592d825",
    "resource": {
      "resourceType": "Organization",
      "id": "cf82f2f0-fbfe-4c95-b21d-46dcf592d825",
      "identifier": [ {
        "value": "NTN08"
      } ],
      "name": "Norfolk and Wisbech 111"
    }
  }, {
    "fullUrl": "urn:uuid:9aba3b35-205d-409f-8a8b-5a2127e0b911",
    "resource": {
      "resourceType": "RelatedPerson",
      "id": "9aba3b35-205d-409f-8a8b-5a2127e0b911",
      "patient": {
        "reference": "urn:uuid:adac033f-d3e7-42fb-acfb-178f90585115"
      },
      "relationship": {
        "coding": [ {
          "system": "http://hl7.org/fhir/v2/0131",
          "code": "C",
          "display": "Emergency Contact"
        } ]
      },
      "telecom": [ {
        "system": "phone",
        "value": "tel:01233123123"
      } ]
    }
  }, {
    "fullUrl": "urn:uuid:0837765f-5cab-47e7-b41c-f265caa54968",
    "resource": {
      "resourceType": "Device",
      "id": "0837765f-5cab-47e7-b41c-f265caa54968",
      "model": "111 Adaptor",
      "version": "1.0.1"
    }
  }, {
    "fullUrl": "urn:uuid:47ffaa23-6bf7-44c7-89b9-20ad1eec34df",
    "resource": {
      "resourceType": "List",
      "id": "47ffaa23-6bf7-44c7-89b9-20ad1eec34df",
      "status": "current",
      "mode": "working",
      "title": "111 Report List",
      "code": {
        "coding": [ {
          "system": "http://snomed.info/sct",
          "code": "225390008",
          "display": "Triage"
        } ]
      },
      "subject": {
        "reference": "urn:uuid:adac033f-d3e7-42fb-acfb-178f90585115"
      },
      "encounter": {
        "reference": "urn:uuid:30d20e22-44f7-4071-bbb2-c5c45954e3d5"
      },
      "date": "2021-05-13T17:24:56+00:00",
      "source": {
        "reference": "urn:uuid:0837765f-5cab-47e7-b41c-f265caa54968"
      },
      "orderedBy": {
        "coding": [ {
          "system": "http://hl7.org/fhir/list-order",
          "code": "event-date",
          "display": "Sorted by Event Date"
        } ]
      },
      "entry": [ {
        "item": {
          "reference": "urn:uuid:9aba3b35-205d-409f-8a8b-5a2127e0b911"
        }
      }, {
        "item": {
          "reference": "urn:uuid:9401802d-41ed-464f-bf3f-cd4f9d0a31cd"
        }
      }, {
        "item": {
          "reference": "urn:uuid:db011393-4e41-4ccf-b57e-6bf897e5ac6e"
        }
      }, {
        "item": {
          "reference": "urn:uuid:f2815747-bc6e-4ac8-81d5-84122a2f6376"
        }
      }, {
        "item": {
          "reference": "urn:uuid:66fbf05a-b2bd-48e2-872a-2e12328cadd8"
        }
      }, {
        "item": {
          "reference": "urn:uuid:15a49235-d937-46b9-a121-7f3b09c36b0a"
        }
      }, {
        "item": {
          "reference": "urn:uuid:cf82f2f0-fbfe-4c95-b21d-46dcf592d825"
        }
      }, {
        "item": {
          "reference": "urn:uuid:be715a4d-e5dd-41fa-b121-28209221f375"
        }
      }, {
        "item": {
          "reference": "urn:uuid:33e761d3-a0dc-47bb-af31-250d664e314d"
        }
      }, {
        "item": {
          "reference": "urn:uuid:0c70e347-c281-4dc5-841e-192c3c1a48c8"
        }
      }, {
        "item": {
          "reference": "urn:uuid:c3c6a1e3-7c31-4c55-a1df-c1e0342da975"
        }
      }, {
        "item": {
          "reference": "urn:uuid:571b2bea-b48c-41c6-a450-d580d9921354"
        }
      } ]
    }
  } ]
}