{
  "resourceType": "Bundle",
  "meta": {
    "lastUpdated": "2022-05-12T06:46:17.018+00:00"
  },
  "identifier": {
    "type": {
      "text": "ClinicalDocument VersionNumber"
    },
    "value": "1"
  },
  "type": "message",
  "entry": [ {
    "fullUrl": "urn:uuid:F7916D36-4D5F-4A64-BD08-644E8A234AE2",
    "resource": {
      "resourceType": "MessageHeader",
      "id": "F7916D36-4D5F-4A64-BD08-644E8A234AE2",
      "event": {
        "system": "https://fhir.nhs.uk/STU3/CodeSystem/EventType-1",
        "code": "referral-1",
        "display": "Referral"
      },
      "destination": [ {
        "endpoint": "urn:nhs-uk:addressing:ods:NVE06:DOSServiceID:1335970392"
      } ],
      "timestamp": "2021-05-13T17:24:56.000+00:00",
      "source": {
        "name": "NHS 111 Adaptor",
        "endpoint": "http://localhost:8080/report"
      },
      "reason": {
        "coding": [ {
          "system": "urn:nhs-itk:ns:201005:interaction",
          "code": "urn:nhs-itk:interaction:primaryOutofHourRecipientNHS111CDADocument-v2-0"
        } ]
      }
    }
  }, {
    "fullUrl": "urn:uuid:f49f117e-bd07-48e7-88bd-2674f7e4371a",
    "resource": {
      "resourceType": "Encounter",
      "id": "f49f117e-bd07-48e7-88bd-2674f7e4371a",
      "identifier": [ {
        "system": "2.16.840.1.113883.2.1.3.2.4.18.34",
        "value": "2DBAE50F-F88C-4572-9866-F94FE0F1F25A"
      }, {
        "system": "2.16.840.1.113883.2.1.3.2.4.18.35",
        "value": "2100310450"
      } ],
      "status": "finished",
      "type": [ {
        "text": "111 Encounter Referral"
      } ],
      "subject": {
        "reference": "urn:uuid:1dbfbc62-2dcf-4472-8371-0aa3abcfaa5c"
      },
      "participant": [ {
        "type": [ {
          "coding": [ {
            "system": "http://hl7.org/fhir/ValueSet/encounter-participant-type",
            "code": "PPRF",
            "display": "Author"
          } ]
        } ],
        "individual": {
          "reference": "urn:uuid:ef49a292-dd71-4d4c-9f65-874e71ff9454"
        }
      }, {
        "type": [ {
          "text": "Informant"
        } ],
        "individual": {
          "reference": "urn:uuid:74839761-e444-42bd-b6db-5194f419aca6"
        }
      } ],
      "period": {
        "start": "2021-05-13T16:47:24+00:00",
        "end": "2021-05-13T17:24:56+00:00"
      },
      "location": [ {
        "location": {
          "reference": "urn:uuid:10dff749-ba15-40d1-a561-07a9ffc62ff2"
        },
        "status": "active"
      }, {
        "location": {
          "reference": "urn:uuid:207b5280-d283-4a02-8c2a-0faa1c936a95"
        },
        "status": "completed"
      } ],
      "serviceProvider": {
        "reference": "urn:uuid:bcfe41e4-0771-4fe9-a335-31f8a7e95c19"
      }
    }
  }, {
    "fullUrl": "urn:uuid:bcfe41e4-0771-4fe9-a335-31f8a7e95c19",
    "resource": {
      "resourceType": "Organization",
      "id": "bcfe41e4-0771-4fe9-a335-31f8a7e95c19",
      "active": true,
      "type": [ {
        "text": "CST"
      } ],
      "name": "Norfolk and Wisbech 111"
    }
  }, {
    "fullUrl": "urn:uuid:ef49a292-dd71-4d4c-9f65-874e71ff9454",
    "resource": {
      "resourceType": "Practitioner",
      "id": "ef49a292-dd71-4d4c-9f65-874e71ff9454",
      "active": true,
      "name": [ {
        "text": "Ben Smythson"
      } ]
    }
  }, {
    "fullUrl": "urn:uuid:74839761-e444-42bd-b6db-5194f419aca6",
    "resource": {
      "resourceType": "RelatedPerson",
      "id": "74839761-e444-42bd-b6db-5194f419aca6",
      "active": true,
      "patient": {
        "reference": "urn:uuid:1dbfbc62-2dcf-4472-8371-0aa3abcfaa5c"
      },
      "relationship": {
        "coding": [ {
          "system": "2.16.840.1.113883.2.1.3.2.4.16.45",
          "code": "21",
          "display": "Self"
        }, {
          "system": "http://hl7.org/fhir/v2/0131",
          "code": "C",
          "display": "Emergency Contact"
        } ]
      },
      "name": [ {
        "text": "Test Call Dx10 TEST CALL DX10"
      } ],
      "telecom": [ {
        "system": "phone",
        "value": "tel:01233123123"
      } ],
      "gender": "unknown"
    }
  }, {
    "fullUrl": "urn:uuid:10dff749-ba15-40d1-a561-07a9ffc62ff2",
    "resource": {
      "resourceType": "Location",
      "id": "10dff749-ba15-40d1-a561-07a9ffc62ff2",
      "managingOrganization": {
        "reference": "urn:uuid:7994e61b-e546-4363-925b-8fd3fe5cb874"
      }
    }
  }, {
    "fullUrl": "urn:uuid:7994e61b-e546-4363-925b-8fd3fe5cb874",
    "resource": {
      "resourceType": "Organization",
      "id": "7994e61b-e546-4363-925b-8fd3fe5cb874",
      "identifier": [ {
        "value": "Z10000"
      } ],
      "type": [ {
        "text": "GP Practice"
      } ],
      "name": "UNKNOWN"
    }
  }, {
    "fullUrl": "urn:uuid:207b5280-d283-4a02-8c2a-0faa1c936a95",
    "resource": {
      "resourceType": "Location",
      "id": "207b5280-d283-4a02-8c2a-0faa1c936a95",
      "address": {
        "type": "physical",
        "line": [ "313 VICTORIA ROAD", "LOWESTOFT" ],
        "postalCode": "NR33 9LS"
      }
    }
  }, {
    "fullUrl": "urn:uuid:1dbfbc62-2dcf-4472-8371-0aa3abcfaa5c",
    "resource": {
      "resourceType": "Patient",
      "id": "1dbfbc62-2dcf-4472-8371-0aa3abcfaa5c",
      "language": "en",
      "active": true,
      "name": [ {
        "use": "official",
        "family": "TEST CALL DX10",
        "given": [ "Test Call Dx10" ]
      } ],
      "telecom": [ {
        "system": "phone",
        "value": "tel:01233123123"
      } ],
      "gender": "male",
      "birthDate": "1996-03-25",
      "address": [ {
        "use": "home",
        "line": [ "313 VICTORIA ROAD", "LOWESTOFT" ],
        "postalCode": "NR33 9LS"
      }, {
        "type": "physical",
        "line": [ "313 VICTORIA ROAD", "LOWESTOFT" ],
        "postalCode": "NR33 9LS"
      } ],
      "generalPractitioner": [ {
        "reference": "urn:uuid:be6ace32-be88-4821-ba00-43667c01ae1e"
      } ]
    }
  }, {
    "fullUrl": "urn:uuid:be6ace32-be88-4821-ba00-43667c01ae1e",
    "resource": {
      "resourceType": "Organization",
      "id": "be6ace32-be88-4821-ba00-43667c01ae1e",
      "identifier": [ {
        "value": "Z10000"
      } ],
      "type": [ {
        "text": "GP Practice"
      } ],
      "name": "UNKNOWN"
    }
  }, {
    "fullUrl": "urn:uuid:3491a810-5bcd-42b1-a543-6b31aacb7e88",
    "resource": {
      "resourceType": "HealthcareService",
      "id": "3491a810-5bcd-42b1-a543-6b31aacb7e88",
      "active": true,
      "providedBy": {
        "reference": "urn:uuid:e6283d7b-5b56-41c2-9627-74c221bb707e"
      },
      "location": [ {
        "reference": "urn:uuid:2c7df38c-0452-45c4-96b6-5e20077a069d"
      } ],
      "name": "Out of Hours GP Service (Waveney) - Kirkley Mill Health Centre, Lowestoft"
    }
  }, {
    "fullUrl": "urn:uuid:2c7df38c-0452-45c4-96b6-5e20077a069d",
    "resource": {
      "resourceType": "Location",
      "id": "2c7df38c-0452-45c4-96b6-5e20077a069d",
      "managingOrganization": {
        "reference": "urn:uuid:e6283d7b-5b56-41c2-9627-74c221bb707e"
      }
    }
  }, {
    "fullUrl": "urn:uuid:e6283d7b-5b56-41c2-9627-74c221bb707e",
    "resource": {
      "resourceType": "Organization",
      "id": "e6283d7b-5b56-41c2-9627-74c221bb707e",
      "identifier": [ {
        "value": "NVE06"
      } ],
      "type": [ {
        "coding": [ {
          "code": "PRCP",
          "display": "Out of Hours GP Service (Waveney) - Kirkley Mill Health Centre, Lowestoft"
        } ]
      } ],
      "name": "Out of Hours GP Service (Waveney) - Kirkley Mill Health Centre, Lowestoft"
    }
  }, {
    "fullUrl": "urn:uuid:9cf172ce-2ad4-4784-a44c-6f49c0a0112f",
    "resource": {
      "resourceType": "ReferralRequest",
      "id": "9cf172ce-2ad4-4784-a44c-6f49c0a0112f",
      "status": "active",
      "intent": "plan",
      "priority": "routine",
      "subject": {
        "reference": "urn:uuid:1dbfbc62-2dcf-4472-8371-0aa3abcfaa5c"
      },
      "context": {
        "reference": "urn:uuid:f49f117e-bd07-48e7-88bd-2674f7e4371a"
      },
      "occurrencePeriod": {
        "start": "2021-05-13T17:24:56+00:00"
      },
      "authoredOn": "2021-05-13T17:24:56+00:00",
      "requester": {
        "agent": {
          "reference": "urn:uuid:b2ebcbf8-7dfe-498b-b413-7e534d6992fa"
        },
        "onBehalfOf": {
          "reference": "urn:uuid:bcfe41e4-0771-4fe9-a335-31f8a7e95c19"
        }
      },
      "recipient": [ {
        "reference": "urn:uuid:ae54a4f2-52b4-4975-ad44-64f6749c8f0d"
      }, {
        "reference": "urn:uuid:3491a810-5bcd-42b1-a543-6b31aacb7e88"
      } ],
      "reasonReference": [ {
        "reference": "urn:uuid:9db42122-fae7-4eeb-aa78-c002f270c1ed"
      } ],
      "supportingInfo": [ {
        "reference": "urn:uuid:ea18e49b-017f-4a0d-9e5c-b3a597715aac"
      } ]
    }
  }, {
    "fullUrl": "urn:uuid:ea18e49b-017f-4a0d-9e5c-b3a597715aac",
    "resource": {
      "resourceType": "ProcedureRequest",
      "id": "ea18e49b-017f-4a0d-9e5c-b3a597715aac",
      "status": "active",
      "intent": "plan",
      "priority": "routine",
      "doNotPerform": false,
      "code": {
        "coding": [ {
          "system": "2.16.840.1.113883.2.1.3.2.4.17.325",
          "code": "Dx10",
          "display": "MUST contact a local service for a Non-Urgent Appointment"
        } ]
      },
      "subject": {
        "reference": "urn:uuid:1dbfbc62-2dcf-4472-8371-0aa3abcfaa5c"
      },
      "occurrencePeriod": {
        "start": "2021-05-13T17:24:56+00:00"
      },
      "reasonReference": [ {
        "reference": "urn:uuid:9db42122-fae7-4eeb-aa78-c002f270c1ed"
      } ]
    }
  }, {
    "fullUrl": "urn:uuid:ae54a4f2-52b4-4975-ad44-64f6749c8f0d",
    "resource": {
      "resourceType": "Practitioner",
      "id": "ae54a4f2-52b4-4975-ad44-64f6749c8f0d",
      "active": true,
      "telecom": [ {
        "system": "phone",
        "value": "tel:01233505450"
      } ],
      "address": [ {
        "type": "physical",
        "line": [ "Kingston House", "The Long Barrow", "Orbital Park", "Ashford", "Kent" ],
        "postalCode": "TN24 0GP"
      } ]
    }
  }, {
    "fullUrl": "urn:uuid:ec0374d8-9f5a-4ac4-905c-96adeaef39d0",
    "resource": {
      "resourceType": "Composition",
      "id": "ec0374d8-9f5a-4ac4-905c-96adeaef39d0",
      "identifier": {
        "use": "usual",
        "value": "895062D0-60A8-4EB4-9017-5F489D53694D"
      },
      "status": "final",
      "type": {
        "coding": [ {
          "system": "http://snomed.info/sct",
          "code": "371531000",
          "display": "Report of clinical encounter (record artifact)"
        } ]
      },
      "subject": {
        "reference": "urn:uuid:1dbfbc62-2dcf-4472-8371-0aa3abcfaa5c"
      },
      "encounter": {
        "reference": "urn:uuid:f49f117e-bd07-48e7-88bd-2674f7e4371a"
      },
      "date": "2021-05-13T17:24:56+00:00",
      "author": [ {
        "reference": "urn:uuid:ef49a292-dd71-4d4c-9f65-874e71ff9454"
      } ],
      "title": "111 Report",
      "confidentiality": "R",
      "section": [ {
        "section": [ {
          "title": "Patient's Reported Condition",
          "text": {
            "status": "generated",
            "div": "<div xmlns=\"http://www.w3.org/1999/xhtml\">&lt;content&gt;&amp;lt;CLEO Ref: 2100310450&amp;gt; Test Call &lt;br/&gt;\n                                                    &lt;/content&gt;</div>"
          }
        }, {
          "title": "Pathways Disposition",
          "text": {
            "status": "generated",
            "div": "<div xmlns=\"http://www.w3.org/1999/xhtml\">&lt;content&gt;If a pharmacy service is not available contact the GP practice during normal working hours. (Dx10)&lt;/content&gt;\n                                                    &lt;br/&gt;\n                                                    &lt;br/&gt;\n                                                    &lt;content&gt;Selected Service: 1335970392, Out of Hours GP Service (Waveney) - Kirkley Mill Health Centre, Lowestoft, 111&lt;/content&gt;\n                                                    &lt;br/&gt;</div>"
          }
        }, {
          "title": "Consultation Summary",
          "text": {
            "status": "generated",
            "div": "<div xmlns=\"http://www.w3.org/1999/xhtml\">&lt;content&gt;\n                                                        &lt;content&gt;Worst acne feature, blackheads or whiteheads&lt;/content&gt;\n                                                        &lt;br/&gt;\n                                                        &lt;content&gt;Acne&lt;/content&gt;\n                                                        &lt;br/&gt;\n                                                        &lt;content&gt;Warm to touch&lt;/content&gt;\n                                                        &lt;br/&gt;\n                                                        &lt;content&gt;Illness - test&lt;/content&gt;\n                                                        &lt;br/&gt;\n                                                    &lt;/content&gt;</div>"
          }
        }, {
          "title": "Pathways Assessment",
          "text": {
            "status": "generated",
            "div": "<div xmlns=\"http://www.w3.org/1999/xhtml\">&lt;content&gt;An injury or health problem was the reason for the contact.&lt;/content&gt;\n                                                    &lt;br/&gt;\n                                                    &lt;content&gt;Heavy bleeding had not occurred in the previous 2 hours.&lt;/content&gt;\n                                                    &lt;br/&gt;\n                                                    &lt;content&gt;An illness or health problem was the main problem. - test&lt;/content&gt;\n                                                    &lt;br/&gt;\n                                                    &lt;content&gt;The individual was not fighting for breath.&lt;/content&gt;\n                                                    &lt;br/&gt;\n                                                    &lt;content&gt;The main reason for the assessment was not an allergic reaction, heart attack, chest/upper back pain, probable stroke, recent fit/seizure or suicide attempt.&lt;/content&gt;\n                                                    &lt;br/&gt;\n                                                    &lt;content&gt;The main reason for contact was not new confusion, declared diabetic hypo/hyperglycaemia, or ICD shock.&lt;/content&gt;\n                                                    &lt;br/&gt;\n                                                    &lt;content&gt;The skin on the torso felt normal, warm or hot.&lt;/content&gt;\n                                                    &lt;br/&gt;\n                                                    &lt;content&gt;The main problem was not a rash, itch, jaundice, skin lumps or abnormal bruising.&lt;/content&gt;\n                                                    &lt;br/&gt;\n                                                    &lt;content&gt;The main problem was acne, spots or pimples.&lt;/content&gt;\n                                                    &lt;br/&gt;\n                                                    &lt;content&gt;The worst problem with the acne was blackheads or white heads.&lt;/content&gt;\n                                                    &lt;br/&gt;\n                                                    &lt;content&gt;The problem had not persisted for 3 months or got worse over that time.&lt;/content&gt;\n                                                    &lt;br/&gt;</div>"
          }
        }, {
          "title": "Advice Given",
          "text": {
            "status": "generated",
            "div": "<div xmlns=\"http://www.w3.org/1999/xhtml\">&lt;content&gt;Speak to a pharmacist for advice on suitable treatment.&lt;/content&gt;\n                                                    &lt;br/&gt;\n                                                    &lt;content&gt;If there are any new symptoms, or if the condition gets worse, changes or you have any other concerns, call us back.&lt;/content&gt;\n                                                    &lt;br/&gt;</div>"
          }
        }, {
          "title": "SCR Consent",
          "text": {
            "status": "generated",
            "div": "<div xmlns=\"http://www.w3.org/1999/xhtml\">&lt;content&gt;Consent given for SCR sharing&lt;br/&gt;\n                                                        &lt;br/&gt;\n                                                    &lt;/content&gt;</div>"
          }
        } ]
      }, {
        "title": "ReferralRequest",
        "entry": [ {
          "reference": "urn:uuid:9cf172ce-2ad4-4784-a44c-6f49c0a0112f"
        } ]
      } ]
    }
  }, {
    "fullUrl": "urn:uuid:a289e7e4-80fe-49bb-a077-fb660a7a9bd8",
    "resource": {
      "resourceType": "Consent",
      "id": "a289e7e4-80fe-49bb-a077-fb660a7a9bd8",
      "identifier": {
        "use": "usual",
        "value": "895062D0-60A8-4EB4-9017-5F489D53694D"
      },
      "status": "active",
      "patient": {
        "reference": "urn:uuid:1dbfbc62-2dcf-4472-8371-0aa3abcfaa5c"
      },
      "period": {
        "start": "2021-05-13T16:47:24+00:00",
        "end": "2021-05-13T17:24:56+00:00"
      },
      "consentingParty": [ {
        "reference": "urn:uuid:1dbfbc62-2dcf-4472-8371-0aa3abcfaa5c"
      } ],
      "action": [ {
        "coding": [ {
          "system": "http://snomed.info/sct",
          "code": "425691002",
          "display": "Consent given for electronic record sharing"
        } ],
        "text": "Consent given for electronic record sharing"
      } ],
      "organization": [ {
        "reference": "urn:uuid:bcfe41e4-0771-4fe9-a335-31f8a7e95c19"
      } ],
      "policyRule": "http://hl7.org/fhir/ConsentPolicy/opt-out",
      "data": [ {
        "meaning": "related",
        "reference": {
          "reference": "urn:uuid:f49f117e-bd07-48e7-88bd-2674f7e4371a"
        }
      } ]
    }
  }, {
    "fullUrl": "urn:uuid:9db42122-fae7-4eeb-aa78-c002f270c1ed",
    "resource": {
      "resourceType": "Condition",
      "id": "9db42122-fae7-4eeb-aa78-c002f270c1ed",
      "clinicalStatus": "active",
      "verificationStatus": "unknown",
      "subject": {
        "reference": "urn:uuid:1dbfbc62-2dcf-4472-8371-0aa3abcfaa5c"
      },
      "context": {
        "reference": "urn:uuid:f49f117e-bd07-48e7-88bd-2674f7e4371a"
      }
    }
  }, {
    "fullUrl": "urn:uuid:883b1e43-66c9-45d8-b894-d1e44e4c20b5",
    "resource": {
      "resourceType": "Observation",
      "id": "883b1e43-66c9-45d8-b894-d1e44e4c20b5",
      "status": "final",
      "code": {
        "coding": [ {
          "system": "http://snomed.info/sct",
          "code": "33962009",
          "display": "Presenting complaint"
        } ]
      },
      "subject": {
        "reference": "urn:uuid:1dbfbc62-2dcf-4472-8371-0aa3abcfaa5c"
      },
      "context": {
        "reference": "urn:uuid:f49f117e-bd07-48e7-88bd-2674f7e4371a"
      },
      "valueString": "<CLEO Ref: 2100310450> Test Call "
    }
  }, {
    "fullUrl": "urn:uuid:cbcb4d23-4331-491e-b1ef-261b2497372f",
    "resource": {
      "resourceType": "PractitionerRole",
      "id": "cbcb4d23-4331-491e-b1ef-261b2497372f",
      "practitioner": {
        "reference": "urn:uuid:ef49a292-dd71-4d4c-9f65-874e71ff9454"
      },
      "organization": {
        "reference": "urn:uuid:8c7e71cd-331e-4990-9d6d-6e6cd399968f"
      },
      "code": [ {
        "coding": [ {
          "system": "2.16.840.1.113883.2.1.3.2.4.17.196",
          "code": "NR1690",
          "display": "Call Operator"
        } ]
      } ]
    }
  }, {
    "fullUrl": "urn:uuid:8c7e71cd-331e-4990-9d6d-6e6cd399968f",
    "resource": {
      "resourceType": "Organization",
      "id": "8c7e71cd-331e-4990-9d6d-6e6cd399968f",
      "identifier": [ {
        "value": "NTN08"
      } ],
      "name": "Norfolk and Wisbech 111"
    }
  }, {
    "fullUrl": "urn:uuid:ce3f4234-5422-4315-ad44-a1f0ff978df7",
    "resource": {
      "resourceType": "RelatedPerson",
      "id": "ce3f4234-5422-4315-ad44-a1f0ff978df7",
      "patient": {
        "reference": "urn:uuid:1dbfbc62-2dcf-4472-8371-0aa3abcfaa5c"
      },
      "relationship": {
        "coding": [ {
          "system": "http://hl7.org/fhir/v2/0131",
          "code": "C",
          "display": "Emergency Contact"
        } ]
      },
      "telecom": [ {
        "system": "phone",
        "value": "tel:01233123123"
      } ]
    }
  }, {
    "fullUrl": "urn:uuid:b2ebcbf8-7dfe-498b-b413-7e534d6992fa",
    "resource": {
      "resourceType": "Device",
      "id": "b2ebcbf8-7dfe-498b-b413-7e534d6992fa",
      "model": "111 Adaptor",
      "version": "1.0.1"
    }
  }, {
    "fullUrl": "urn:uuid:bbd5dee8-da40-4f60-8783-8484e8809e1b",
    "resource": {
      "resourceType": "List",
      "id": "bbd5dee8-da40-4f60-8783-8484e8809e1b",
      "status": "current",
      "mode": "working",
      "title": "111 Report List",
      "code": {
        "coding": [ {
          "system": "http://snomed.info/sct",
          "code": "225390008",
          "display": "Triage"
        } ]
      },
      "subject": {
        "reference": "urn:uuid:1dbfbc62-2dcf-4472-8371-0aa3abcfaa5c"
      },
      "encounter": {
        "reference": "urn:uuid:f49f117e-bd07-48e7-88bd-2674f7e4371a"
      },
      "date": "2021-05-13T17:24:56+00:00",
      "source": {
        "reference": "urn:uuid:b2ebcbf8-7dfe-498b-b413-7e534d6992fa"
      },
      "orderedBy": {
        "coding": [ {
          "system": "http://hl7.org/fhir/list-order",
          "code": "event-date",
          "display": "Sorted by Event Date"
        } ]
      },
      "entry": [ {
        "item": {
          "reference": "urn:uuid:7994e61b-e546-4363-925b-8fd3fe5cb874"
        }
      }, {
        "item": {
          "reference": "urn:uuid:883b1e43-66c9-45d8-b894-d1e44e4c20b5"
        }
      }, {
        "item": {
          "reference": "urn:uuid:8c7e71cd-331e-4990-9d6d-6e6cd399968f"
        }
      }, {
        "item": {
          "reference": "urn:uuid:e6283d7b-5b56-41c2-9627-74c221bb707e"
        }
      }, {
        "item": {
          "reference": "urn:uuid:ef49a292-dd71-4d4c-9f65-874e71ff9454"
        }
      }, {
        "item": {
          "reference": "urn:uuid:9db42122-fae7-4eeb-aa78-c002f270c1ed"
        }
      }, {
        "item": {
          "reference": "urn:uuid:74839761-e444-42bd-b6db-5194f419aca6"
        }
      }, {
        "item": {
          "reference": "urn:uuid:ce3f4234-5422-4315-ad44-a1f0ff978df7"
        }
      }, {
        "item": {
          "reference": "urn:uuid:bcfe41e4-0771-4fe9-a335-31f8a7e95c19"
        }
      }, {
        "item": {
          "reference": "urn:uuid:be6ace32-be88-4821-ba00-43667c01ae1e"
        }
      }, {
        "item": {
          "reference": "urn:uuid:ae54a4f2-52b4-4975-ad44-64f6749c8f0d"
        }
      }, {
        "item": {
          "reference": "urn:uuid:9cf172ce-2ad4-4784-a44c-6f49c0a0112f"
        }
      } ]
    }
  } ]
}