{
  "resourceType": "Bundle",
  "meta": {
    "lastUpdated": "2022-05-12T06:46:16.552+00:00"
  },
  "identifier": {
    "type": {
      "text": "ClinicalDocument VersionNumber"
    },
    "value": "1"
  },
  "type": "message",
  "entry": [ {
    "fullUrl": "urn:uuid:05040617-33BA-4344-AA59-281CF2FE63CA",
    "resource": {
      "resourceType": "MessageHeader",
      "id": "05040617-33BA-4344-AA59-281CF2FE63CA",
      "event": {
        "system": "https://fhir.nhs.uk/STU3/CodeSystem/EventType-1",
        "code": "referral-1",
        "display": "Referral"
      },
      "destination": [ {
        "endpoint": "urn:nhs-uk:addressing:ods:FHR04RPX:DOSServiceID:2000038667"
      } ],
      "timestamp": "2021-04-06T15:19:34.000+00:00",
      "source": {
        "name": "NHS 111 Adaptor",
        "endpoint": "http://localhost:8080/report"
      },
      "reason": {
        "coding": [ {
          "system": "urn:nhs-itk:ns:201005:interaction",
          "code": "urn:nhs-itk:interaction:primaryOutofHourRecipientNHS111CDADocument-v2-0"
        } ]
      }
    }
  }, {
    "fullUrl": "urn:uuid:db6e0ef0-f959-4f80-9659-ee3d9549cc30",
    "resource": {
      "resourceType": "Encounter",
      "id": "db6e0ef0-f959-4f80-9659-ee3d9549cc30",
      "identifier": [ {
        "system": "2.16.840.1.113883.2.1.3.2.4.18.34",
        "value": "AdastraCaseGUID34"
      }, {
        "system": "2.16.840.1.113883.2.1.3.2.4.18.35",
        "value": "AdastraCaseID35"
      }, {
        "system": "2.16.840.1.113883.2.1.3.2.4.18.49",
        "value": "AdastraCaseGUID49"
      } ],
      "status": "finished",
      "type": [ {
        "text": "111 Encounter Referral"
      } ],
      "subject": {
        "reference": "urn:uuid:0113f5ec-a0b7-4741-be11-dd7d0ece0050"
      },
      "participant": [ {
        "type": [ {
          "coding": [ {
            "system": "http://hl7.org/fhir/ValueSet/encounter-participant-type",
            "code": "PPRF",
            "display": "Author"
          } ]
        } ],
        "individual": {
          "reference": "urn:uuid:1e8a8525-dbc9-47ec-a227-f9e2390f2fd4"
        }
      }, {
        "type": [ {
          "text": "Informant"
        } ],
        "individual": {
          "reference": "urn:uuid:f9fe77e4-25e8-4072-b77b-dff1cae7071a"
        }
      }, {
        "type": [ {
          "coding": [ {
            "system": "http://hl7.org/fhir/ValueSet/encounter-participant-type",
            "code": "ATND",
            "display": "Responsible Party"
          } ]
        } ],
        "individual": {
          "reference": "urn:uuid:f077adee-b7ba-4665-b6b9-1438d0b7ce01"
        }
      } ],
      "period": {
        "start": "2021-04-06T15:13:33+00:00",
        "end": "2021-04-06T15:19:29+00:00"
      },
      "location": [ {
        "location": {
          "reference": "urn:uuid:b744627e-f820-4c50-ae74-6c3b57c22cc3"
        },
        "status": "completed"
      } ],
      "serviceProvider": {
        "reference": "urn:uuid:f2da47c7-72d8-45dd-a543-0b5eecc65c6a"
      }
    }
  }, {
    "fullUrl": "urn:uuid:f2da47c7-72d8-45dd-a543-0b5eecc65c6a",
    "resource": {
      "resourceType": "Organization",
      "id": "f2da47c7-72d8-45dd-a543-0b5eecc65c6a",
      "active": true,
      "type": [ {
        "text": "CST"
      } ],
      "name": "CustodianName"
    }
  }, {
    "fullUrl": "urn:uuid:1e8a8525-dbc9-47ec-a227-f9e2390f2fd4",
    "resource": {
      "resourceType": "Practitioner",
      "id": "1e8a8525-dbc9-47ec-a227-f9e2390f2fd4",
      "active": true,
      "name": [ {
        "use": "official",
        "family": "AuthorAssignedPerson FamilyName",
        "given": [ "AuthorAssignedPerson GivenName" ]
      } ]
    }
  }, {
    "fullUrl": "urn:uuid:f9fe77e4-25e8-4072-b77b-dff1cae7071a",
    "resource": {
      "resourceType": "RelatedPerson",
      "id": "f9fe77e4-25e8-4072-b77b-dff1cae7071a",
      "active": true,
      "patient": {
        "reference": "urn:uuid:0113f5ec-a0b7-4741-be11-dd7d0ece0050"
      },
      "relationship": {
        "coding": [ {
          "system": "2.16.840.1.113883.2.1.3.2.4.16.45",
          "code": "16",
          "display": "Relative"
        } ]
      },
      "name": [ {
        "text": "RelatedPerson Name"
      } ],
      "telecom": [ {
        "system": "phone",
        "value": "tel:01111111111",
        "use": "home"
      } ],
      "gender": "unknown"
    }
  }, {
    "fullUrl": "urn:uuid:f077adee-b7ba-4665-b6b9-1438d0b7ce01",
    "resource": {
      "resourceType": "Practitioner",
      "id": "f077adee-b7ba-4665-b6b9-1438d0b7ce01",
      "active": true,
      "name": [ {
        "use": "official",
        "family": "ResponsablePartyMD FamilyName",
        "given": [ "ResponsablePartyMD GivenName" ]
      } ]
    }
  }, {
    "fullUrl": "urn:uuid:b744627e-f820-4c50-ae74-6c3b57c22cc3",
    "resource": {
      "resourceType": "Location",
      "id": "b744627e-f820-4c50-ae74-6c3b57c22cc3",
      "name": "Incident Location",
      "address": {
        "type": "physical",
        "line": [ "HealthCareFacility AddressLine1", "HealthCareFacility AddressLine2", "HealthCareFacility AddressLine3", "HealthCareFacility AddressLine4", "HealthCareFacility AddressLine5" ],
        "postalCode": "LOH25 4NS"
      }
    }
  }, {
    "fullUrl": "urn:uuid:0113f5ec-a0b7-4741-be11-dd7d0ece0050",
    "resource": {
      "resourceType": "Patient",
      "id": "0113f5ec-a0b7-4741-be11-dd7d0ece0050",
      "active": true,
      "name": [ {
        "use": "official",
        "family": "Patient Family Name",
        "given": [ "Patient Given Name" ]
      } ],
      "telecom": [ {
        "system": "phone",
        "value": "tel:000000000000",
        "use": "home"
      }, {
        "system": "phone",
        "value": "tel:000000000000"
      } ],
      "gender": "other",
      "birthDate": "1990-02-02",
      "address": [ {
        "use": "home",
        "line": [ "Home Address Line 1", "Home Address Line 2", "Home Address Line 3", "Home Address Line 4", "Home Address Line 5" ],
        "postalCode": "HA25 4NS"
      }, {
        "type": "physical",
        "line": [ "Home Address Line 1", "Home Address Line 2", "Home Address Line 3", "Home Address Line 4", "Home Address Line 5" ],
        "postalCode": "PH25 4NS"
      } ]
    }
  }, {
    "fullUrl": "urn:uuid:0d196bc5-e7af-4713-950e-bf75b765a521",
    "resource": {
      "resourceType": "HealthcareService",
      "id": "0d196bc5-e7af-4713-950e-bf75b765a521",
      "active": true,
      "providedBy": {
        "reference": "urn:uuid:9bd51d4b-f257-419a-bccb-3e7acf3f903e"
      },
      "location": [ {
        "reference": "urn:uuid:caaff7b7-1786-46a8-bf8a-2df8c831647e"
      } ],
      "name": "InformationRecipient IntendedRecipient Name FHR0"
    }
  }, {
    "fullUrl": "urn:uuid:caaff7b7-1786-46a8-bf8a-2df8c831647e",
    "resource": {
      "resourceType": "Location",
      "id": "caaff7b7-1786-46a8-bf8a-2df8c831647e",
      "managingOrganization": {
        "reference": "urn:uuid:9bd51d4b-f257-419a-bccb-3e7acf3f903e"
      }
    }
  }, {
    "fullUrl": "urn:uuid:9bd51d4b-f257-419a-bccb-3e7acf3f903e",
    "resource": {
      "resourceType": "Organization",
      "id": "9bd51d4b-f257-419a-bccb-3e7acf3f903e",
      "identifier": [ {
        "value": "FHR04RPX"
      } ],
      "type": [ {
        "coding": [ {
          "code": "PRCP",
          "display": "InformationRecipient IntendedRecipient Name FHR0"
        } ]
      } ],
      "name": "InformationRecipient IntendedRecipient Name FHR0"
    }
  }, {
    "fullUrl": "urn:uuid:6d5eadd7-267b-4678-81fc-4f8efb7b623c",
    "resource": {
      "resourceType": "ReferralRequest",
      "id": "6d5eadd7-267b-4678-81fc-4f8efb7b623c",
      "status": "active",
      "intent": "plan",
      "priority": "routine",
      "subject": {
        "reference": "urn:uuid:0113f5ec-a0b7-4741-be11-dd7d0ece0050"
      },
      "context": {
        "reference": "urn:uuid:db6e0ef0-f959-4f80-9659-ee3d9549cc30"
      },
      "occurrencePeriod": {
        "start": "2021-04-06T15:19:34+00:00"
      },
      "authoredOn": "2021-04-06T15:19:29+00:00",
      "requester": {
        "agent": {
          "reference": "urn:uuid:7cb2dd84-c30b-4d9b-a00d-0ab3ae1f7406"
        },
        "onBehalfOf": {
          "reference": "urn:uuid:f2da47c7-72d8-45dd-a543-0b5eecc65c6a"
        }
      },
      "recipient": [ {
        "reference": "urn:uuid:0d196bc5-e7af-4713-950e-bf75b765a521"
      } ],
      "reasonReference": [ {
        "reference": "urn:uuid:a3ccb35e-dc71-4107-8799-6675ca1f1b8d"
      } ],
      "supportingInfo": [ {
        "reference": "urn:uuid:a531a3df-f4db-4c47-8454-37e523b5d72c"
      } ]
    }
  }, {
    "fullUrl": "urn:uuid:a531a3df-f4db-4c47-8454-37e523b5d72c",
    "resource": {
      "resourceType": "ProcedureRequest",
      "id": "a531a3df-f4db-4c47-8454-37e523b5d72c",
      "status": "active",
      "intent": "plan",
      "priority": "routine",
      "doNotPerform": false,
      "code": {
        "coding": [ {
          "system": "2.16.840.1.113883.2.1.3.2.4.17.325",
          "code": "DispoCodeDx87",
          "display": "DispoName - Repeat Prescription required within 24 hours"
        } ]
      },
      "subject": {
        "reference": "urn:uuid:0113f5ec-a0b7-4741-be11-dd7d0ece0050"
      },
      "occurrencePeriod": {
        "start": "2021-04-06T15:19:34+00:00"
      },
      "reasonReference": [ {
        "reference": "urn:uuid:a3ccb35e-dc71-4107-8799-6675ca1f1b8d"
      } ]
    }
  }, {
    "fullUrl": "urn:uuid:e71c95cb-c4be-4a37-9340-e7cd5b601ea0",
    "resource": {
      "resourceType": "Composition",
      "id": "e71c95cb-c4be-4a37-9340-e7cd5b601ea0",
      "identifier": {
        "use": "usual",
        "value": "E2DF04F7-95CA-40AD-808D-797C0A89E39C"
      },
      "status": "final",
      "type": {
        "coding": [ {
          "system": "http://snomed.info/sct",
          "code": "371531000",
          "display": "Report of clinical encounter (record artifact)"
        } ]
      },
      "subject": {
        "reference": "urn:uuid:0113f5ec-a0b7-4741-be11-dd7d0ece0050"
      },
      "encounter": {
        "reference": "urn:uuid:db6e0ef0-f959-4f80-9659-ee3d9549cc30"
      },
      "date": "2021-04-06T15:19:34+00:00",
      "author": [ {
        "reference": "urn:uuid:1e8a8525-dbc9-47ec-a227-f9e2390f2fd4"
      } ],
      "title": "111 Report",
      "confidentiality": "N",
      "section": [ {
        "section": [ {
          "title": "ComponentTitle - Patient's Reported Condition",
          "text": {
            "status": "generated",
            "div": "<div xmlns=\"http://www.w3.org/1999/xhtml\">&lt;content&gt;ComponentText - Pharmacy ITK Testing&lt;/content&gt;\n                                                    &lt;br/&gt;</div>"
          }
        }, {
          "title": "ComponentTitle - Pathways Disposition",
          "text": {
            "status": "generated",
            "div": "<div xmlns=\"http://www.w3.org/1999/xhtml\">ComponentText - Repeat Prescription required within 24 hours (Dx87)                                         &lt;br/&gt;\n                                                    &lt;br/&gt;                                         Selected service: Springvale, Fraser Road, Kings Worthy, Winchester&lt;br/&gt;</div>"
          }
        }, {
          "title": "ComponentTitle - Consultation Summary",
          "text": {
            "status": "generated",
            "div": "<div xmlns=\"http://www.w3.org/1999/xhtml\">ComponentText - Prescription request&lt;br/&gt;Not enough medication until surgery opens&lt;br/&gt;No medication available&lt;br/&gt;Next dose due in over 12 hours time&lt;br/&gt;</div>"
          }
        }, {
          "title": "ComponentTitle - Pathways Assessment",
          "text": {
            "status": "generated",
            "div": "<div xmlns=\"http://www.w3.org/1999/xhtml\">ComponentText - Reason for call menu - continued to next list.&lt;br/&gt;A prescription request was the main reason for the contact.&lt;br/&gt;The main reason for the contact was not a new or worsening illness.&lt;br/&gt;The individual did not have enough medication to last until the surgery next opened.&lt;br/&gt;The medication was suitable for repeat prescribing without further consultation.&lt;br/&gt;The individual had no medication available.&lt;br/&gt;The next dose was due in over 12 hours time.&lt;br/&gt;Instructions given were: The individual needs a repeat prescription.&lt;br/&gt;Directory of Services referral: Springvale, Fraser Road, Kings Worthy, Winchester&lt;br/&gt;</div>"
          }
        }, {
          "title": "ComponentTitle - Advice Given",
          "text": {
            "status": "generated",
            "div": "<div xmlns=\"http://www.w3.org/1999/xhtml\">ComponentText - I will arrange for a clinician or pharmacist to speak to the individual.&lt;br/&gt;IF THE RECOMMENDED TIMEFRAME FALLS OUTSIDE OPENING HOURS: I will arrange for a clinician to speak to the individual.&lt;br/&gt;\n                                                    &lt;br/&gt;</div>"
          }
        }, {
          "title": "ComponentTitle - Information And Advice Given"
        }, {
          "title": "ComponentTitle - Disposition",
          "text": {
            "status": "generated",
            "div": "<div xmlns=\"http://www.w3.org/1999/xhtml\">&lt;content&gt;ComponentText - Repeat Prescription required within 24 hours&lt;br/&gt;\n                                                    &lt;/content&gt;\n                                                    &lt;br/&gt;\n                                                    &lt;br/&gt;</div>"
          }
        } ]
      }, {
        "title": "CarePlan",
        "entry": [ {
          "reference": "urn:uuid:4a94fd20-836f-4408-bfda-f39018e7bb04"
        } ]
      }, {
        "title": "ReferralRequest",
        "entry": [ {
          "reference": "urn:uuid:6d5eadd7-267b-4678-81fc-4f8efb7b623c"
        } ]
      }, {
        "title": "QuestionnaireResponse",
        "entry": [ {
          "reference": "urn:uuid:5fe1bb35-6f46-4238-a0cd-62730a3e8c87"
        } ]
      }, {
        "title": "QuestionnaireResponse",
        "entry": [ {
          "reference": "urn:uuid:1f9ca3ba-d1ec-44a3-9e3a-74148982bda5"
        } ]
      }, {
        "title": "QuestionnaireResponse",
        "entry": [ {
          "reference": "urn:uuid:6c184437-13cd-48a7-8ebc-b5985981631e"
        } ]
      }, {
        "title": "QuestionnaireResponse",
        "entry": [ {
          "reference": "urn:uuid:f4875343-7ade-46a8-8bb2-c24f1eb10062"
        } ]
      }, {
        "title": "QuestionnaireResponse",
        "entry": [ {
          "reference": "urn:uuid:ce629233-6054-4397-8cb1-d15599384548"
        } ]
      }, {
        "title": "QuestionnaireResponse",
        "entry": [ {
          "reference": "urn:uuid:23eb7b80-951c-4f91-a1f3-91f12f2b6ead"
        } ]
      }, {
        "title": "QuestionnaireResponse",
        "entry": [ {
          "reference": "urn:uuid:c82fcfe0-bdaa-4609-87d9-95bb0aa110ab"
        } ]
      }, {
        "title": "QuestionnaireResponse",
        "entry": [ {
          "reference": "urn:uuid:dd4a1aaf-b32d-45d4-95a6-e020f448eb2a"
        } ]
      }, {
        "title": "QuestionnaireResponse",
        "entry": [ {
          "reference": "urn:uuid:e7f5540d-50f3-42d9-9dbc-c96148efec60"
        } ]
      }, {
        "title": "QuestionnaireResponse",
        "entry": [ {
          "reference": "urn:uuid:0897a660-3ddd-4af7-bc2a-112f21e88c61"
        } ]
      }, {
        "title": "QuestionnaireResponse",
        "entry": [ {
          "reference": "urn:uuid:04bd0c09-34aa-4bb4-af6d-657893fde5c8"
        } ]
      }, {
        "title": "QuestionnaireResponse",
        "entry": [ {
          "reference": "urn:uuid:25208fe4-d3be-4e4a-9192-8843e89f661b"
        } ]
      }, {
        "title": "QuestionnaireResponse",
        "entry": [ {
          "reference": "urn:uuid:86533537-d7a5-4de8-a904-8edfb9db9e01"
        } ]
      }, {
        "title": "QuestionnaireResponse",
        "entry": [ {
          "reference": "urn:uuid:17810f3e-984d-4120-8a6a-d7ff4d6a5db3"
        } ]
      }, {
        "title": "QuestionnaireResponse",
        "entry": [ {
          "reference": "urn:uuid:1918b0ba-53e6-4e85-a5a4-f4def3c47c43"
        } ]
      } ]
    }
  }, {
    "fullUrl": "urn:uuid:4a94fd20-836f-4408-bfda-f39018e7bb04",
    "resource": {
      "resourceType": "CarePlan",
      "id": "4a94fd20-836f-4408-bfda-f39018e7bb04",
      "status": "completed",
      "intent": "plan",
      "title": "ComponentTitle - Information And Advice Given",
      "subject": {
        "reference": "urn:uuid:0113f5ec-a0b7-4741-be11-dd7d0ece0050"
      },
      "context": {
        "reference": "urn:uuid:db6e0ef0-f959-4f80-9659-ee3d9549cc30"
      },
      "period": {
        "start": "2021-04-06T15:13:33+00:00",
        "end": "2021-04-06T15:19:29+00:00"
      },
      "addresses": [ {
        "reference": "urn:uuid:a3ccb35e-dc71-4107-8799-6675ca1f1b8d"
      } ]
    }
  }, {
    "fullUrl": "urn:uuid:c7fcd6fb-e2c3-4da7-97d5-6e321b302fc3",
    "resource": {
      "resourceType": "Consent",
      "id": "c7fcd6fb-e2c3-4da7-97d5-6e321b302fc3",
      "identifier": {
        "use": "usual",
        "value": "E2DF04F7-95CA-40AD-808D-797C0A89E39C"
      },
      "status": "active",
      "patient": {
        "reference": "urn:uuid:0113f5ec-a0b7-4741-be11-dd7d0ece0050"
      },
      "period": {
        "start": "2021-04-06T15:13:33+00:00",
        "end": "2021-04-06T15:19:29+00:00"
      },
      "consentingParty": [ {
        "reference": "urn:uuid:0113f5ec-a0b7-4741-be11-dd7d0ece0050"
      } ],
      "action": [ {
        "coding": [ {
          "system": "http://snomed.info/sct",
          "code": "425691002",
          "display": "Consent given for electronic record sharing"
        } ],
        "text": "Consent given for electronic record sharing"
      } ],
      "organization": [ {
        "reference": "urn:uuid:f2da47c7-72d8-45dd-a543-0b5eecc65c6a"
      } ],
      "policyRule": "http://hl7.org/fhir/ConsentPolicy/opt-out",
      "data": [ {
        "meaning": "related",
        "reference": {
          "reference": "urn:uuid:db6e0ef0-f959-4f80-9659-ee3d9549cc30"
        }
      } ]
    }
  }, {
    "fullUrl": "urn:uuid:a3ccb35e-dc71-4107-8799-6675ca1f1b8d",
    "resource": {
      "resourceType": "Condition",
      "id": "a3ccb35e-dc71-4107-8799-6675ca1f1b8d",
      "clinicalStatus": "active",
      "verificationStatus": "unknown",
      "subject": {
        "reference": "urn:uuid:0113f5ec-a0b7-4741-be11-dd7d0ece0050"
      },
      "context": {
        "reference": "urn:uuid:db6e0ef0-f959-4f80-9659-ee3d9549cc30"
      },
      "evidence": [ {
        "detail": [ {
          "reference": "urn:uuid:5fe1bb35-6f46-4238-a0cd-62730a3e8c87"
        } ]
      }, {
        "detail": [ {
          "reference": "urn:uuid:1f9ca3ba-d1ec-44a3-9e3a-74148982bda5"
        } ]
      }, {
        "detail": [ {
          "reference": "urn:uuid:6c184437-13cd-48a7-8ebc-b5985981631e"
        } ]
      }, {
        "detail": [ {
          "reference": "urn:uuid:f4875343-7ade-46a8-8bb2-c24f1eb10062"
        } ]
      }, {
        "detail": [ {
          "reference": "urn:uuid:ce629233-6054-4397-8cb1-d15599384548"
        } ]
      }, {
        "detail": [ {
          "reference": "urn:uuid:23eb7b80-951c-4f91-a1f3-91f12f2b6ead"
        } ]
      }, {
        "detail": [ {
          "reference": "urn:uuid:c82fcfe0-bdaa-4609-87d9-95bb0aa110ab"
        } ]
      }, {
        "detail": [ {
          "reference": "urn:uuid:dd4a1aaf-b32d-45d4-95a6-e020f448eb2a"
        } ]
      }, {
        "detail": [ {
          "reference": "urn:uuid:e7f5540d-50f3-42d9-9dbc-c96148efec60"
        } ]
      }, {
        "detail": [ {
          "reference": "urn:uuid:0897a660-3ddd-4af7-bc2a-112f21e88c61"
        } ]
      }, {
        "detail": [ {
          "reference": "urn:uuid:04bd0c09-34aa-4bb4-af6d-657893fde5c8"
        } ]
      }, {
        "detail": [ {
          "reference": "urn:uuid:25208fe4-d3be-4e4a-9192-8843e89f661b"
        } ]
      }, {
        "detail": [ {
          "reference": "urn:uuid:86533537-d7a5-4de8-a904-8edfb9db9e01"
        } ]
      }, {
        "detail": [ {
          "reference": "urn:uuid:17810f3e-984d-4120-8a6a-d7ff4d6a5db3"
        } ]
      }, {
        "detail": [ {
          "reference": "urn:uuid:1918b0ba-53e6-4e85-a5a4-f4def3c47c43"
        } ]
      } ]
    }
  }, {
    "fullUrl": "urn:uuid:5fe1bb35-6f46-4238-a0cd-62730a3e8c87",
    "resource": {
      "resourceType": "QuestionnaireResponse",
      "id": "5fe1bb35-6f46-4238-a0cd-62730a3e8c87",
      "identifier": {
        "value": "60319"
      },
      "questionnaire": {
        "reference": "urn:uuid:4f659087-e582-4d06-9443-99a5695f0e07"
      },
      "status": "completed",
      "subject": {
        "reference": "urn:uuid:0113f5ec-a0b7-4741-be11-dd7d0ece0050"
      },
      "context": {
        "reference": "urn:uuid:db6e0ef0-f959-4f80-9659-ee3d9549cc30"
      },
      "authored": "2021-04-06T15:19:34+00:00",
      "item": [ {
        "linkId": "Tx220109",
        "text": "What is the reason for the contact?",
        "answer": [ {
          "valueString": "more"
        } ]
      } ]
    }
  }, {
    "fullUrl": "urn:uuid:4f659087-e582-4d06-9443-99a5695f0e07",
    "resource": {
      "resourceType": "Questionnaire",
      "id": "4f659087-e582-4d06-9443-99a5695f0e07",
      "identifier": [ {
        "value": "60319"
      } ],
      "version": "2021-04-06T15:19:34.083Z",
      "status": "active",
      "experimental": false,
      "date": "2021-04-06T15:19:34+00:00",
      "publisher": "User ID: 'HADFIELDR' User name: 'Ryan Hadfield' User skill set: 'T3'",
      "lastReviewDate": "2021-04-06",
      "contact": [ {
        "telecom": [ {
          "system": "phone",
          "value": "0111 111 1111"
        } ]
      } ],
      "subjectType": [ "Patient" ],
      "item": [ {
        "linkId": "60319",
        "prefix": "5",
        "text": "What is the reason for the contact?",
        "type": "choice",
        "required": true,
        "repeats": false,
        "option": [ {
          "valueString": "an injury or other health problem, Selected: false"
        }, {
          "valueString": "a need to access another healthcare service, Selected: false"
        }, {
          "valueString": "a healthcare professional requesting contact with another clinician, Selected: false"
        }, {
          "valueString": "a report of results or tests, Selected: false"
        }, {
          "valueString": "more, Selected: true"
        } ]
      } ]
    }
  }, {
    "fullUrl": "urn:uuid:1f9ca3ba-d1ec-44a3-9e3a-74148982bda5",
    "resource": {
      "resourceType": "QuestionnaireResponse",
      "id": "1f9ca3ba-d1ec-44a3-9e3a-74148982bda5",
      "identifier": {
        "value": "60319"
      },
      "questionnaire": {
        "reference": "urn:uuid:3dd52910-05af-4987-8250-294eb29472d5"
      },
      "status": "completed",
      "subject": {
        "reference": "urn:uuid:0113f5ec-a0b7-4741-be11-dd7d0ece0050"
      },
      "context": {
        "reference": "urn:uuid:db6e0ef0-f959-4f80-9659-ee3d9549cc30"
      },
      "authored": "2021-04-06T15:19:34+00:00",
      "item": [ {
        "linkId": "Tx221793",
        "text": "STRING:to'Social&information'-further'Callreason'menu",
        "answer": [ {
          "valueString": "\"present\""
        } ]
      } ]
    }
  }, {
    "fullUrl": "urn:uuid:3dd52910-05af-4987-8250-294eb29472d5",
    "resource": {
      "resourceType": "Questionnaire",
      "id": "3dd52910-05af-4987-8250-294eb29472d5",
      "identifier": [ {
        "value": "60319"
      } ],
      "version": "2021-04-06T15:19:34.083Z",
      "status": "active",
      "experimental": false,
      "date": "2021-04-06T15:19:34+00:00",
      "publisher": "User ID: 'HADFIELDR' User name: 'Ryan Hadfield' User skill set: 'T3'",
      "lastReviewDate": "2021-04-06",
      "contact": [ {
        "telecom": [ {
          "system": "phone",
          "value": "0111 111 1111"
        } ]
      } ],
      "subjectType": [ "Patient" ],
      "item": [ {
        "linkId": "60319",
        "prefix": "600",
        "text": "STRING:to'Social&information'-further'Callreason'menu",
        "type": "choice",
        "required": true,
        "repeats": false,
        "option": [ {
          "valueString": "\"present\", Selected: true"
        } ]
      } ]
    }
  }, {
    "fullUrl": "urn:uuid:6c184437-13cd-48a7-8ebc-b5985981631e",
    "resource": {
      "resourceType": "QuestionnaireResponse",
      "id": "6c184437-13cd-48a7-8ebc-b5985981631e",
      "identifier": {
        "value": "60319"
      },
      "questionnaire": {
        "reference": "urn:uuid:96f33021-bdb8-4a4a-bd1a-4b20da7114d7"
      },
      "status": "completed",
      "subject": {
        "reference": "urn:uuid:0113f5ec-a0b7-4741-be11-dd7d0ece0050"
      },
      "context": {
        "reference": "urn:uuid:db6e0ef0-f959-4f80-9659-ee3d9549cc30"
      },
      "authored": "2021-04-06T15:19:34+00:00"
    }
  }, {
    "fullUrl": "urn:uuid:96f33021-bdb8-4a4a-bd1a-4b20da7114d7",
    "resource": {
      "resourceType": "Questionnaire",
      "id": "96f33021-bdb8-4a4a-bd1a-4b20da7114d7",
      "identifier": [ {
        "value": "60319"
      } ],
      "version": "2021-04-06T15:19:34.083Z",
      "status": "active",
      "experimental": false,
      "date": "2021-04-06T15:19:34+00:00",
      "publisher": "User ID: 'HADFIELDR' User name: 'Ryan Hadfield' User skill set: 'T3'",
      "lastReviewDate": "2021-04-06",
      "contact": [ {
        "telecom": [ {
          "system": "phone",
          "value": "0111 111 1111"
        } ]
      } ],
      "subjectType": [ "Patient" ]
    }
  }, {
    "fullUrl": "urn:uuid:f4875343-7ade-46a8-8bb2-c24f1eb10062",
    "resource": {
      "resourceType": "QuestionnaireResponse",
      "id": "f4875343-7ade-46a8-8bb2-c24f1eb10062",
      "identifier": {
        "value": "60319"
      },
      "questionnaire": {
        "reference": "urn:uuid:1b03c315-6eb5-48f0-a919-409761bfb09d"
      },
      "status": "completed",
      "subject": {
        "reference": "urn:uuid:0113f5ec-a0b7-4741-be11-dd7d0ece0050"
      },
      "context": {
        "reference": "urn:uuid:db6e0ef0-f959-4f80-9659-ee3d9549cc30"
      },
      "authored": "2021-04-06T15:19:34+00:00",
      "item": [ {
        "linkId": "Tx221804",
        "text": "STRING:transfertofurthermenuquestionestablishedinEntryFlow",
        "answer": [ {
          "valueString": "\"present\""
        } ]
      } ]
    }
  }, {
    "fullUrl": "urn:uuid:1b03c315-6eb5-48f0-a919-409761bfb09d",
    "resource": {
      "resourceType": "Questionnaire",
      "id": "1b03c315-6eb5-48f0-a919-409761bfb09d",
      "identifier": [ {
        "value": "60319"
      } ],
      "version": "2021-04-06T15:19:34.083Z",
      "status": "active",
      "experimental": false,
      "date": "2021-04-06T15:19:34+00:00",
      "publisher": "User ID: 'HADFIELDR' User name: 'Ryan Hadfield' User skill set: 'T3'",
      "lastReviewDate": "2021-04-06",
      "contact": [ {
        "telecom": [ {
          "system": "phone",
          "value": "0111 111 1111"
        } ]
      } ],
      "subjectType": [ "Patient" ],
      "item": [ {
        "linkId": "60319",
        "prefix": "41",
        "text": "STRING:transfertofurthermenuquestionestablishedinEntryFlow",
        "type": "choice",
        "required": true,
        "repeats": false,
        "option": [ {
          "valueString": "\"present\", Selected: true"
        } ]
      } ]
    }
  }, {
    "fullUrl": "urn:uuid:ce629233-6054-4397-8cb1-d15599384548",
    "resource": {
      "resourceType": "QuestionnaireResponse",
      "id": "ce629233-6054-4397-8cb1-d15599384548",
      "identifier": {
        "value": "60319"
      },
      "questionnaire": {
        "reference": "urn:uuid:2c9ff5de-302e-4ab2-be53-3c44fb3c39d9"
      },
      "status": "completed",
      "subject": {
        "reference": "urn:uuid:0113f5ec-a0b7-4741-be11-dd7d0ece0050"
      },
      "context": {
        "reference": "urn:uuid:db6e0ef0-f959-4f80-9659-ee3d9549cc30"
      },
      "authored": "2021-04-06T15:19:34+00:00",
      "item": [ {
        "linkId": "Tx224998",
        "text": "SYSTEM_COVIDLEVEL2",
        "answer": [ {
          "valueString": "==\"covidlevel2\""
        } ]
      } ]
    }
  }, {
    "fullUrl": "urn:uuid:2c9ff5de-302e-4ab2-be53-3c44fb3c39d9",
    "resource": {
      "resourceType": "Questionnaire",
      "id": "2c9ff5de-302e-4ab2-be53-3c44fb3c39d9",
      "identifier": [ {
        "value": "60319"
      } ],
      "version": "2021-04-06T15:19:34.083Z",
      "status": "active",
      "experimental": false,
      "date": "2021-04-06T15:19:34+00:00",
      "publisher": "User ID: 'HADFIELDR' User name: 'Ryan Hadfield' User skill set: 'T3'",
      "lastReviewDate": "2021-04-06",
      "contact": [ {
        "telecom": [ {
          "system": "phone",
          "value": "0111 111 1111"
        } ]
      } ],
      "subjectType": [ "Patient" ],
      "item": [ {
        "linkId": "60319",
        "prefix": "5900",
        "text": "SYSTEM_COVIDLEVEL2",
        "type": "choice",
        "required": true,
        "repeats": false,
        "option": [ {
          "valueString": "==\"covidlevel2\", Selected: true"
        }, {
          "valueString": "*, Selected: false"
        } ]
      } ]
    }
  }, {
    "fullUrl": "urn:uuid:23eb7b80-951c-4f91-a1f3-91f12f2b6ead",
    "resource": {
      "resourceType": "QuestionnaireResponse",
      "id": "23eb7b80-951c-4f91-a1f3-91f12f2b6ead",
      "identifier": {
        "value": "60319"
      },
      "questionnaire": {
        "reference": "urn:uuid:a1d8f8de-68bc-43e8-908c-eff59f239edf"
      },
      "status": "completed",
      "subject": {
        "reference": "urn:uuid:0113f5ec-a0b7-4741-be11-dd7d0ece0050"
      },
      "context": {
        "reference": "urn:uuid:db6e0ef0-f959-4f80-9659-ee3d9549cc30"
      },
      "authored": "2021-04-06T15:19:34+00:00",
      "item": [ {
        "linkId": "Tx225069",
        "text": "What is the reason for the contact?",
        "answer": [ {
          "valueString": "a prescription request"
        } ]
      } ]
    }
  }, {
    "fullUrl": "urn:uuid:a1d8f8de-68bc-43e8-908c-eff59f239edf",
    "resource": {
      "resourceType": "Questionnaire",
      "id": "a1d8f8de-68bc-43e8-908c-eff59f239edf",
      "identifier": [ {
        "value": "60319"
      } ],
      "version": "2021-04-06T15:19:34.083Z",
      "status": "active",
      "experimental": false,
      "date": "2021-04-06T15:19:34+00:00",
      "publisher": "User ID: 'HADFIELDR' User name: 'Ryan Hadfield' User skill set: 'T3'",
      "lastReviewDate": "2021-04-06",
      "contact": [ {
        "telecom": [ {
          "system": "phone",
          "value": "0111 111 1111"
        } ]
      } ],
      "subjectType": [ "Patient" ],
      "item": [ {
        "linkId": "60319",
        "prefix": "6000",
        "text": "What is the reason for the contact?",
        "type": "choice",
        "required": true,
        "repeats": false,
        "option": [ {
          "valueString": "a child protection/vulnerable adult concern (specify), Selected: false"
        }, {
          "valueString": "a social or domestic emergency, Selected: false"
        }, {
          "valueString": "a prescription request, Selected: true"
        }, {
          "valueString": "an appointment request, Selected: false"
        }, {
          "valueString": "a request for health or medication information, Selected: false"
        }, {
          "valueString": "public health alert information, Selected: false"
        } ]
      } ]
    }
  }, {
    "fullUrl": "urn:uuid:c82fcfe0-bdaa-4609-87d9-95bb0aa110ab",
    "resource": {
      "resourceType": "QuestionnaireResponse",
      "id": "c82fcfe0-bdaa-4609-87d9-95bb0aa110ab",
      "identifier": {
        "value": "60319"
      },
      "questionnaire": {
        "reference": "urn:uuid:6fc635af-61c7-42a9-8bb9-9b5c38285e37"
      },
      "status": "completed",
      "subject": {
        "reference": "urn:uuid:0113f5ec-a0b7-4741-be11-dd7d0ece0050"
      },
      "context": {
        "reference": "urn:uuid:db6e0ef0-f959-4f80-9659-ee3d9549cc30"
      },
      "authored": "2021-04-06T15:19:34+00:00",
      "item": [ {
        "linkId": "Tx220957",
        "text": "Is this contact about a new or worsening illness?",
        "answer": [ {
          "valueString": "no"
        } ]
      } ]
    }
  }, {
    "fullUrl": "urn:uuid:6fc635af-61c7-42a9-8bb9-9b5c38285e37",
    "resource": {
      "resourceType": "Questionnaire",
      "id": "6fc635af-61c7-42a9-8bb9-9b5c38285e37",
      "identifier": [ {
        "value": "60319"
      } ],
      "version": "2021-04-06T15:19:34.083Z",
      "status": "active",
      "experimental": false,
      "date": "2021-04-06T15:19:34+00:00",
      "publisher": "User ID: 'HADFIELDR' User name: 'Ryan Hadfield' User skill set: 'T3'",
      "lastReviewDate": "2021-04-06",
      "contact": [ {
        "telecom": [ {
          "system": "phone",
          "value": "0111 111 1111"
        } ]
      } ],
      "subjectType": [ "Patient" ],
      "item": [ {
        "linkId": "60319",
        "prefix": "1400",
        "text": "Is this contact about a new or worsening illness?",
        "type": "choice",
        "required": true,
        "repeats": false,
        "option": [ {
          "valueString": "yes, Selected: false"
        }, {
          "valueString": "not sure, Selected: false"
        }, {
          "valueString": "no, Selected: true"
        } ]
      } ]
    }
  }, {
    "fullUrl": "urn:uuid:dd4a1aaf-b32d-45d4-95a6-e020f448eb2a",
    "resource": {
      "resourceType": "QuestionnaireResponse",
      "id": "dd4a1aaf-b32d-45d4-95a6-e020f448eb2a",
      "identifier": {
        "value": "60319"
      },
      "questionnaire": {
        "reference": "urn:uuid:f6dfe3ce-1d52-42ea-b5c7-bb082e390bcf"
      },
      "status": "completed",
      "subject": {
        "reference": "urn:uuid:0113f5ec-a0b7-4741-be11-dd7d0ece0050"
      },
      "context": {
        "reference": "urn:uuid:db6e0ef0-f959-4f80-9659-ee3d9549cc30"
      },
      "authored": "2021-04-06T15:19:34+00:00",
      "item": [ {
        "linkId": "Tx221352",
        "text": "Have you got enough medication to last until the surgery opens?",
        "answer": [ {
          "valueString": "no"
        } ]
      } ]
    }
  }, {
    "fullUrl": "urn:uuid:f6dfe3ce-1d52-42ea-b5c7-bb082e390bcf",
    "resource": {
      "resourceType": "Questionnaire",
      "id": "f6dfe3ce-1d52-42ea-b5c7-bb082e390bcf",
      "identifier": [ {
        "value": "60319"
      } ],
      "version": "2021-04-06T15:19:34.083Z",
      "status": "active",
      "experimental": false,
      "date": "2021-04-06T15:19:34+00:00",
      "publisher": "User ID: 'HADFIELDR' User name: 'Ryan Hadfield' User skill set: 'T3'",
      "lastReviewDate": "2021-04-06",
      "contact": [ {
        "telecom": [ {
          "system": "phone",
          "value": "0111 111 1111"
        } ]
      } ],
      "subjectType": [ "Patient" ],
      "item": [ {
        "linkId": "60319",
        "prefix": "1500",
        "text": "Have you got enough medication to last until the surgery opens?",
        "type": "choice",
        "required": true,
        "repeats": false,
        "option": [ {
          "valueString": "yes, Selected: false"
        }, {
          "valueString": "not sure, Selected: false"
        }, {
          "valueString": "no, Selected: true"
        } ]
      } ]
    }
  }, {
    "fullUrl": "urn:uuid:e7f5540d-50f3-42d9-9dbc-c96148efec60",
    "resource": {
      "resourceType": "QuestionnaireResponse",
      "id": "e7f5540d-50f3-42d9-9dbc-c96148efec60",
      "identifier": {
        "value": "60319"
      },
      "questionnaire": {
        "reference": "urn:uuid:7e382d16-6c36-4141-8e9a-a1917db79a1d"
      },
      "status": "completed",
      "subject": {
        "reference": "urn:uuid:0113f5ec-a0b7-4741-be11-dd7d0ece0050"
      },
      "context": {
        "reference": "urn:uuid:db6e0ef0-f959-4f80-9659-ee3d9549cc30"
      },
      "authored": "2021-04-06T15:19:34+00:00"
    }
  }, {
    "fullUrl": "urn:uuid:7e382d16-6c36-4141-8e9a-a1917db79a1d",
    "resource": {
      "resourceType": "Questionnaire",
      "id": "7e382d16-6c36-4141-8e9a-a1917db79a1d",
      "identifier": [ {
        "value": "60319"
      } ],
      "version": "2021-04-06T15:19:34.083Z",
      "status": "active",
      "experimental": false,
      "date": "2021-04-06T15:19:34+00:00",
      "publisher": "User ID: 'HADFIELDR' User name: 'Ryan Hadfield' User skill set: 'T3'",
      "lastReviewDate": "2021-04-06",
      "contact": [ {
        "telecom": [ {
          "system": "phone",
          "value": "0111 111 1111"
        } ]
      } ],
      "subjectType": [ "Patient" ]
    }
  }, {
    "fullUrl": "urn:uuid:0897a660-3ddd-4af7-bc2a-112f21e88c61",
    "resource": {
      "resourceType": "QuestionnaireResponse",
      "id": "0897a660-3ddd-4af7-bc2a-112f21e88c61",
      "identifier": {
        "value": "60319"
      },
      "questionnaire": {
        "reference": "urn:uuid:b55766f4-de82-4fe9-ae64-0c4cd86e4f86"
      },
      "status": "completed",
      "subject": {
        "reference": "urn:uuid:0113f5ec-a0b7-4741-be11-dd7d0ece0050"
      },
      "context": {
        "reference": "urn:uuid:db6e0ef0-f959-4f80-9659-ee3d9549cc30"
      },
      "authored": "2021-04-06T15:19:34+00:00",
      "item": [ {
        "linkId": "Tx224231",
        "text": "FROM WHAT YOU HAVE HEARD IS A CONSULTATION WITH A PRESCRIBER NEEDED?",
        "answer": [ {
          "valueString": "no"
        } ]
      } ]
    }
  }, {
    "fullUrl": "urn:uuid:b55766f4-de82-4fe9-ae64-0c4cd86e4f86",
    "resource": {
      "resourceType": "Questionnaire",
      "id": "b55766f4-de82-4fe9-ae64-0c4cd86e4f86",
      "identifier": [ {
        "value": "60319"
      } ],
      "version": "2021-04-06T15:19:34.083Z",
      "status": "active",
      "experimental": false,
      "date": "2021-04-06T15:19:34+00:00",
      "publisher": "User ID: 'HADFIELDR' User name: 'Ryan Hadfield' User skill set: 'T3'",
      "lastReviewDate": "2021-04-06",
      "contact": [ {
        "telecom": [ {
          "system": "phone",
          "value": "0111 111 1111"
        } ]
      } ],
      "subjectType": [ "Patient" ],
      "item": [ {
        "linkId": "60319",
        "prefix": "0",
        "text": "FROM WHAT YOU HAVE HEARD IS A CONSULTATION WITH A PRESCRIBER NEEDED?",
        "type": "choice",
        "required": true,
        "repeats": false,
        "option": [ {
          "valueString": "yes, Selected: false"
        }, {
          "valueString": "not sure, Selected: false"
        }, {
          "valueString": "no, Selected: true"
        } ]
      } ]
    }
  }, {
    "fullUrl": "urn:uuid:04bd0c09-34aa-4bb4-af6d-657893fde5c8",
    "resource": {
      "resourceType": "QuestionnaireResponse",
      "id": "04bd0c09-34aa-4bb4-af6d-657893fde5c8",
      "identifier": {
        "value": "60319"
      },
      "questionnaire": {
        "reference": "urn:uuid:fab6e08b-da9c-46a2-9f60-6fa479f2b213"
      },
      "status": "completed",
      "subject": {
        "reference": "urn:uuid:0113f5ec-a0b7-4741-be11-dd7d0ece0050"
      },
      "context": {
        "reference": "urn:uuid:db6e0ef0-f959-4f80-9659-ee3d9549cc30"
      },
      "authored": "2021-04-06T15:19:34+00:00",
      "item": [ {
        "linkId": "Tx222687",
        "text": "Have you got any of the medication available at the moment?",
        "answer": [ {
          "valueString": "no"
        } ]
      } ]
    }
  }, {
    "fullUrl": "urn:uuid:fab6e08b-da9c-46a2-9f60-6fa479f2b213",
    "resource": {
      "resourceType": "Questionnaire",
      "id": "fab6e08b-da9c-46a2-9f60-6fa479f2b213",
      "identifier": [ {
        "value": "60319"
      } ],
      "version": "2021-04-06T15:19:34.083Z",
      "status": "active",
      "experimental": false,
      "date": "2021-04-06T15:19:34+00:00",
      "publisher": "User ID: 'HADFIELDR' User name: 'Ryan Hadfield' User skill set: 'T3'",
      "lastReviewDate": "2021-04-06",
      "contact": [ {
        "telecom": [ {
          "system": "phone",
          "value": "0111 111 1111"
        } ]
      } ],
      "subjectType": [ "Patient" ],
      "item": [ {
        "linkId": "60319",
        "prefix": "200",
        "text": "Have you got any of the medication available at the moment?",
        "type": "choice",
        "required": true,
        "repeats": false,
        "option": [ {
          "valueString": "yes, Selected: false"
        }, {
          "valueString": "not sure, Selected: false"
        }, {
          "valueString": "no, Selected: true"
        } ]
      } ]
    }
  }, {
    "fullUrl": "urn:uuid:25208fe4-d3be-4e4a-9192-8843e89f661b",
    "resource": {
      "resourceType": "QuestionnaireResponse",
      "id": "25208fe4-d3be-4e4a-9192-8843e89f661b",
      "identifier": {
        "value": "60319"
      },
      "questionnaire": {
        "reference": "urn:uuid:65286776-51c5-43b7-984e-79770096450b"
      },
      "status": "completed",
      "subject": {
        "reference": "urn:uuid:0113f5ec-a0b7-4741-be11-dd7d0ece0050"
      },
      "context": {
        "reference": "urn:uuid:db6e0ef0-f959-4f80-9659-ee3d9549cc30"
      },
      "authored": "2021-04-06T15:19:34+00:00",
      "item": [ {
        "linkId": "Tx221367",
        "text": "When is the next dose due?",
        "answer": [ {
          "valueString": "over 12 hours time"
        } ]
      } ]
    }
  }, {
    "fullUrl": "urn:uuid:65286776-51c5-43b7-984e-79770096450b",
    "resource": {
      "resourceType": "Questionnaire",
      "id": "65286776-51c5-43b7-984e-79770096450b",
      "identifier": [ {
        "value": "60319"
      } ],
      "version": "2021-04-06T15:19:34.083Z",
      "status": "active",
      "experimental": false,
      "date": "2021-04-06T15:19:34+00:00",
      "publisher": "User ID: 'HADFIELDR' User name: 'Ryan Hadfield' User skill set: 'T3'",
      "lastReviewDate": "2021-04-06",
      "contact": [ {
        "telecom": [ {
          "system": "phone",
          "value": "0111 111 1111"
        } ]
      } ],
      "subjectType": [ "Patient" ],
      "item": [ {
        "linkId": "60319",
        "prefix": "100",
        "text": "When is the next dose due?",
        "type": "choice",
        "required": true,
        "repeats": false,
        "option": [ {
          "valueString": "within the next 2 hours, Selected: false"
        }, {
          "valueString": "within the next 6 hours, Selected: false"
        }, {
          "valueString": "within the next 12 hours, Selected: false"
        }, {
          "valueString": "over 12 hours time, Selected: true"
        }, {
          "valueString": "not sure, Selected: false"
        } ]
      } ]
    }
  }, {
    "fullUrl": "urn:uuid:86533537-d7a5-4de8-a904-8edfb9db9e01",
    "resource": {
      "resourceType": "QuestionnaireResponse",
      "id": "86533537-d7a5-4de8-a904-8edfb9db9e01",
      "identifier": {
        "value": "60319"
      },
      "questionnaire": {
        "reference": "urn:uuid:5e724be7-8ebe-4cf5-975a-e46603993adf"
      },
      "status": "completed",
      "subject": {
        "reference": "urn:uuid:0113f5ec-a0b7-4741-be11-dd7d0ece0050"
      },
      "context": {
        "reference": "urn:uuid:db6e0ef0-f959-4f80-9659-ee3d9549cc30"
      },
      "authored": "2021-04-06T15:19:34+00:00",
      "item": [ {
        "linkId": "Tx223441",
        "text": "STRING:SDPCRepeatPrescription",
        "answer": [ {
          "valueString": "\"PC repeat prescription\""
        } ]
      } ]
    }
  }, {
    "fullUrl": "urn:uuid:5e724be7-8ebe-4cf5-975a-e46603993adf",
    "resource": {
      "resourceType": "Questionnaire",
      "id": "5e724be7-8ebe-4cf5-975a-e46603993adf",
      "identifier": [ {
        "value": "60319"
      } ],
      "version": "2021-04-06T15:19:34.083Z",
      "status": "active",
      "experimental": false,
      "date": "2021-04-06T15:19:34+00:00",
      "publisher": "User ID: 'HADFIELDR' User name: 'Ryan Hadfield' User skill set: 'T3'",
      "lastReviewDate": "2021-04-06",
      "contact": [ {
        "telecom": [ {
          "system": "phone",
          "value": "0111 111 1111"
        } ]
      } ],
      "subjectType": [ "Patient" ],
      "item": [ {
        "linkId": "60319",
        "prefix": "1100",
        "text": "STRING:SDPCRepeatPrescription",
        "type": "choice",
        "required": true,
        "repeats": false,
        "option": [ {
          "valueString": "\"PC repeat prescription\", Selected: true"
        } ]
      } ]
    }
  }, {
    "fullUrl": "urn:uuid:17810f3e-984d-4120-8a6a-d7ff4d6a5db3",
    "resource": {
      "resourceType": "QuestionnaireResponse",
      "id": "17810f3e-984d-4120-8a6a-d7ff4d6a5db3",
      "identifier": {
        "value": "60319"
      },
      "questionnaire": {
        "reference": "urn:uuid:32713753-6278-4946-8dda-255818dc86fd"
      },
      "status": "completed",
      "subject": {
        "reference": "urn:uuid:0113f5ec-a0b7-4741-be11-dd7d0ece0050"
      },
      "context": {
        "reference": "urn:uuid:db6e0ef0-f959-4f80-9659-ee3d9549cc30"
      },
      "authored": "2021-04-06T15:19:34+00:00"
    }
  }, {
    "fullUrl": "urn:uuid:32713753-6278-4946-8dda-255818dc86fd",
    "resource": {
      "resourceType": "Questionnaire",
      "id": "32713753-6278-4946-8dda-255818dc86fd",
      "identifier": [ {
        "value": "60319"
      } ],
      "version": "2021-04-06T15:19:34.083Z",
      "status": "active",
      "experimental": false,
      "date": "2021-04-06T15:19:34+00:00",
      "publisher": "User ID: 'HADFIELDR' User name: 'Ryan Hadfield' User skill set: 'T3'",
      "lastReviewDate": "2021-04-06",
      "contact": [ {
        "telecom": [ {
          "system": "phone",
          "value": "0111 111 1111"
        } ]
      } ],
      "subjectType": [ "Patient" ]
    }
  }, {
    "fullUrl": "urn:uuid:1918b0ba-53e6-4e85-a5a4-f4def3c47c43",
    "resource": {
      "resourceType": "QuestionnaireResponse",
      "id": "1918b0ba-53e6-4e85-a5a4-f4def3c47c43",
      "identifier": {
        "value": "60319"
      },
      "questionnaire": {
        "reference": "urn:uuid:79941e2a-818e-43c8-b5fd-e4f49c590a72"
      },
      "status": "completed",
      "subject": {
        "reference": "urn:uuid:0113f5ec-a0b7-4741-be11-dd7d0ece0050"
      },
      "context": {
        "reference": "urn:uuid:db6e0ef0-f959-4f80-9659-ee3d9549cc30"
      },
      "authored": "2021-04-06T15:19:34+00:00"
    }
  }, {
    "fullUrl": "urn:uuid:79941e2a-818e-43c8-b5fd-e4f49c590a72",
    "resource": {
      "resourceType": "Questionnaire",
      "id": "79941e2a-818e-43c8-b5fd-e4f49c590a72",
      "identifier": [ {
        "value": "60319"
      } ],
      "version": "2021-04-06T15:19:34.083Z",
      "status": "active",
      "experimental": false,
      "date": "2021-04-06T15:19:34+00:00",
      "publisher": "User ID: 'HADFIELDR' User name: 'Ryan Hadfield' User skill set: 'T3'",
      "lastReviewDate": "2021-04-06",
      "contact": [ {
        "telecom": [ {
          "system": "phone",
          "value": "0111 111 1111"
        } ]
      } ],
      "subjectType": [ "Patient" ]
    }
  }, {
    "fullUrl": "urn:uuid:6f2ecf67-1738-4125-811a-ac4d788f0b02",
    "resource": {
      "resourceType": "PractitionerRole",
      "id": "6f2ecf67-1738-4125-811a-ac4d788f0b02",
      "practitioner": {
        "reference": "urn:uuid:1e8a8525-dbc9-47ec-a227-f9e2390f2fd4"
      },
      "organization": {
        "reference": "urn:uuid:59093591-5db4-41d0-a649-8d6cb2de35ec"
      },
      "code": [ {
        "coding": [ {
          "system": "2.16.840.1.113883.2.1.3.2.4.17.339",
          "code": "DOCTOR",
          "display": "Doctor"
        } ]
      } ]
    }
  }, {
    "fullUrl": "urn:uuid:59093591-5db4-41d0-a649-8d6cb2de35ec",
    "resource": {
      "resourceType": "Organization",
      "id": "59093591-5db4-41d0-a649-8d6cb2de35ec",
      "identifier": [ {
        "value": "RYE"
      } ],
      "name": "RepresentedOrg Name"
    }
  }, {
    "fullUrl": "urn:uuid:a6c4b37a-2d4a-4bca-853a-7fa2ad547dd1",
    "resource": {
      "resourceType": "PractitionerRole",
      "id": "a6c4b37a-2d4a-4bca-853a-7fa2ad547dd1",
      "practitioner": {
        "reference": "urn:uuid:f077adee-b7ba-4665-b6b9-1438d0b7ce01"
      },
      "organization": {
        "reference": "urn:uuid:30f4f420-963d-4388-bdbc-a1540ea1314c"
      },
      "code": [ {
        "coding": [ {
          "system": "2.16.840.1.113883.2.1.3.2.4.17.196",
          "code": "R0010",
          "display": "Medical Director"
        } ]
      } ]
    }
  }, {
    "fullUrl": "urn:uuid:30f4f420-963d-4388-bdbc-a1540ea1314c",
    "resource": {
      "resourceType": "Organization",
      "id": "30f4f420-963d-4388-bdbc-a1540ea1314c",
      "identifier": [ {
        "value": "RYE"
      } ],
      "name": "RepresentedOrgNameRYE"
    }
  }, {
    "fullUrl": "urn:uuid:c04367d9-a76d-46fc-9f2e-9e0b57d59e72",
    "resource": {
      "resourceType": "RelatedPerson",
      "id": "c04367d9-a76d-46fc-9f2e-9e0b57d59e72",
      "patient": {
        "reference": "urn:uuid:0113f5ec-a0b7-4741-be11-dd7d0ece0050"
      },
      "relationship": {
        "coding": [ {
          "system": "http://hl7.org/fhir/v2/0131",
          "code": "C",
          "display": "Emergency Contact"
        } ]
      },
      "telecom": [ {
        "system": "phone",
        "value": "tel:000000000000"
      } ]
    }
  }, {
    "fullUrl": "urn:uuid:7cb2dd84-c30b-4d9b-a00d-0ab3ae1f7406",
    "resource": {
      "resourceType": "Device",
      "id": "7cb2dd84-c30b-4d9b-a00d-0ab3ae1f7406",
      "model": "111 Adaptor",
      "version": "1.0.1"
    }
  }, {
    "fullUrl": "urn:uuid:ae7f1745-5d7a-4de9-b4aa-8d259851ec89",
    "resource": {
      "resourceType": "List",
      "id": "ae7f1745-5d7a-4de9-b4aa-8d259851ec89",
      "status": "current",
      "mode": "working",
      "title": "111 Report List",
      "code": {
        "coding": [ {
          "system": "http://snomed.info/sct",
          "code": "225390008",
          "display": "Triage"
        } ]
      },
      "subject": {
        "reference": "urn:uuid:0113f5ec-a0b7-4741-be11-dd7d0ece0050"
      },
      "encounter": {
        "reference": "urn:uuid:db6e0ef0-f959-4f80-9659-ee3d9549cc30"
      },
      "date": "2021-04-06T15:19:34+00:00",
      "source": {
        "reference": "urn:uuid:7cb2dd84-c30b-4d9b-a00d-0ab3ae1f7406"
      },
      "orderedBy": {
        "coding": [ {
          "system": "http://hl7.org/fhir/list-order",
          "code": "event-date",
          "display": "Sorted by Event Date"
        } ]
      },
      "entry": [ {
        "item": {
          "reference": "urn:uuid:30f4f420-963d-4388-bdbc-a1540ea1314c"
        }
      }, {
        "item": {
          "reference": "urn:uuid:1e8a8525-dbc9-47ec-a227-f9e2390f2fd4"
        }
      }, {
        "item": {
          "reference": "urn:uuid:f9fe77e4-25e8-4072-b77b-dff1cae7071a"
        }
      }, {
        "item": {
          "reference": "urn:uuid:59093591-5db4-41d0-a649-8d6cb2de35ec"
        }
      }, {
        "item": {
          "reference": "urn:uuid:a3ccb35e-dc71-4107-8799-6675ca1f1b8d"
        }
      }, {
        "item": {
          "reference": "urn:uuid:f2da47c7-72d8-45dd-a543-0b5eecc65c6a"
        }
      }, {
        "item": {
          "reference": "urn:uuid:9bd51d4b-f257-419a-bccb-3e7acf3f903e"
        }
      }, {
        "item": {
          "reference": "urn:uuid:f077adee-b7ba-4665-b6b9-1438d0b7ce01"
        }
      }, {
        "item": {
          "reference": "urn:uuid:c04367d9-a76d-46fc-9f2e-9e0b57d59e72"
        }
      }, {
        "item": {
          "reference": "urn:uuid:1b03c315-6eb5-48f0-a919-409761bfb09d"
        }
      }, {
        "item": {
          "reference": "urn:uuid:96f33021-bdb8-4a4a-bd1a-4b20da7114d7"
        }
      }, {
        "item": {
          "reference": "urn:uuid:32713753-6278-4946-8dda-255818dc86fd"
        }
      }, {
        "item": {
          "reference": "urn:uuid:a1d8f8de-68bc-43e8-908c-eff59f239edf"
        }
      }, {
        "item": {
          "reference": "urn:uuid:ce629233-6054-4397-8cb1-d15599384548"
        }
      }, {
        "item": {
          "reference": "urn:uuid:04bd0c09-34aa-4bb4-af6d-657893fde5c8"
        }
      }, {
        "item": {
          "reference": "urn:uuid:7e382d16-6c36-4141-8e9a-a1917db79a1d"
        }
      }, {
        "item": {
          "reference": "urn:uuid:f4875343-7ade-46a8-8bb2-c24f1eb10062"
        }
      }, {
        "item": {
          "reference": "urn:uuid:0897a660-3ddd-4af7-bc2a-112f21e88c61"
        }
      }, {
        "item": {
          "reference": "urn:uuid:86533537-d7a5-4de8-a904-8edfb9db9e01"
        }
      }, {
        "item": {
          "reference": "urn:uuid:4f659087-e582-4d06-9443-99a5695f0e07"
        }
      }, {
        "item": {
          "reference": "urn:uuid:1918b0ba-53e6-4e85-a5a4-f4def3c47c43"
        }
      }, {
        "item": {
          "reference": "urn:uuid:3dd52910-05af-4987-8250-294eb29472d5"
        }
      }, {
        "item": {
          "reference": "urn:uuid:c82fcfe0-bdaa-4609-87d9-95bb0aa110ab"
        }
      }, {
        "item": {
          "reference": "urn:uuid:6c184437-13cd-48a7-8ebc-b5985981631e"
        }
      }, {
        "item": {
          "reference": "urn:uuid:1f9ca3ba-d1ec-44a3-9e3a-74148982bda5"
        }
      }, {
        "item": {
          "reference": "urn:uuid:79941e2a-818e-43c8-b5fd-e4f49c590a72"
        }
      }, {
        "item": {
          "reference": "urn:uuid:e7f5540d-50f3-42d9-9dbc-c96148efec60"
        }
      }, {
        "item": {
          "reference": "urn:uuid:25208fe4-d3be-4e4a-9192-8843e89f661b"
        }
      }, {
        "item": {
          "reference": "urn:uuid:5fe1bb35-6f46-4238-a0cd-62730a3e8c87"
        }
      }, {
        "item": {
          "reference": "urn:uuid:f6dfe3ce-1d52-42ea-b5c7-bb082e390bcf"
        }
      }, {
        "item": {
          "reference": "urn:uuid:6fc635af-61c7-42a9-8bb9-9b5c38285e37"
        }
      }, {
        "item": {
          "reference": "urn:uuid:17810f3e-984d-4120-8a6a-d7ff4d6a5db3"
        }
      }, {
        "item": {
          "reference": "urn:uuid:fab6e08b-da9c-46a2-9f60-6fa479f2b213"
        }
      }, {
        "item": {
          "reference": "urn:uuid:5e724be7-8ebe-4cf5-975a-e46603993adf"
        }
      }, {
        "item": {
          "reference": "urn:uuid:b55766f4-de82-4fe9-ae64-0c4cd86e4f86"
        }
      }, {
        "item": {
          "reference": "urn:uuid:65286776-51c5-43b7-984e-79770096450b"
        }
      }, {
        "item": {
          "reference": "urn:uuid:2c9ff5de-302e-4ab2-be53-3c44fb3c39d9"
        }
      }, {
        "item": {
          "reference": "urn:uuid:dd4a1aaf-b32d-45d4-95a6-e020f448eb2a"
        }
      }, {
        "item": {
          "reference": "urn:uuid:23eb7b80-951c-4f91-a1f3-91f12f2b6ead"
        }
      }, {
        "item": {
          "reference": "urn:uuid:6d5eadd7-267b-4678-81fc-4f8efb7b623c"
        }
      } ]
    }
  } ]
}