{
  "resourceType": "Bundle",
  "identifier": {
    "type": {
      "text": "ClinicalDocument VersionNumber"
    },
    "value": "1"
  },
  "type": "message",
  "entry": [ {
    "fullUrl": "urn:uuid:F7916D36-4D5F-4A64-BD08-644E8A234AE2",
    "resource": {
      "resourceType": "MessageHeader",
      "id": "F7916D36-4D5F-4A64-BD08-644E8A234AE2",
      "event": {
        "system": "https://fhir.nhs.uk/STU3/CodeSystem/EventType-1",
        "code": "referral-1",
        "display": "Referral"
      },
      "destination": [ {
        "endpoint": "urn:nhs-uk:addressing:ods:NVE06:DOSServiceID:1335970392"
      } ],
      "timestamp": "2021-05-13T17:24:56.000+00:00",
      "source": {
        "name": "NHS 111 Adaptor",
        "endpoint": "http://localhost:8080/report"
      },
      "reason": {
        "coding": [ {
          "system": "urn:nhs-itk:ns:201005:interaction",
          "code": "urn:nhs-itk:interaction:primaryOutofHourRecipientNHS111CDADocument-v2-0"
        } ]
      }
    },
    "response": {
      "status": "success",
      "lastModified": "2022-05-05T12:27:59.027+00:00"
    }
  }, {
    "fullUrl": "urn:uuid:7cd96ef0-d2ab-49cd-bfac-051fa0214638",
    "resource": {
      "resourceType": "Encounter",
      "id": "7cd96ef0-d2ab-49cd-bfac-051fa0214638",
      "identifier": [ {
        "system": "2.16.840.1.113883.2.1.3.2.4.18.34",
        "value": "2DBAE50F-F88C-4572-9866-F94FE0F1F25A"
      }, {
        "system": "2.16.840.1.113883.2.1.3.2.4.18.35",
        "value": "2100310450"
      } ],
      "status": "finished",
      "type": [ {
        "text": "111 Encounter Referral"
      } ],
      "subject": {
        "reference": "urn:uuid:7577b11e-fe19-4149-837f-d72aa8ad02ea"
      },
      "participant": [ {
        "type": [ {
          "coding": [ {
            "system": "http://hl7.org/fhir/ValueSet/encounter-participant-type",
            "code": "PPRF",
            "display": "Author"
          } ]
        } ],
        "individual": {
          "reference": "urn:uuid:ef1fd4c4-498c-4b00-826b-21421c055464"
        }
      }, {
        "type": [ {
          "text": "Informant"
        } ],
        "individual": {
          "reference": "urn:uuid:445598c8-3573-4c95-84f8-812bdf91fd70"
        }
      } ],
      "period": {
        "start": "2021-05-13T16:47:24+00:00",
        "end": "2021-05-13T17:24:56+00:00"
      },
      "location": [ {
        "location": {
          "reference": "urn:uuid:0efab0cd-70e0-4bfd-9cd0-3be9249e7fbc"
        },
        "status": "active"
      }, {
        "location": {
          "reference": "urn:uuid:dd16627c-d785-41f0-be49-b7003936c875"
        },
        "status": "completed"
      } ],
      "serviceProvider": {
        "reference": "urn:uuid:a802a34c-0e47-4353-bd6e-8fa3a66478be"
      }
    }
  }, {
    "fullUrl": "urn:uuid:a802a34c-0e47-4353-bd6e-8fa3a66478be",
    "resource": {
      "resourceType": "Organization",
      "id": "a802a34c-0e47-4353-bd6e-8fa3a66478be",
      "active": true,
      "type": [ {
        "text": "CST"
      } ],
      "name": "Norfolk and Wisbech 111"
    }
  }, {
    "fullUrl": "urn:uuid:ef1fd4c4-498c-4b00-826b-21421c055464",
    "resource": {
      "resourceType": "Practitioner",
      "id": "ef1fd4c4-498c-4b00-826b-21421c055464",
      "active": true,
      "name": [ {
        "text": "Ben Smythson"
      } ]
    }
  }, {
    "fullUrl": "urn:uuid:445598c8-3573-4c95-84f8-812bdf91fd70",
    "resource": {
      "resourceType": "RelatedPerson",
      "id": "445598c8-3573-4c95-84f8-812bdf91fd70",
      "active": true,
      "patient": {
        "reference": "urn:uuid:7577b11e-fe19-4149-837f-d72aa8ad02ea"
      },
      "relationship": {
        "coding": [ {
          "system": "2.16.840.1.113883.2.1.3.2.4.16.45",
          "code": "21",
          "display": "Self"
        }, {
          "system": "http://hl7.org/fhir/v2/0131",
          "code": "C",
          "display": "Emergency Contact"
        } ]
      },
      "name": [ {
        "text": "Test Call Dx10 TEST CALL DX10"
      } ],
      "telecom": [ {
        "system": "phone",
        "value": "tel:01233123123"
      } ],
      "gender": "unknown"
    }
  }, {
    "fullUrl": "urn:uuid:0efab0cd-70e0-4bfd-9cd0-3be9249e7fbc",
    "resource": {
      "resourceType": "Location",
      "id": "0efab0cd-70e0-4bfd-9cd0-3be9249e7fbc",
      "managingOrganization": {
        "reference": "urn:uuid:fa0cbb25-f1b9-4e32-a953-74278e109b28"
      }
    }
  }, {
    "fullUrl": "urn:uuid:fa0cbb25-f1b9-4e32-a953-74278e109b28",
    "resource": {
      "resourceType": "Organization",
      "id": "fa0cbb25-f1b9-4e32-a953-74278e109b28",
      "identifier": [ {
        "value": "Z10000"
      } ],
      "type": [ {
        "text": "GP Practice"
      } ],
      "name": "UNKNOWN"
    }
  }, {
    "fullUrl": "urn:uuid:dd16627c-d785-41f0-be49-b7003936c875",
    "resource": {
      "resourceType": "Location",
      "id": "dd16627c-d785-41f0-be49-b7003936c875",
      "address": {
        "type": "physical",
        "line": [ "313 VICTORIA ROAD", "LOWESTOFT" ],
        "postalCode": "NR33 9LS"
      }
    }
  }, {
    "fullUrl": "urn:uuid:7577b11e-fe19-4149-837f-d72aa8ad02ea",
    "resource": {
      "resourceType": "Patient",
      "id": "7577b11e-fe19-4149-837f-d72aa8ad02ea",
      "language": "en",
      "active": true,
      "name": [ {
        "use": "official",
        "family": "TEST CALL DX10",
        "given": [ "Test Call Dx10" ]
      } ],
      "telecom": [ {
        "system": "phone",
        "value": "tel:01233123123"
      } ],
      "gender": "male",
      "birthDate": "1996-03-25",
      "address": [ {
        "use": "home",
        "line": [ "313 VICTORIA ROAD", "LOWESTOFT" ],
        "postalCode": "NR33 9LS"
      }, {
        "type": "physical",
        "line": [ "313 VICTORIA ROAD", "LOWESTOFT" ],
        "postalCode": "NR33 9LS"
      } ],
      "generalPractitioner": [ {
        "reference": "urn:uuid:396037d5-1dce-4ba9-b369-a83ccfb260c1"
      } ]
    }
  }, {
    "fullUrl": "urn:uuid:396037d5-1dce-4ba9-b369-a83ccfb260c1",
    "resource": {
      "resourceType": "Organization",
      "id": "396037d5-1dce-4ba9-b369-a83ccfb260c1",
      "identifier": [ {
        "value": "Z10000"
      } ],
      "type": [ {
        "text": "GP Practice"
      } ],
      "name": "UNKNOWN"
    }
  }, {
    "fullUrl": "urn:uuid:5cc7e576-182e-4a03-8269-0e08dfa00c29",
    "resource": {
      "resourceType": "HealthcareService",
      "id": "5cc7e576-182e-4a03-8269-0e08dfa00c29",
      "active": true,
      "providedBy": {
        "reference": "urn:uuid:eba8333d-589b-4917-b1f6-f43fe3ac29ac"
      },
      "location": [ {
        "reference": "urn:uuid:0bf61e24-448a-437c-85c5-34a948f782ae"
      } ],
      "name": "Out of Hours GP Service (Waveney) - Kirkley Mill Health Centre, Lowestoft"
    }
  }, {
    "fullUrl": "urn:uuid:0bf61e24-448a-437c-85c5-34a948f782ae",
    "resource": {
      "resourceType": "Location",
      "id": "0bf61e24-448a-437c-85c5-34a948f782ae",
      "managingOrganization": {
        "reference": "urn:uuid:eba8333d-589b-4917-b1f6-f43fe3ac29ac"
      }
    }
  }, {
    "fullUrl": "urn:uuid:eba8333d-589b-4917-b1f6-f43fe3ac29ac",
    "resource": {
      "resourceType": "Organization",
      "id": "eba8333d-589b-4917-b1f6-f43fe3ac29ac",
      "identifier": [ {
        "value": "NVE06"
      } ],
      "type": [ {
        "coding": [ {
          "code": "PRCP",
          "display": "Out of Hours GP Service (Waveney) - Kirkley Mill Health Centre, Lowestoft"
        } ]
      } ],
      "name": "Out of Hours GP Service (Waveney) - Kirkley Mill Health Centre, Lowestoft"
    }
  }, {
    "fullUrl": "urn:uuid:72e7b8d0-28f8-457a-8509-5a42e844e418",
    "resource": {
      "resourceType": "ReferralRequest",
      "id": "72e7b8d0-28f8-457a-8509-5a42e844e418",
      "status": "active",
      "intent": "plan",
      "priority": "routine",
      "subject": {
        "reference": "urn:uuid:7577b11e-fe19-4149-837f-d72aa8ad02ea"
      },
      "context": {
        "reference": "urn:uuid:7cd96ef0-d2ab-49cd-bfac-051fa0214638"
      },
      "occurrencePeriod": {
        "start": "2021-05-13T17:24:56+00:00"
      },
      "authoredOn": "2021-05-13T17:24:56+00:00",
      "requester": {
        "agent": {
          "reference": "urn:uuid:3fb3394f-1927-4a90-9ecd-3cc1c7e73149"
        },
        "onBehalfOf": {
          "reference": "urn:uuid:a802a34c-0e47-4353-bd6e-8fa3a66478be"
        }
      },
      "recipient": [ {
        "reference": "urn:uuid:17647822-2b78-4a1b-9748-0dd9aaef1c08"
      }, {
        "reference": "urn:uuid:5cc7e576-182e-4a03-8269-0e08dfa00c29"
      } ],
      "reasonReference": [ {
        "reference": "urn:uuid:12b93532-34a4-4217-b440-77ef6f17b1b1"
      } ],
      "supportingInfo": [ {
        "reference": "urn:uuid:d51803b3-e790-46e6-b188-7c14ac668c5b"
      } ]
    }
  }, {
    "fullUrl": "urn:uuid:d51803b3-e790-46e6-b188-7c14ac668c5b",
    "resource": {
      "resourceType": "ProcedureRequest",
      "id": "d51803b3-e790-46e6-b188-7c14ac668c5b",
      "status": "active",
      "intent": "plan",
      "priority": "routine",
      "doNotPerform": false,
      "code": {
        "coding": [ {
          "system": "2.16.840.1.113883.2.1.3.2.4.17.325",
          "code": "Dx10",
          "display": "MUST contact a local service for a Non-Urgent Appointment"
        } ]
      },
      "subject": {
        "reference": "urn:uuid:7577b11e-fe19-4149-837f-d72aa8ad02ea"
      },
      "occurrencePeriod": {
        "start": "2021-05-13T17:24:56+00:00"
      },
      "reasonReference": [ {
        "reference": "urn:uuid:12b93532-34a4-4217-b440-77ef6f17b1b1"
      } ]
    }
  }, {
    "fullUrl": "urn:uuid:17647822-2b78-4a1b-9748-0dd9aaef1c08",
    "resource": {
      "resourceType": "Practitioner",
      "id": "17647822-2b78-4a1b-9748-0dd9aaef1c08",
      "active": true,
      "telecom": [ {
        "system": "phone",
        "value": "tel:01233505450"
      } ],
      "address": [ {
        "type": "physical",
        "line": [ "Kingston House", "The Long Barrow", "Orbital Park", "Ashford", "Kent" ],
        "postalCode": "TN24 0GP"
      } ]
    }
  }, {
    "fullUrl": "urn:uuid:aeba87a5-7061-426d-ab93-5d4affb349f2",
    "resource": {
      "resourceType": "Composition",
      "id": "aeba87a5-7061-426d-ab93-5d4affb349f2",
      "identifier": {
        "use": "usual",
        "value": "895062D0-60A8-4EB4-9017-5F489D53694D"
      },
      "status": "final",
      "type": {
        "coding": [ {
          "system": "http://snomed.info/sct",
          "code": "371531000",
          "display": "Report of clinical encounter (record artifact)"
        } ]
      },
      "subject": {
        "reference": "urn:uuid:7577b11e-fe19-4149-837f-d72aa8ad02ea"
      },
      "encounter": {
        "reference": "urn:uuid:7cd96ef0-d2ab-49cd-bfac-051fa0214638"
      },
      "date": "2021-05-13T17:24:56+00:00",
      "author": [ {
        "reference": "urn:uuid:ef1fd4c4-498c-4b00-826b-21421c055464"
      } ],
      "title": "111 Report",
      "confidentiality": "R",
      "section": [ {
        "section": [ {
          "title": "Patient's Reported Condition",
          "text": {
            "status": "generated",
            "div": "<div xmlns=\"http://www.w3.org/1999/xhtml\">&lt;content&gt;&amp;lt;CLEO Ref: 2100310450&amp;gt; Test Call &lt;br/&gt;\n                                                    &lt;/content&gt;</div>"
          }
        }, {
          "title": "Pathways Disposition",
          "text": {
            "status": "generated",
            "div": "<div xmlns=\"http://www.w3.org/1999/xhtml\">&lt;content&gt;If a pharmacy service is not available contact the GP practice during normal working hours. (Dx10)&lt;/content&gt;\n                                                    &lt;br/&gt;\n                                                    &lt;br/&gt;\n                                                    &lt;content&gt;Selected Service: 1335970392, Out of Hours GP Service (Waveney) - Kirkley Mill Health Centre, Lowestoft, 111&lt;/content&gt;\n                                                    &lt;br/&gt;</div>"
          }
        }, {
          "title": "Consultation Summary",
          "text": {
            "status": "generated",
            "div": "<div xmlns=\"http://www.w3.org/1999/xhtml\">&lt;content&gt;\n                                                        &lt;content&gt;Worst acne feature, blackheads or whiteheads&lt;/content&gt;\n                                                        &lt;br/&gt;\n                                                        &lt;content&gt;Acne&lt;/content&gt;\n                                                        &lt;br/&gt;\n                                                        &lt;content&gt;Warm to touch&lt;/content&gt;\n                                                        &lt;br/&gt;\n                                                        &lt;content&gt;Illness - test&lt;/content&gt;\n                                                        &lt;br/&gt;\n                                                    &lt;/content&gt;</div>"
          }
        }, {
          "title": "Pathways Assessment",
          "text": {
            "status": "generated",
            "div": "<div xmlns=\"http://www.w3.org/1999/xhtml\">&lt;content&gt;An injury or health problem was the reason for the contact.&lt;/content&gt;\n                                                    &lt;br/&gt;\n                                                    &lt;content&gt;Heavy bleeding had not occurred in the previous 2 hours.&lt;/content&gt;\n                                                    &lt;br/&gt;\n                                                    &lt;content&gt;An illness or health problem was the main problem. - test&lt;/content&gt;\n                                                    &lt;br/&gt;\n                                                    &lt;content&gt;The individual was not fighting for breath.&lt;/content&gt;\n                                                    &lt;br/&gt;\n                                                    &lt;content&gt;The main reason for the assessment was not an allergic reaction, heart attack, chest/upper back pain, probable stroke, recent fit/seizure or suicide attempt.&lt;/content&gt;\n                                                    &lt;br/&gt;\n                                                    &lt;content&gt;The main reason for contact was not new confusion, declared diabetic hypo/hyperglycaemia, or ICD shock.&lt;/content&gt;\n                                                    &lt;br/&gt;\n                                                    &lt;content&gt;The skin on the torso felt normal, warm or hot.&lt;/content&gt;\n                                                    &lt;br/&gt;\n                                                    &lt;content&gt;The main problem was not a rash, itch, jaundice, skin lumps or abnormal bruising.&lt;/content&gt;\n                                                    &lt;br/&gt;\n                                                    &lt;content&gt;The main problem was acne, spots or pimples.&lt;/content&gt;\n                                                    &lt;br/&gt;\n                                                    &lt;content&gt;The worst problem with the acne was blackheads or white heads.&lt;/content&gt;\n                                                    &lt;br/&gt;\n                                                    &lt;content&gt;The problem had not persisted for 3 months or got worse over that time.&lt;/content&gt;\n                                                    &lt;br/&gt;</div>"
          }
        }, {
          "title": "Advice Given",
          "text": {
            "status": "generated",
            "div": "<div xmlns=\"http://www.w3.org/1999/xhtml\">&lt;content&gt;Speak to a pharmacist for advice on suitable treatment.&lt;/content&gt;\n                                                    &lt;br/&gt;\n                                                    &lt;content&gt;If there are any new symptoms, or if the condition gets worse, changes or you have any other concerns, call us back.&lt;/content&gt;\n                                                    &lt;br/&gt;</div>"
          }
        }, {
          "title": "SCR Consent",
          "text": {
            "status": "generated",
            "div": "<div xmlns=\"http://www.w3.org/1999/xhtml\">&lt;content&gt;Consent given for SCR sharing&lt;br/&gt;\n                                                        &lt;br/&gt;\n                                                    &lt;/content&gt;</div>"
          }
        } ]
      }, {
        "title": "ReferralRequest",
        "entry": [ {
          "reference": "urn:uuid:72e7b8d0-28f8-457a-8509-5a42e844e418"
        } ]
      } ]
    }
  }, {
    "fullUrl": "urn:uuid:a8f2a60a-4d9c-48b7-b8bf-6dc98c6ef808",
    "resource": {
      "resourceType": "Consent",
      "id": "a8f2a60a-4d9c-48b7-b8bf-6dc98c6ef808",
      "identifier": {
        "use": "usual",
        "value": "895062D0-60A8-4EB4-9017-5F489D53694D"
      },
      "status": "active",
      "patient": {
        "reference": "urn:uuid:7577b11e-fe19-4149-837f-d72aa8ad02ea"
      },
      "period": {
        "start": "2021-05-13T16:47:24+00:00",
        "end": "2021-05-13T17:24:56+00:00"
      },
      "consentingParty": [ {
        "reference": "urn:uuid:7577b11e-fe19-4149-837f-d72aa8ad02ea"
      } ],
      "action": [ {
        "coding": [ {
          "system": "http://snomed.info/sct",
          "code": "425691002",
          "display": "Consent given for electronic record sharing"
        } ],
        "text": "Consent given for electronic record sharing"
      } ],
      "organization": [ {
        "reference": "urn:uuid:a802a34c-0e47-4353-bd6e-8fa3a66478be"
      } ],
      "policyRule": "http://hl7.org/fhir/ConsentPolicy/opt-out",
      "data": [ {
        "meaning": "related",
        "reference": {
          "reference": "urn:uuid:7cd96ef0-d2ab-49cd-bfac-051fa0214638"
        }
      } ]
    }
  }, {
    "fullUrl": "urn:uuid:12b93532-34a4-4217-b440-77ef6f17b1b1",
    "resource": {
      "resourceType": "Condition",
      "id": "12b93532-34a4-4217-b440-77ef6f17b1b1",
      "clinicalStatus": "active",
      "verificationStatus": "unknown",
      "subject": {
        "reference": "urn:uuid:7577b11e-fe19-4149-837f-d72aa8ad02ea"
      },
      "context": {
        "reference": "urn:uuid:7cd96ef0-d2ab-49cd-bfac-051fa0214638"
      }
    }
  }, {
    "fullUrl": "urn:uuid:9531f26a-ba84-4cd5-877d-c048891515a3",
    "resource": {
      "resourceType": "Observation",
      "id": "9531f26a-ba84-4cd5-877d-c048891515a3",
      "status": "final",
      "code": {
        "coding": [ {
          "system": "http://snomed.info/sct",
          "code": "33962009",
          "display": "Presenting complaint"
        } ]
      },
      "subject": {
        "reference": "urn:uuid:7577b11e-fe19-4149-837f-d72aa8ad02ea"
      },
      "context": {
        "reference": "urn:uuid:7cd96ef0-d2ab-49cd-bfac-051fa0214638"
      },
      "valueString": "<CLEO Ref: 2100310450> Test Call "
    }
  }, {
    "fullUrl": "urn:uuid:cc390949-3dde-40c6-b6d0-ebb36990ce66",
    "resource": {
      "resourceType": "PractitionerRole",
      "id": "cc390949-3dde-40c6-b6d0-ebb36990ce66",
      "practitioner": {
        "reference": "urn:uuid:ef1fd4c4-498c-4b00-826b-21421c055464"
      },
      "organization": {
        "reference": "urn:uuid:8ecd3d9c-d5d4-4c28-8c5e-15e73d106c66"
      },
      "code": [ {
        "coding": [ {
          "system": "2.16.840.1.113883.2.1.3.2.4.17.196",
          "code": "NR1690",
          "display": "Call Operator"
        } ]
      } ]
    }
  }, {
    "fullUrl": "urn:uuid:8ecd3d9c-d5d4-4c28-8c5e-15e73d106c66",
    "resource": {
      "resourceType": "Organization",
      "id": "8ecd3d9c-d5d4-4c28-8c5e-15e73d106c66",
      "identifier": [ {
        "value": "NTN08"
      } ],
      "name": "Norfolk and Wisbech 111"
    }
  }, {
    "fullUrl": "urn:uuid:8c53024a-8dc5-47ba-9a62-2d0cc7bdb38c",
    "resource": {
      "resourceType": "RelatedPerson",
      "id": "8c53024a-8dc5-47ba-9a62-2d0cc7bdb38c",
      "patient": {
        "reference": "urn:uuid:7577b11e-fe19-4149-837f-d72aa8ad02ea"
      },
      "relationship": {
        "coding": [ {
          "system": "http://hl7.org/fhir/v2/0131",
          "code": "C",
          "display": "Emergency Contact"
        } ]
      },
      "telecom": [ {
        "system": "phone",
        "value": "tel:01233123123"
      } ]
    }
  }, {
    "fullUrl": "urn:uuid:3fb3394f-1927-4a90-9ecd-3cc1c7e73149",
    "resource": {
      "resourceType": "Device",
      "id": "3fb3394f-1927-4a90-9ecd-3cc1c7e73149",
      "model": "111 Adaptor",
      "version": "1.0.1"
    }
  }, {
    "fullUrl": "urn:uuid:20bd2f55-90d2-4375-b546-cb5d1c87c851",
    "resource": {
      "resourceType": "List",
      "id": "20bd2f55-90d2-4375-b546-cb5d1c87c851",
      "status": "current",
      "mode": "working",
      "title": "111 Report List",
      "code": {
        "coding": [ {
          "system": "http://snomed.info/sct",
          "code": "225390008",
          "display": "Triage"
        } ]
      },
      "subject": {
        "reference": "urn:uuid:7577b11e-fe19-4149-837f-d72aa8ad02ea"
      },
      "encounter": {
        "reference": "urn:uuid:7cd96ef0-d2ab-49cd-bfac-051fa0214638"
      },
      "date": "2021-05-13T17:24:56+00:00",
      "source": {
        "reference": "urn:uuid:3fb3394f-1927-4a90-9ecd-3cc1c7e73149"
      },
      "orderedBy": {
        "coding": [ {
          "system": "http://hl7.org/fhir/list-order",
          "code": "event-date",
          "display": "Sorted by Event Date"
        } ]
      },
      "entry": [ {
        "item": {
          "reference": "urn:uuid:eba8333d-589b-4917-b1f6-f43fe3ac29ac"
        }
      }, {
        "item": {
          "reference": "urn:uuid:396037d5-1dce-4ba9-b369-a83ccfb260c1"
        }
      }, {
        "item": {
          "reference": "urn:uuid:12b93532-34a4-4217-b440-77ef6f17b1b1"
        }
      }, {
        "item": {
          "reference": "urn:uuid:445598c8-3573-4c95-84f8-812bdf91fd70"
        }
      }, {
        "item": {
          "reference": "urn:uuid:fa0cbb25-f1b9-4e32-a953-74278e109b28"
        }
      }, {
        "item": {
          "reference": "urn:uuid:8c53024a-8dc5-47ba-9a62-2d0cc7bdb38c"
        }
      }, {
        "item": {
          "reference": "urn:uuid:ef1fd4c4-498c-4b00-826b-21421c055464"
        }
      }, {
        "item": {
          "reference": "urn:uuid:9531f26a-ba84-4cd5-877d-c048891515a3"
        }
      }, {
        "item": {
          "reference": "urn:uuid:a802a34c-0e47-4353-bd6e-8fa3a66478be"
        }
      }, {
        "item": {
          "reference": "urn:uuid:8ecd3d9c-d5d4-4c28-8c5e-15e73d106c66"
        }
      }, {
        "item": {
          "reference": "urn:uuid:17647822-2b78-4a1b-9748-0dd9aaef1c08"
        }
      }, {
        "item": {
          "reference": "urn:uuid:72e7b8d0-28f8-457a-8509-5a42e844e418"
        }
      } ]
    }
  } ]
}