{
  "resourceType": "Bundle",
  "identifier": {
    "type": {
      "text": "ClinicalDocument VersionNumber"
    },
    "value": "1"
  },
  "type": "message",
  "entry": [ {
    "fullUrl": "urn:uuid:F7916D36-4D5F-4A64-BD08-644E8A234AE2",
    "resource": {
      "resourceType": "MessageHeader",
      "id": "F7916D36-4D5F-4A64-BD08-644E8A234AE2",
      "event": {
        "system": "https://fhir.nhs.uk/STU3/CodeSystem/EventType-1",
        "code": "referral-1",
        "display": "Referral"
      },
      "destination": [ {
        "endpoint": "urn:nhs-uk:addressing:ods:NVE06:DOSServiceID:1335970392"
      } ],
      "timestamp": "2021-05-13T17:24:56.000+00:00",
      "source": {
        "name": "NHS 111 Adaptor",
        "endpoint": "http://localhost:8080/report"
      },
      "reason": {
        "coding": [ {
          "system": "urn:nhs-itk:ns:201005:interaction",
          "code": "urn:nhs-itk:interaction:primaryOutofHourRecipientNHS111CDADocument-v2-0"
        } ]
      }
    }
  }, {
    "fullUrl": "urn:uuid:369cbb89-e9a1-488c-bf1e-caba6ff650fc",
    "resource": {
      "resourceType": "Encounter",
      "id": "369cbb89-e9a1-488c-bf1e-caba6ff650fc",
      "identifier": [ {
        "system": "2.16.840.1.113883.2.1.3.2.4.18.34",
        "value": "2DBAE50F-F88C-4572-9866-F94FE0F1F25A"
      }, {
        "system": "2.16.840.1.113883.2.1.3.2.4.18.35",
        "value": "2100310450"
      } ],
      "status": "finished",
      "type": [ {
        "text": "111 Encounter Referral"
      } ],
      "subject": {
        "reference": "urn:uuid:11a42499-adef-4b61-8666-b06bbffcc5d8"
      },
      "participant": [ {
        "type": [ {
          "coding": [ {
            "system": "http://hl7.org/fhir/ValueSet/encounter-participant-type",
            "code": "PPRF",
            "display": "Author"
          } ]
        } ],
        "individual": {
          "reference": "urn:uuid:eceb1b82-4e11-436e-bd5e-e209f0e7ddec"
        }
      }, {
        "type": [ {
          "text": "Informant"
        } ],
        "individual": {
          "reference": "urn:uuid:ce3d415b-6713-407b-9d93-87f8b3dead26"
        }
      } ],
      "period": {
        "start": "2021-05-13T17:24:56+00:00"
      },
      "location": [ {
        "location": {
          "reference": "urn:uuid:e7a558b7-b0b9-4fdc-8c5c-3307f0f7ad23"
        },
        "status": "active"
      }, {
        "location": {
          "reference": "urn:uuid:a3eb82d7-c971-4470-ad18-84af3e453d2a"
        },
        "status": "completed"
      } ],
      "serviceProvider": {
        "reference": "urn:uuid:73ed5a1c-a12e-4603-b41e-8ab64ac5b9b8"
      }
    }
  }, {
    "fullUrl": "urn:uuid:73ed5a1c-a12e-4603-b41e-8ab64ac5b9b8",
    "resource": {
      "resourceType": "Organization",
      "id": "73ed5a1c-a12e-4603-b41e-8ab64ac5b9b8",
      "active": true,
      "type": [ {
        "text": "CST"
      } ],
      "name": "Norfolk and Wisbech 111"
    }
  }, {
    "fullUrl": "urn:uuid:eceb1b82-4e11-436e-bd5e-e209f0e7ddec",
    "resource": {
      "resourceType": "Practitioner",
      "id": "eceb1b82-4e11-436e-bd5e-e209f0e7ddec",
      "active": true,
      "name": [ {
        "text": "Ben Smythson"
      } ]
    }
  }, {
    "fullUrl": "urn:uuid:ce3d415b-6713-407b-9d93-87f8b3dead26",
    "resource": {
      "resourceType": "RelatedPerson",
      "id": "ce3d415b-6713-407b-9d93-87f8b3dead26",
      "active": true,
      "patient": {
        "reference": "urn:uuid:11a42499-adef-4b61-8666-b06bbffcc5d8"
      },
      "relationship": {
        "coding": [ {
          "system": "2.16.840.1.113883.2.1.3.2.4.16.45",
          "code": "21",
          "display": "Self"
        }, {
          "system": "http://hl7.org/fhir/v2/0131",
          "code": "C",
          "display": "Emergency Contact"
        } ]
      },
      "name": [ {
        "text": "Test Call Dx10 TEST CALL DX10"
      } ],
      "telecom": [ {
        "system": "phone",
        "value": "tel:01233123123"
      } ],
      "gender": "unknown"
    }
  }, {
    "fullUrl": "urn:uuid:e7a558b7-b0b9-4fdc-8c5c-3307f0f7ad23",
    "resource": {
      "resourceType": "Location",
      "id": "e7a558b7-b0b9-4fdc-8c5c-3307f0f7ad23",
      "managingOrganization": {
        "reference": "urn:uuid:51358ac9-24a2-4c5c-8620-e21c60cc2ef2"
      }
    }
  }, {
    "fullUrl": "urn:uuid:51358ac9-24a2-4c5c-8620-e21c60cc2ef2",
    "resource": {
      "resourceType": "Organization",
      "id": "51358ac9-24a2-4c5c-8620-e21c60cc2ef2",
      "identifier": [ {
        "value": "Z10000"
      } ],
      "type": [ {
        "text": "GP Practice"
      } ],
      "name": "UNKNOWN"
    }
  }, {
    "fullUrl": "urn:uuid:a3eb82d7-c971-4470-ad18-84af3e453d2a",
    "resource": {
      "resourceType": "Location",
      "id": "a3eb82d7-c971-4470-ad18-84af3e453d2a",
      "address": {
        "type": "physical",
        "line": [ "313 VICTORIA ROAD", "LOWESTOFT" ],
        "postalCode": "NR33 9LS"
      }
    }
  }, {
    "fullUrl": "urn:uuid:11a42499-adef-4b61-8666-b06bbffcc5d8",
    "resource": {
      "resourceType": "Patient",
      "id": "11a42499-adef-4b61-8666-b06bbffcc5d8",
      "language": "en",
      "active": true,
      "name": [ {
        "use": "official",
        "family": "TEST CALL DX10",
        "given": [ "Test Call Dx10" ]
      } ],
      "telecom": [ {
        "system": "phone",
        "value": "tel:01233123123"
      } ],
      "gender": "male",
      "birthDate": "1996-03-25",
      "address": [ {
        "use": "home",
        "line": [ "313 VICTORIA ROAD", "LOWESTOFT" ],
        "postalCode": "NR33 9LS"
      }, {
        "type": "physical",
        "line": [ "313 VICTORIA ROAD", "LOWESTOFT" ],
        "postalCode": "NR33 9LS"
      } ],
      "generalPractitioner": [ {
        "reference": "urn:uuid:edc8d983-96df-47ca-9ce0-e8b15e07666e"
      } ]
    }
  }, {
    "fullUrl": "urn:uuid:edc8d983-96df-47ca-9ce0-e8b15e07666e",
    "resource": {
      "resourceType": "Organization",
      "id": "edc8d983-96df-47ca-9ce0-e8b15e07666e",
      "identifier": [ {
        "value": "Z10000"
      } ],
      "type": [ {
        "text": "GP Practice"
      } ],
      "name": "UNKNOWN"
    }
  }, {
    "fullUrl": "urn:uuid:88c065e5-2487-43ad-b6f1-703272ee724d",
    "resource": {
      "resourceType": "HealthcareService",
      "id": "88c065e5-2487-43ad-b6f1-703272ee724d",
      "active": true,
      "providedBy": {
        "reference": "urn:uuid:cd3dc1a2-7e95-49d7-84bb-59a5e4895e18"
      },
      "location": [ {
        "reference": "urn:uuid:cab54878-76bf-4c2b-9a39-665e1950f071"
      } ],
      "name": "Out of Hours GP Service (Waveney) - Kirkley Mill Health Centre, Lowestoft"
    }
  }, {
    "fullUrl": "urn:uuid:cab54878-76bf-4c2b-9a39-665e1950f071",
    "resource": {
      "resourceType": "Location",
      "id": "cab54878-76bf-4c2b-9a39-665e1950f071",
      "managingOrganization": {
        "reference": "urn:uuid:cd3dc1a2-7e95-49d7-84bb-59a5e4895e18"
      }
    }
  }, {
    "fullUrl": "urn:uuid:cd3dc1a2-7e95-49d7-84bb-59a5e4895e18",
    "resource": {
      "resourceType": "Organization",
      "id": "cd3dc1a2-7e95-49d7-84bb-59a5e4895e18",
      "identifier": [ {
        "value": "NVE06"
      } ],
      "type": [ {
        "coding": [ {
          "code": "PRCP",
          "display": "Out of Hours GP Service (Waveney) - Kirkley Mill Health Centre, Lowestoft"
        } ]
      } ],
      "name": "Out of Hours GP Service (Waveney) - Kirkley Mill Health Centre, Lowestoft"
    }
  }, {
    "fullUrl": "urn:uuid:77bc71ad-37d9-4c94-b58d-52be3c28e9d8",
    "resource": {
      "resourceType": "ReferralRequest",
      "id": "77bc71ad-37d9-4c94-b58d-52be3c28e9d8",
      "status": "active",
      "intent": "plan",
      "priority": "routine",
      "subject": {
        "reference": "urn:uuid:11a42499-adef-4b61-8666-b06bbffcc5d8"
      },
      "context": {
        "reference": "urn:uuid:369cbb89-e9a1-488c-bf1e-caba6ff650fc"
      },
      "occurrencePeriod": {
        "start": "2022-04-07T07:52:14+00:00",
        "end": "2022-04-07T08:52:14+00:00"
      },
      "authoredOn": "2021-05-13T17:24:56+00:00",
      "requester": {
        "agent": {
          "reference": "urn:uuid:f8543daa-e4fa-4231-bd55-ed42c006b02d"
        },
        "onBehalfOf": {
          "reference": "urn:uuid:73ed5a1c-a12e-4603-b41e-8ab64ac5b9b8"
        }
      },
      "recipient": [ {
        "reference": "urn:uuid:39c56a6f-aa01-49a3-9b7b-3ce8f72c972b"
      }, {
        "reference": "urn:uuid:88c065e5-2487-43ad-b6f1-703272ee724d"
      } ],
      "reasonReference": [ {
        "reference": "urn:uuid:bc92077c-6060-44fc-b7b4-db7b11451e6c"
      } ],
      "supportingInfo": [ {
        "reference": "urn:uuid:968d6b6f-b60e-4fbc-83b1-b090e8433a69"
      } ]
    }
  }, {
    "fullUrl": "urn:uuid:968d6b6f-b60e-4fbc-83b1-b090e8433a69",
    "resource": {
      "resourceType": "ProcedureRequest",
      "id": "968d6b6f-b60e-4fbc-83b1-b090e8433a69",
      "status": "active",
      "intent": "plan",
      "priority": "routine",
      "doNotPerform": false,
      "code": {
        "coding": [ {
          "system": "2.16.840.1.113883.2.1.3.2.4.17.325",
          "code": "Dx10",
          "display": "MUST contact a local service for a Non-Urgent Appointment"
        } ]
      },
      "subject": {
        "reference": "urn:uuid:11a42499-adef-4b61-8666-b06bbffcc5d8"
      },
      "occurrencePeriod": {
        "start": "2022-04-07T07:52:14+00:00",
        "end": "2022-04-07T08:52:14+00:00"
      },
      "reasonReference": [ {
        "reference": "urn:uuid:bc92077c-6060-44fc-b7b4-db7b11451e6c"
      } ]
    }
  }, {
    "fullUrl": "urn:uuid:39c56a6f-aa01-49a3-9b7b-3ce8f72c972b",
    "resource": {
      "resourceType": "Practitioner",
      "id": "39c56a6f-aa01-49a3-9b7b-3ce8f72c972b",
      "active": true,
      "telecom": [ {
        "system": "phone",
        "value": "tel:01233505450"
      } ],
      "address": [ {
        "type": "physical",
        "line": [ "Kingston House", "The Long Barrow", "Orbital Park", "Ashford", "Kent" ],
        "postalCode": "TN24 0GP"
      } ]
    }
  }, {
    "fullUrl": "urn:uuid:078fe688-9091-4f3e-a52c-1b8577ba0309",
    "resource": {
      "resourceType": "Composition",
      "id": "078fe688-9091-4f3e-a52c-1b8577ba0309",
      "identifier": {
        "use": "usual",
        "value": "895062D0-60A8-4EB4-9017-5F489D53694D"
      },
      "status": "final",
      "type": {
        "coding": [ {
          "system": "http://snomed.info/sct",
          "code": "371531000",
          "display": "Report of clinical encounter (record artifact)"
        } ]
      },
      "subject": {
        "reference": "urn:uuid:11a42499-adef-4b61-8666-b06bbffcc5d8"
      },
      "encounter": {
        "reference": "urn:uuid:369cbb89-e9a1-488c-bf1e-caba6ff650fc"
      },
      "date": "2022-04-07T07:52:14+00:00",
      "author": [ {
        "reference": "urn:uuid:eceb1b82-4e11-436e-bd5e-e209f0e7ddec"
      } ],
      "title": "111 Report",
      "confidentiality": "R",
      "section": [ {
        "section": [ {
          "title": "Patient's Reported Condition",
          "text": {
            "status": "generated",
            "div": "<div xmlns=\"http://www.w3.org/1999/xhtml\">&lt;content&gt;&amp;lt;CLEO Ref: 2100310450&amp;gt; Test Call &lt;br/&gt;\n                                                    &lt;/content&gt;</div>"
          }
        }, {
          "title": "Pathways Disposition",
          "text": {
            "status": "generated",
            "div": "<div xmlns=\"http://www.w3.org/1999/xhtml\">&lt;content&gt;If a pharmacy service is not available contact the GP practice during normal working hours. (Dx10)&lt;/content&gt;\n                                                    &lt;br/&gt;\n                                                    &lt;br/&gt;\n                                                    &lt;content&gt;Selected Service: 1335970392, Out of Hours GP Service (Waveney) - Kirkley Mill Health Centre, Lowestoft, 111&lt;/content&gt;\n                                                    &lt;br/&gt;</div>"
          }
        }, {
          "title": "Consultation Summary",
          "text": {
            "status": "generated",
            "div": "<div xmlns=\"http://www.w3.org/1999/xhtml\">&lt;content&gt;\n                                                        &lt;content&gt;Worst acne feature, blackheads or whiteheads&lt;/content&gt;\n                                                        &lt;br/&gt;\n                                                        &lt;content&gt;Acne&lt;/content&gt;\n                                                        &lt;br/&gt;\n                                                        &lt;content&gt;Warm to touch&lt;/content&gt;\n                                                        &lt;br/&gt;\n                                                        &lt;content&gt;Illness - test&lt;/content&gt;\n                                                        &lt;br/&gt;\n                                                    &lt;/content&gt;</div>"
          }
        }, {
          "title": "Pathways Assessment",
          "text": {
            "status": "generated",
            "div": "<div xmlns=\"http://www.w3.org/1999/xhtml\">&lt;content&gt;An injury or health problem was the reason for the contact.&lt;/content&gt;\n                                                    &lt;br/&gt;\n                                                    &lt;content&gt;Heavy bleeding had not occurred in the previous 2 hours.&lt;/content&gt;\n                                                    &lt;br/&gt;\n                                                    &lt;content&gt;An illness or health problem was the main problem. - test&lt;/content&gt;\n                                                    &lt;br/&gt;\n                                                    &lt;content&gt;The individual was not fighting for breath.&lt;/content&gt;\n                                                    &lt;br/&gt;\n                                                    &lt;content&gt;The main reason for the assessment was not an allergic reaction, heart attack, chest/upper back pain, probable stroke, recent fit/seizure or suicide attempt.&lt;/content&gt;\n                                                    &lt;br/&gt;\n                                                    &lt;content&gt;The main reason for contact was not new confusion, declared diabetic hypo/hyperglycaemia, or ICD shock.&lt;/content&gt;\n                                                    &lt;br/&gt;\n                                                    &lt;content&gt;The skin on the torso felt normal, warm or hot.&lt;/content&gt;\n                                                    &lt;br/&gt;\n                                                    &lt;content&gt;The main problem was not a rash, itch, jaundice, skin lumps or abnormal bruising.&lt;/content&gt;\n                                                    &lt;br/&gt;\n                                                    &lt;content&gt;The main problem was acne, spots or pimples.&lt;/content&gt;\n                                                    &lt;br/&gt;\n                                                    &lt;content&gt;The worst problem with the acne was blackheads or white heads.&lt;/content&gt;\n                                                    &lt;br/&gt;\n                                                    &lt;content&gt;The problem had not persisted for 3 months or got worse over that time.&lt;/content&gt;\n                                                    &lt;br/&gt;</div>"
          }
        }, {
          "title": "Advice Given",
          "text": {
            "status": "generated",
            "div": "<div xmlns=\"http://www.w3.org/1999/xhtml\">&lt;content&gt;Speak to a pharmacist for advice on suitable treatment.&lt;/content&gt;\n                                                    &lt;br/&gt;\n                                                    &lt;content&gt;If there are any new symptoms, or if the condition gets worse, changes or you have any other concerns, call us back.&lt;/content&gt;\n                                                    &lt;br/&gt;</div>"
          }
        }, {
          "title": "SCR Consent",
          "text": {
            "status": "generated",
            "div": "<div xmlns=\"http://www.w3.org/1999/xhtml\">&lt;content&gt;Consent given for SCR sharing&lt;br/&gt;\n                                                        &lt;br/&gt;\n                                                    &lt;/content&gt;</div>"
          }
        } ]
      }, {
        "title": "ReferralRequest",
        "entry": [ {
          "reference": "urn:uuid:77bc71ad-37d9-4c94-b58d-52be3c28e9d8"
        } ]
      } ]
    }
  }, {
    "fullUrl": "urn:uuid:6f1cbbb6-7b5f-4ff9-9dac-6b3b786ea350",
    "resource": {
      "resourceType": "Consent",
      "id": "6f1cbbb6-7b5f-4ff9-9dac-6b3b786ea350",
      "identifier": {
        "use": "usual",
        "value": "895062D0-60A8-4EB4-9017-5F489D53694D"
      },
      "status": "active",
      "patient": {
        "reference": "urn:uuid:11a42499-adef-4b61-8666-b06bbffcc5d8"
      },
      "period": {
        "start": "2021-05-13T17:24:56+00:00"
      },
      "consentingParty": [ {
        "reference": "urn:uuid:11a42499-adef-4b61-8666-b06bbffcc5d8"
      } ],
      "action": [ {
        "coding": [ {
          "system": "http://snomed.info/sct",
          "code": "425691002",
          "display": "Consent given for electronic record sharing"
        } ],
        "text": "Consent given for electronic record sharing"
      } ],
      "organization": [ {
        "reference": "urn:uuid:73ed5a1c-a12e-4603-b41e-8ab64ac5b9b8"
      } ],
      "policyRule": "http://hl7.org/fhir/ConsentPolicy/opt-out",
      "data": [ {
        "meaning": "related",
        "reference": {
          "reference": "urn:uuid:369cbb89-e9a1-488c-bf1e-caba6ff650fc"
        }
      } ]
    }
  }, {
    "fullUrl": "urn:uuid:bc92077c-6060-44fc-b7b4-db7b11451e6c",
    "resource": {
      "resourceType": "Condition",
      "id": "bc92077c-6060-44fc-b7b4-db7b11451e6c",
      "clinicalStatus": "active",
      "verificationStatus": "unknown",
      "subject": {
        "reference": "urn:uuid:11a42499-adef-4b61-8666-b06bbffcc5d8"
      },
      "context": {
        "reference": "urn:uuid:369cbb89-e9a1-488c-bf1e-caba6ff650fc"
      }
    }
  }, {
    "fullUrl": "urn:uuid:102692d1-138f-4981-989a-82af02944d09",
    "resource": {
      "resourceType": "Observation",
      "id": "102692d1-138f-4981-989a-82af02944d09",
      "status": "final",
      "code": {
        "coding": [ {
          "system": "http://snomed.info/sct",
          "code": "33962009",
          "display": "Presenting complaint"
        } ]
      },
      "subject": {
        "reference": "urn:uuid:11a42499-adef-4b61-8666-b06bbffcc5d8"
      },
      "context": {
        "reference": "urn:uuid:369cbb89-e9a1-488c-bf1e-caba6ff650fc"
      },
      "valueString": "<CLEO Ref: 2100310450> Test Call "
    }
  }, {
    "fullUrl": "urn:uuid:7d81a282-b8ff-41c3-9bec-a73849972b47",
    "resource": {
      "resourceType": "PractitionerRole",
      "id": "7d81a282-b8ff-41c3-9bec-a73849972b47",
      "practitioner": {
        "reference": "urn:uuid:eceb1b82-4e11-436e-bd5e-e209f0e7ddec"
      },
      "organization": {
        "reference": "urn:uuid:91f47746-7cde-49e9-8066-0559fb360bb1"
      },
      "code": [ {
        "coding": [ {
          "system": "2.16.840.1.113883.2.1.3.2.4.17.196",
          "code": "NR1690",
          "display": "Call Operator"
        } ]
      } ]
    }
  }, {
    "fullUrl": "urn:uuid:91f47746-7cde-49e9-8066-0559fb360bb1",
    "resource": {
      "resourceType": "Organization",
      "id": "91f47746-7cde-49e9-8066-0559fb360bb1",
      "identifier": [ {
        "value": "NTN08"
      } ],
      "name": "Norfolk and Wisbech 111"
    }
  }, {
    "fullUrl": "urn:uuid:bd95cb4c-dc1f-4b8b-b278-fd00f9f97cd8",
    "resource": {
      "resourceType": "RelatedPerson",
      "id": "bd95cb4c-dc1f-4b8b-b278-fd00f9f97cd8",
      "patient": {
        "reference": "urn:uuid:11a42499-adef-4b61-8666-b06bbffcc5d8"
      },
      "relationship": {
        "coding": [ {
          "system": "http://hl7.org/fhir/v2/0131",
          "code": "C",
          "display": "Emergency Contact"
        } ]
      },
      "telecom": [ {
        "system": "phone",
        "value": "tel:01233123123"
      } ]
    }
  }, {
    "fullUrl": "urn:uuid:f8543daa-e4fa-4231-bd55-ed42c006b02d",
    "resource": {
      "resourceType": "Device",
      "id": "f8543daa-e4fa-4231-bd55-ed42c006b02d",
      "model": "111 Adaptor",
      "version": "1.0.1"
    }
  }, {
    "fullUrl": "urn:uuid:d0f4d1a4-5c4d-44ac-b48f-b3bcc36893b2",
    "resource": {
      "resourceType": "List",
      "id": "d0f4d1a4-5c4d-44ac-b48f-b3bcc36893b2",
      "status": "current",
      "mode": "working",
      "title": "111 Report List",
      "code": {
        "coding": [ {
          "system": "http://snomed.info/sct",
          "code": "225390008",
          "display": "Triage"
        } ]
      },
      "subject": {
        "reference": "urn:uuid:11a42499-adef-4b61-8666-b06bbffcc5d8"
      },
      "encounter": {
        "reference": "urn:uuid:369cbb89-e9a1-488c-bf1e-caba6ff650fc"
      },
      "date": "2022-04-07T07:52:14+00:00",
      "source": {
        "reference": "urn:uuid:f8543daa-e4fa-4231-bd55-ed42c006b02d"
      },
      "orderedBy": {
        "coding": [ {
          "system": "http://hl7.org/fhir/list-order",
          "code": "event-date",
          "display": "Sorted by Event Date"
        } ]
      },
      "entry": [ {
        "item": {
          "reference": "urn:uuid:39c56a6f-aa01-49a3-9b7b-3ce8f72c972b"
        }
      }, {
        "item": {
          "reference": "urn:uuid:edc8d983-96df-47ca-9ce0-e8b15e07666e"
        }
      }, {
        "item": {
          "reference": "urn:uuid:eceb1b82-4e11-436e-bd5e-e209f0e7ddec"
        }
      }, {
        "item": {
          "reference": "urn:uuid:bd95cb4c-dc1f-4b8b-b278-fd00f9f97cd8"
        }
      }, {
        "item": {
          "reference": "urn:uuid:bc92077c-6060-44fc-b7b4-db7b11451e6c"
        }
      }, {
        "item": {
          "reference": "urn:uuid:cd3dc1a2-7e95-49d7-84bb-59a5e4895e18"
        }
      }, {
        "item": {
          "reference": "urn:uuid:51358ac9-24a2-4c5c-8620-e21c60cc2ef2"
        }
      }, {
        "item": {
          "reference": "urn:uuid:ce3d415b-6713-407b-9d93-87f8b3dead26"
        }
      }, {
        "item": {
          "reference": "urn:uuid:91f47746-7cde-49e9-8066-0559fb360bb1"
        }
      }, {
        "item": {
          "reference": "urn:uuid:73ed5a1c-a12e-4603-b41e-8ab64ac5b9b8"
        }
      }, {
        "item": {
          "reference": "urn:uuid:102692d1-138f-4981-989a-82af02944d09"
        }
      }, {
        "item": {
          "reference": "urn:uuid:77bc71ad-37d9-4c94-b58d-52be3c28e9d8"
        }
      } ]
    }
  } ]
}