{
  "resourceType": "Bundle",
  "identifier": {
    "type": {
      "text": "ClinicalDocument VersionNumber"
    },
    "value": "1"
  },
  "type": "message",
  "entry": [ {
    "fullUrl": "urn:uuid:05040617-33BA-4344-AA59-281CF2FE63CA",
    "resource": {
      "resourceType": "MessageHeader",
      "id": "05040617-33BA-4344-AA59-281CF2FE63CA",
      "event": {
        "system": "https://fhir.nhs.uk/STU3/CodeSystem/EventType-1",
        "code": "referral-1",
        "display": "Referral"
      },
      "destination": [ {
        "endpoint": "urn:nhs-uk:addressing:ods:FHR04RPX:DOSServiceID:2000038667"
      } ],
      "timestamp": "2021-04-06T15:19:34.000+00:00",
      "source": {
        "name": "NHS 111 Adaptor",
        "endpoint": "http://localhost:8080/report"
      },
      "reason": {
        "coding": [ {
          "system": "urn:nhs-itk:ns:201005:interaction",
          "code": "urn:nhs-itk:interaction:primaryOutofHourRecipientNHS111CDADocument-v2-0"
        } ]
      }
    }
  }, {
    "fullUrl": "urn:uuid:17974a13-2044-4d68-ba57-d42376430eee",
    "resource": {
      "resourceType": "Encounter",
      "id": "17974a13-2044-4d68-ba57-d42376430eee",
      "identifier": [ {
        "system": "2.16.840.1.113883.2.1.3.2.4.18.34",
        "value": "AdastraCaseGUID34"
      }, {
        "system": "2.16.840.1.113883.2.1.3.2.4.18.35",
        "value": "AdastraCaseID35"
      }, {
        "system": "2.16.840.1.113883.2.1.3.2.4.18.49",
        "value": "AdastraCaseGUID49"
      } ],
      "status": "finished",
      "type": [ {
        "text": "111 Encounter Referral"
      } ],
      "subject": {
        "reference": "urn:uuid:8120b218-f906-4a1f-9069-39e41c4d533d"
      },
      "participant": [ {
        "type": [ {
          "coding": [ {
            "system": "http://hl7.org/fhir/ValueSet/encounter-participant-type",
            "code": "PPRF",
            "display": "Author"
          } ]
        } ],
        "individual": {
          "reference": "urn:uuid:17e8da34-54c6-4dcf-b30d-6c93091c7f25"
        }
      }, {
        "type": [ {
          "text": "Informant"
        } ],
        "individual": {
          "reference": "urn:uuid:71cb7006-3f6a-4e7a-b6c9-09a51a3dca48"
        }
      }, {
        "type": [ {
          "coding": [ {
            "system": "http://hl7.org/fhir/ValueSet/encounter-participant-type",
            "code": "ATND",
            "display": "Responsible Party"
          } ]
        } ],
        "individual": {
          "reference": "urn:uuid:89d11c20-e3d6-47e6-aaf3-a8b81fb68025"
        }
      } ],
      "period": {
        "start": "2021-04-06T15:19:34+00:00"
      },
      "location": [ {
        "location": {
          "reference": "urn:uuid:676a268a-22c4-41de-adee-02752933fcbc"
        },
        "status": "completed"
      } ],
      "serviceProvider": {
        "reference": "urn:uuid:dfb236c4-fb53-464d-825b-d1d17208444f"
      }
    }
  }, {
    "fullUrl": "urn:uuid:dfb236c4-fb53-464d-825b-d1d17208444f",
    "resource": {
      "resourceType": "Organization",
      "id": "dfb236c4-fb53-464d-825b-d1d17208444f",
      "active": true,
      "type": [ {
        "text": "CST"
      } ],
      "name": "CustodianName"
    }
  }, {
    "fullUrl": "urn:uuid:17e8da34-54c6-4dcf-b30d-6c93091c7f25",
    "resource": {
      "resourceType": "Practitioner",
      "id": "17e8da34-54c6-4dcf-b30d-6c93091c7f25",
      "active": true,
      "name": [ {
        "use": "official",
        "family": "AuthorAssignedPerson FamilyName",
        "given": [ "AuthorAssignedPerson GivenName" ]
      } ]
    }
  }, {
    "fullUrl": "urn:uuid:71cb7006-3f6a-4e7a-b6c9-09a51a3dca48",
    "resource": {
      "resourceType": "RelatedPerson",
      "id": "71cb7006-3f6a-4e7a-b6c9-09a51a3dca48",
      "active": true,
      "patient": {
        "reference": "urn:uuid:8120b218-f906-4a1f-9069-39e41c4d533d"
      },
      "relationship": {
        "coding": [ {
          "system": "2.16.840.1.113883.2.1.3.2.4.16.45",
          "code": "16",
          "display": "Relative"
        } ]
      },
      "name": [ {
        "text": "RelatedPerson Name"
      } ],
      "telecom": [ {
        "system": "phone",
        "value": "tel:01111111111",
        "use": "home"
      } ],
      "gender": "unknown"
    }
  }, {
    "fullUrl": "urn:uuid:89d11c20-e3d6-47e6-aaf3-a8b81fb68025",
    "resource": {
      "resourceType": "Practitioner",
      "id": "89d11c20-e3d6-47e6-aaf3-a8b81fb68025",
      "active": true,
      "name": [ {
        "use": "official",
        "family": "ResponsablePartyMD FamilyName",
        "given": [ "ResponsablePartyMD GivenName" ]
      } ]
    }
  }, {
    "fullUrl": "urn:uuid:676a268a-22c4-41de-adee-02752933fcbc",
    "resource": {
      "resourceType": "Location",
      "id": "676a268a-22c4-41de-adee-02752933fcbc",
      "name": "Incident Location",
      "address": {
        "type": "physical",
        "line": [ "HealthCareFacility AddressLine1", "HealthCareFacility AddressLine2", "HealthCareFacility AddressLine3", "HealthCareFacility AddressLine4", "HealthCareFacility AddressLine5" ],
        "postalCode": "LOH25 4NS"
      }
    }
  }, {
    "fullUrl": "urn:uuid:8120b218-f906-4a1f-9069-39e41c4d533d",
    "resource": {
      "resourceType": "Patient",
      "id": "8120b218-f906-4a1f-9069-39e41c4d533d",
      "active": true,
      "name": [ {
        "use": "official",
        "family": "Patient Family Name",
        "given": [ "Patient Given Name" ]
      } ],
      "telecom": [ {
        "system": "phone",
        "value": "tel:000000000000",
        "use": "home"
      }, {
        "system": "phone",
        "value": "tel:000000000000"
      } ],
      "gender": "other",
      "birthDate": "1990-02-02",
      "address": [ {
        "use": "home",
        "line": [ "Home Address Line 1", "Home Address Line 2", "Home Address Line 3", "Home Address Line 4", "Home Address Line 5" ],
        "postalCode": "HA25 4NS"
      }, {
        "type": "physical",
        "line": [ "Home Address Line 1", "Home Address Line 2", "Home Address Line 3", "Home Address Line 4", "Home Address Line 5" ],
        "postalCode": "PH25 4NS"
      } ]
    }
  }, {
    "fullUrl": "urn:uuid:603464b0-effa-45f4-a352-d5aa3b7ac70c",
    "resource": {
      "resourceType": "HealthcareService",
      "id": "603464b0-effa-45f4-a352-d5aa3b7ac70c",
      "active": true,
      "providedBy": {
        "reference": "urn:uuid:ce3394f9-8864-4d06-95f3-4fdfc8548aa4"
      },
      "location": [ {
        "reference": "urn:uuid:654fa395-a301-44ae-9b01-d447af8e24da"
      } ],
      "name": "InformationRecipient IntendedRecipient Name FHR0"
    }
  }, {
    "fullUrl": "urn:uuid:654fa395-a301-44ae-9b01-d447af8e24da",
    "resource": {
      "resourceType": "Location",
      "id": "654fa395-a301-44ae-9b01-d447af8e24da",
      "managingOrganization": {
        "reference": "urn:uuid:ce3394f9-8864-4d06-95f3-4fdfc8548aa4"
      }
    }
  }, {
    "fullUrl": "urn:uuid:ce3394f9-8864-4d06-95f3-4fdfc8548aa4",
    "resource": {
      "resourceType": "Organization",
      "id": "ce3394f9-8864-4d06-95f3-4fdfc8548aa4",
      "identifier": [ {
        "value": "FHR04RPX"
      } ],
      "type": [ {
        "coding": [ {
          "code": "PRCP",
          "display": "InformationRecipient IntendedRecipient Name FHR0"
        } ]
      } ],
      "name": "InformationRecipient IntendedRecipient Name FHR0"
    }
  }, {
    "fullUrl": "urn:uuid:266135b5-6f47-4c35-8dd1-231c3602d680",
    "resource": {
      "resourceType": "ReferralRequest",
      "id": "266135b5-6f47-4c35-8dd1-231c3602d680",
      "status": "active",
      "intent": "plan",
      "priority": "routine",
      "subject": {
        "reference": "urn:uuid:8120b218-f906-4a1f-9069-39e41c4d533d"
      },
      "context": {
        "reference": "urn:uuid:17974a13-2044-4d68-ba57-d42376430eee"
      },
      "occurrencePeriod": {
        "start": "2022-05-05T07:31:36+00:00",
        "end": "2022-05-05T08:31:36+00:00"
      },
      "authoredOn": "2021-04-06T15:19:29+00:00",
      "requester": {
        "agent": {
          "reference": "urn:uuid:6752a7cb-fb7f-4031-9467-b756814e19a1"
        },
        "onBehalfOf": {
          "reference": "urn:uuid:dfb236c4-fb53-464d-825b-d1d17208444f"
        }
      },
      "recipient": [ {
        "reference": "urn:uuid:603464b0-effa-45f4-a352-d5aa3b7ac70c"
      } ],
      "reasonReference": [ {
        "reference": "urn:uuid:e6e2e023-f041-4816-a07d-788032325b5d"
      } ],
      "supportingInfo": [ {
        "reference": "urn:uuid:d6b8d5f4-fc1f-4413-9073-ef76fe2d12ff"
      } ]
    }
  }, {
    "fullUrl": "urn:uuid:d6b8d5f4-fc1f-4413-9073-ef76fe2d12ff",
    "resource": {
      "resourceType": "ProcedureRequest",
      "id": "d6b8d5f4-fc1f-4413-9073-ef76fe2d12ff",
      "status": "active",
      "intent": "plan",
      "priority": "routine",
      "doNotPerform": false,
      "code": {
        "coding": [ {
          "system": "2.16.840.1.113883.2.1.3.2.4.17.325",
          "code": "DispoCodeDx87",
          "display": "DispoName - Repeat Prescription required within 24 hours"
        } ]
      },
      "subject": {
        "reference": "urn:uuid:8120b218-f906-4a1f-9069-39e41c4d533d"
      },
      "occurrencePeriod": {
        "start": "2022-05-05T07:31:36+00:00",
        "end": "2022-05-05T08:31:36+00:00"
      },
      "reasonReference": [ {
        "reference": "urn:uuid:e6e2e023-f041-4816-a07d-788032325b5d"
      } ]
    }
  }, {
    "fullUrl": "urn:uuid:9234bb06-bdd7-4576-80dd-c15e0c16ce65",
    "resource": {
      "resourceType": "Composition",
      "id": "9234bb06-bdd7-4576-80dd-c15e0c16ce65",
      "identifier": {
        "use": "usual",
        "value": "E2DF04F7-95CA-40AD-808D-797C0A89E39C"
      },
      "status": "final",
      "type": {
        "coding": [ {
          "system": "http://snomed.info/sct",
          "code": "371531000",
          "display": "Report of clinical encounter (record artifact)"
        } ]
      },
      "subject": {
        "reference": "urn:uuid:8120b218-f906-4a1f-9069-39e41c4d533d"
      },
      "encounter": {
        "reference": "urn:uuid:17974a13-2044-4d68-ba57-d42376430eee"
      },
      "date": "2021-04-06T15:19:34+00:00",
      "author": [ {
        "reference": "urn:uuid:17e8da34-54c6-4dcf-b30d-6c93091c7f25"
      } ],
      "title": "111 Report",
      "confidentiality": "N",
      "section": [ {
        "section": [ {
          "title": "ComponentTitle - Patient's Reported Condition",
          "text": {
            "status": "generated",
            "div": "<div xmlns=\"http://www.w3.org/1999/xhtml\">&lt;content&gt;ComponentText - Pharmacy ITK Testing&lt;/content&gt;\n                                                    &lt;br/&gt;</div>"
          }
        }, {
          "title": "ComponentTitle - Pathways Disposition",
          "text": {
            "status": "generated",
            "div": "<div xmlns=\"http://www.w3.org/1999/xhtml\">ComponentText - Repeat Prescription required within 24 hours (Dx87)                                         &lt;br/&gt;\n                                                    &lt;br/&gt;                                         Selected service: Springvale, Fraser Road, Kings Worthy, Winchester&lt;br/&gt;</div>"
          }
        }, {
          "title": "ComponentTitle - Consultation Summary",
          "text": {
            "status": "generated",
            "div": "<div xmlns=\"http://www.w3.org/1999/xhtml\">ComponentText - Prescription request&lt;br/&gt;Not enough medication until surgery opens&lt;br/&gt;No medication available&lt;br/&gt;Next dose due in over 12 hours time&lt;br/&gt;</div>"
          }
        }, {
          "title": "ComponentTitle - Pathways Assessment",
          "text": {
            "status": "generated",
            "div": "<div xmlns=\"http://www.w3.org/1999/xhtml\">ComponentText - Reason for call menu - continued to next list.&lt;br/&gt;A prescription request was the main reason for the contact.&lt;br/&gt;The main reason for the contact was not a new or worsening illness.&lt;br/&gt;The individual did not have enough medication to last until the surgery next opened.&lt;br/&gt;The medication was suitable for repeat prescribing without further consultation.&lt;br/&gt;The individual had no medication available.&lt;br/&gt;The next dose was due in over 12 hours time.&lt;br/&gt;Instructions given were: The individual needs a repeat prescription.&lt;br/&gt;Directory of Services referral: Springvale, Fraser Road, Kings Worthy, Winchester&lt;br/&gt;</div>"
          }
        }, {
          "title": "ComponentTitle - Advice Given",
          "text": {
            "status": "generated",
            "div": "<div xmlns=\"http://www.w3.org/1999/xhtml\">ComponentText - I will arrange for a clinician or pharmacist to speak to the individual.&lt;br/&gt;IF THE RECOMMENDED TIMEFRAME FALLS OUTSIDE OPENING HOURS: I will arrange for a clinician to speak to the individual.&lt;br/&gt;\n                                                    &lt;br/&gt;</div>"
          }
        }, {
          "title": "ComponentTitle - Information And Advice Given"
        }, {
          "title": "ComponentTitle - Disposition",
          "text": {
            "status": "generated",
            "div": "<div xmlns=\"http://www.w3.org/1999/xhtml\">&lt;content&gt;ComponentText - Repeat Prescription required within 24 hours&lt;br/&gt;\n                                                    &lt;/content&gt;\n                                                    &lt;br/&gt;\n                                                    &lt;br/&gt;</div>"
          }
        } ]
      }, {
        "title": "CarePlan",
        "entry": [ {
          "reference": "urn:uuid:48547d40-2be7-4109-ac30-5eea708801be"
        } ]
      }, {
        "title": "ReferralRequest",
        "entry": [ {
          "reference": "urn:uuid:266135b5-6f47-4c35-8dd1-231c3602d680"
        } ]
      }, {
        "title": "QuestionnaireResponse",
        "entry": [ {
          "reference": "urn:uuid:c518939b-cf44-462b-85e0-43787de72c51"
        } ]
      }, {
        "title": "QuestionnaireResponse",
        "entry": [ {
          "reference": "urn:uuid:78ff24e0-e358-4d52-b7c1-917d6865b340"
        } ]
      }, {
        "title": "QuestionnaireResponse",
        "entry": [ {
          "reference": "urn:uuid:a6227b49-ae81-4036-8be7-7f78bf354390"
        } ]
      }, {
        "title": "QuestionnaireResponse",
        "entry": [ {
          "reference": "urn:uuid:15c69350-9fee-4a3b-93af-7293ad54a052"
        } ]
      }, {
        "title": "QuestionnaireResponse",
        "entry": [ {
          "reference": "urn:uuid:c5f7d0b1-9355-457c-8e5e-2f79a8fea49f"
        } ]
      }, {
        "title": "QuestionnaireResponse",
        "entry": [ {
          "reference": "urn:uuid:f8d0bf3d-66a7-421a-837b-7a442f638128"
        } ]
      }, {
        "title": "QuestionnaireResponse",
        "entry": [ {
          "reference": "urn:uuid:99583385-df33-4fe4-851c-41ba5553d067"
        } ]
      }, {
        "title": "QuestionnaireResponse",
        "entry": [ {
          "reference": "urn:uuid:5668f8e0-f1b8-427b-bedd-7d0193500039"
        } ]
      }, {
        "title": "QuestionnaireResponse",
        "entry": [ {
          "reference": "urn:uuid:82ca7d3d-17b8-4b0c-b488-387a9bf8bd55"
        } ]
      }, {
        "title": "QuestionnaireResponse",
        "entry": [ {
          "reference": "urn:uuid:d87391c4-b968-4ea2-b31b-5ddc85a234b2"
        } ]
      }, {
        "title": "QuestionnaireResponse",
        "entry": [ {
          "reference": "urn:uuid:7f13e8b2-d0d1-47c8-8ebe-2d397e706f7c"
        } ]
      }, {
        "title": "QuestionnaireResponse",
        "entry": [ {
          "reference": "urn:uuid:65ec2bc3-6e34-4a21-ad35-a1dc1ca7e047"
        } ]
      }, {
        "title": "QuestionnaireResponse",
        "entry": [ {
          "reference": "urn:uuid:a9a24fae-7d24-4d89-b570-3271fb67b5bb"
        } ]
      }, {
        "title": "QuestionnaireResponse",
        "entry": [ {
          "reference": "urn:uuid:f2d2c0a9-e183-4308-9d96-65ef75cb5c1c"
        } ]
      }, {
        "title": "QuestionnaireResponse",
        "entry": [ {
          "reference": "urn:uuid:76856ce1-66ae-4559-a6f6-6d21ff055f4b"
        } ]
      } ]
    }
  }, {
    "fullUrl": "urn:uuid:48547d40-2be7-4109-ac30-5eea708801be",
    "resource": {
      "resourceType": "CarePlan",
      "id": "48547d40-2be7-4109-ac30-5eea708801be",
      "status": "completed",
      "intent": "plan",
      "title": "ComponentTitle - Information And Advice Given",
      "subject": {
        "reference": "urn:uuid:8120b218-f906-4a1f-9069-39e41c4d533d"
      },
      "context": {
        "reference": "urn:uuid:17974a13-2044-4d68-ba57-d42376430eee"
      },
      "period": {
        "start": "2021-04-06T15:19:34+00:00"
      },
      "addresses": [ {
        "reference": "urn:uuid:e6e2e023-f041-4816-a07d-788032325b5d"
      } ]
    }
  }, {
    "fullUrl": "urn:uuid:c4d56363-ffd2-4fd4-958d-ef8e28117daf",
    "resource": {
      "resourceType": "Consent",
      "id": "c4d56363-ffd2-4fd4-958d-ef8e28117daf",
      "identifier": {
        "use": "usual",
        "value": "E2DF04F7-95CA-40AD-808D-797C0A89E39C"
      },
      "status": "active",
      "patient": {
        "reference": "urn:uuid:8120b218-f906-4a1f-9069-39e41c4d533d"
      },
      "period": {
        "start": "2021-04-06T15:19:34+00:00"
      },
      "consentingParty": [ {
        "reference": "urn:uuid:8120b218-f906-4a1f-9069-39e41c4d533d"
      } ],
      "action": [ {
        "coding": [ {
          "system": "http://snomed.info/sct",
          "code": "425691002",
          "display": "Consent given for electronic record sharing"
        } ],
        "text": "Consent given for electronic record sharing"
      } ],
      "organization": [ {
        "reference": "urn:uuid:dfb236c4-fb53-464d-825b-d1d17208444f"
      } ],
      "policyRule": "http://hl7.org/fhir/ConsentPolicy/opt-out",
      "data": [ {
        "meaning": "related",
        "reference": {
          "reference": "urn:uuid:17974a13-2044-4d68-ba57-d42376430eee"
        }
      } ]
    }
  }, {
    "fullUrl": "urn:uuid:e6e2e023-f041-4816-a07d-788032325b5d",
    "resource": {
      "resourceType": "Condition",
      "id": "e6e2e023-f041-4816-a07d-788032325b5d",
      "clinicalStatus": "active",
      "verificationStatus": "unknown",
      "subject": {
        "reference": "urn:uuid:8120b218-f906-4a1f-9069-39e41c4d533d"
      },
      "context": {
        "reference": "urn:uuid:17974a13-2044-4d68-ba57-d42376430eee"
      },
      "evidence": [ {
        "detail": [ {
          "reference": "urn:uuid:c518939b-cf44-462b-85e0-43787de72c51"
        } ]
      }, {
        "detail": [ {
          "reference": "urn:uuid:78ff24e0-e358-4d52-b7c1-917d6865b340"
        } ]
      }, {
        "detail": [ {
          "reference": "urn:uuid:a6227b49-ae81-4036-8be7-7f78bf354390"
        } ]
      }, {
        "detail": [ {
          "reference": "urn:uuid:15c69350-9fee-4a3b-93af-7293ad54a052"
        } ]
      }, {
        "detail": [ {
          "reference": "urn:uuid:c5f7d0b1-9355-457c-8e5e-2f79a8fea49f"
        } ]
      }, {
        "detail": [ {
          "reference": "urn:uuid:f8d0bf3d-66a7-421a-837b-7a442f638128"
        } ]
      }, {
        "detail": [ {
          "reference": "urn:uuid:99583385-df33-4fe4-851c-41ba5553d067"
        } ]
      }, {
        "detail": [ {
          "reference": "urn:uuid:5668f8e0-f1b8-427b-bedd-7d0193500039"
        } ]
      }, {
        "detail": [ {
          "reference": "urn:uuid:82ca7d3d-17b8-4b0c-b488-387a9bf8bd55"
        } ]
      }, {
        "detail": [ {
          "reference": "urn:uuid:d87391c4-b968-4ea2-b31b-5ddc85a234b2"
        } ]
      }, {
        "detail": [ {
          "reference": "urn:uuid:7f13e8b2-d0d1-47c8-8ebe-2d397e706f7c"
        } ]
      }, {
        "detail": [ {
          "reference": "urn:uuid:65ec2bc3-6e34-4a21-ad35-a1dc1ca7e047"
        } ]
      }, {
        "detail": [ {
          "reference": "urn:uuid:a9a24fae-7d24-4d89-b570-3271fb67b5bb"
        } ]
      }, {
        "detail": [ {
          "reference": "urn:uuid:f2d2c0a9-e183-4308-9d96-65ef75cb5c1c"
        } ]
      }, {
        "detail": [ {
          "reference": "urn:uuid:76856ce1-66ae-4559-a6f6-6d21ff055f4b"
        } ]
      } ]
    }
  }, {
    "fullUrl": "urn:uuid:c518939b-cf44-462b-85e0-43787de72c51",
    "resource": {
      "resourceType": "QuestionnaireResponse",
      "id": "c518939b-cf44-462b-85e0-43787de72c51",
      "identifier": {
        "value": "60319"
      },
      "questionnaire": {
        "reference": "urn:uuid:4eb480bf-e45d-457a-b27c-42b59acdb318"
      },
      "status": "completed",
      "subject": {
        "reference": "urn:uuid:8120b218-f906-4a1f-9069-39e41c4d533d"
      },
      "context": {
        "reference": "urn:uuid:17974a13-2044-4d68-ba57-d42376430eee"
      },
      "authored": "2021-04-06T15:19:34+00:00",
      "item": [ {
        "linkId": "Tx220109",
        "text": "What is the reason for the contact?",
        "answer": [ {
          "valueString": "more"
        } ]
      } ]
    }
  }, {
    "fullUrl": "urn:uuid:4eb480bf-e45d-457a-b27c-42b59acdb318",
    "resource": {
      "resourceType": "Questionnaire",
      "id": "4eb480bf-e45d-457a-b27c-42b59acdb318",
      "identifier": [ {
        "value": "60319"
      } ],
      "version": "2021-04-06T15:19:34.083Z",
      "status": "active",
      "experimental": false,
      "date": "2021-04-06T15:19:34+00:00",
      "publisher": "User ID: 'HADFIELDR' User name: 'Ryan Hadfield' User skill set: 'T3'",
      "lastReviewDate": "2021-04-06",
      "contact": [ {
        "telecom": [ {
          "system": "phone",
          "value": "0111 111 1111"
        } ]
      } ],
      "subjectType": [ "Patient" ],
      "item": [ {
        "linkId": "60319",
        "prefix": "5",
        "text": "What is the reason for the contact?",
        "type": "choice",
        "required": true,
        "repeats": false,
        "option": [ {
          "valueString": "an injury or other health problem, Selected: false"
        }, {
          "valueString": "a need to access another healthcare service, Selected: false"
        }, {
          "valueString": "a healthcare professional requesting contact with another clinician, Selected: false"
        }, {
          "valueString": "a report of results or tests, Selected: false"
        }, {
          "valueString": "more, Selected: true"
        } ]
      } ]
    }
  }, {
    "fullUrl": "urn:uuid:78ff24e0-e358-4d52-b7c1-917d6865b340",
    "resource": {
      "resourceType": "QuestionnaireResponse",
      "id": "78ff24e0-e358-4d52-b7c1-917d6865b340",
      "identifier": {
        "value": "60319"
      },
      "questionnaire": {
        "reference": "urn:uuid:b56841a7-0502-436d-80c2-9a8d6e1da8ab"
      },
      "status": "completed",
      "subject": {
        "reference": "urn:uuid:8120b218-f906-4a1f-9069-39e41c4d533d"
      },
      "context": {
        "reference": "urn:uuid:17974a13-2044-4d68-ba57-d42376430eee"
      },
      "authored": "2021-04-06T15:19:34+00:00",
      "item": [ {
        "linkId": "Tx221793",
        "text": "STRING:to'Social&information'-further'Callreason'menu",
        "answer": [ {
          "valueString": "\"present\""
        } ]
      } ]
    }
  }, {
    "fullUrl": "urn:uuid:b56841a7-0502-436d-80c2-9a8d6e1da8ab",
    "resource": {
      "resourceType": "Questionnaire",
      "id": "b56841a7-0502-436d-80c2-9a8d6e1da8ab",
      "identifier": [ {
        "value": "60319"
      } ],
      "version": "2021-04-06T15:19:34.083Z",
      "status": "active",
      "experimental": false,
      "date": "2021-04-06T15:19:34+00:00",
      "publisher": "User ID: 'HADFIELDR' User name: 'Ryan Hadfield' User skill set: 'T3'",
      "lastReviewDate": "2021-04-06",
      "contact": [ {
        "telecom": [ {
          "system": "phone",
          "value": "0111 111 1111"
        } ]
      } ],
      "subjectType": [ "Patient" ],
      "item": [ {
        "linkId": "60319",
        "prefix": "600",
        "text": "STRING:to'Social&information'-further'Callreason'menu",
        "type": "choice",
        "required": true,
        "repeats": false,
        "option": [ {
          "valueString": "\"present\", Selected: true"
        } ]
      } ]
    }
  }, {
    "fullUrl": "urn:uuid:a6227b49-ae81-4036-8be7-7f78bf354390",
    "resource": {
      "resourceType": "QuestionnaireResponse",
      "id": "a6227b49-ae81-4036-8be7-7f78bf354390",
      "identifier": {
        "value": "60319"
      },
      "questionnaire": {
        "reference": "urn:uuid:ec48a45e-f95f-4d08-9a99-dfdacf634219"
      },
      "status": "completed",
      "subject": {
        "reference": "urn:uuid:8120b218-f906-4a1f-9069-39e41c4d533d"
      },
      "context": {
        "reference": "urn:uuid:17974a13-2044-4d68-ba57-d42376430eee"
      },
      "authored": "2021-04-06T15:19:34+00:00"
    }
  }, {
    "fullUrl": "urn:uuid:ec48a45e-f95f-4d08-9a99-dfdacf634219",
    "resource": {
      "resourceType": "Questionnaire",
      "id": "ec48a45e-f95f-4d08-9a99-dfdacf634219",
      "identifier": [ {
        "value": "60319"
      } ],
      "version": "2021-04-06T15:19:34.083Z",
      "status": "active",
      "experimental": false,
      "date": "2021-04-06T15:19:34+00:00",
      "publisher": "User ID: 'HADFIELDR' User name: 'Ryan Hadfield' User skill set: 'T3'",
      "lastReviewDate": "2021-04-06",
      "contact": [ {
        "telecom": [ {
          "system": "phone",
          "value": "0111 111 1111"
        } ]
      } ],
      "subjectType": [ "Patient" ]
    }
  }, {
    "fullUrl": "urn:uuid:15c69350-9fee-4a3b-93af-7293ad54a052",
    "resource": {
      "resourceType": "QuestionnaireResponse",
      "id": "15c69350-9fee-4a3b-93af-7293ad54a052",
      "identifier": {
        "value": "60319"
      },
      "questionnaire": {
        "reference": "urn:uuid:3fefc63c-e97f-496a-94ec-2bc8b9e39c01"
      },
      "status": "completed",
      "subject": {
        "reference": "urn:uuid:8120b218-f906-4a1f-9069-39e41c4d533d"
      },
      "context": {
        "reference": "urn:uuid:17974a13-2044-4d68-ba57-d42376430eee"
      },
      "authored": "2021-04-06T15:19:34+00:00",
      "item": [ {
        "linkId": "Tx221804",
        "text": "STRING:transfertofurthermenuquestionestablishedinEntryFlow",
        "answer": [ {
          "valueString": "\"present\""
        } ]
      } ]
    }
  }, {
    "fullUrl": "urn:uuid:3fefc63c-e97f-496a-94ec-2bc8b9e39c01",
    "resource": {
      "resourceType": "Questionnaire",
      "id": "3fefc63c-e97f-496a-94ec-2bc8b9e39c01",
      "identifier": [ {
        "value": "60319"
      } ],
      "version": "2021-04-06T15:19:34.083Z",
      "status": "active",
      "experimental": false,
      "date": "2021-04-06T15:19:34+00:00",
      "publisher": "User ID: 'HADFIELDR' User name: 'Ryan Hadfield' User skill set: 'T3'",
      "lastReviewDate": "2021-04-06",
      "contact": [ {
        "telecom": [ {
          "system": "phone",
          "value": "0111 111 1111"
        } ]
      } ],
      "subjectType": [ "Patient" ],
      "item": [ {
        "linkId": "60319",
        "prefix": "41",
        "text": "STRING:transfertofurthermenuquestionestablishedinEntryFlow",
        "type": "choice",
        "required": true,
        "repeats": false,
        "option": [ {
          "valueString": "\"present\", Selected: true"
        } ]
      } ]
    }
  }, {
    "fullUrl": "urn:uuid:c5f7d0b1-9355-457c-8e5e-2f79a8fea49f",
    "resource": {
      "resourceType": "QuestionnaireResponse",
      "id": "c5f7d0b1-9355-457c-8e5e-2f79a8fea49f",
      "identifier": {
        "value": "60319"
      },
      "questionnaire": {
        "reference": "urn:uuid:478aea0c-ff44-47a6-acbd-b6464ae682eb"
      },
      "status": "completed",
      "subject": {
        "reference": "urn:uuid:8120b218-f906-4a1f-9069-39e41c4d533d"
      },
      "context": {
        "reference": "urn:uuid:17974a13-2044-4d68-ba57-d42376430eee"
      },
      "authored": "2021-04-06T15:19:34+00:00",
      "item": [ {
        "linkId": "Tx224998",
        "text": "SYSTEM_COVIDLEVEL2",
        "answer": [ {
          "valueString": "==\"covidlevel2\""
        } ]
      } ]
    }
  }, {
    "fullUrl": "urn:uuid:478aea0c-ff44-47a6-acbd-b6464ae682eb",
    "resource": {
      "resourceType": "Questionnaire",
      "id": "478aea0c-ff44-47a6-acbd-b6464ae682eb",
      "identifier": [ {
        "value": "60319"
      } ],
      "version": "2021-04-06T15:19:34.083Z",
      "status": "active",
      "experimental": false,
      "date": "2021-04-06T15:19:34+00:00",
      "publisher": "User ID: 'HADFIELDR' User name: 'Ryan Hadfield' User skill set: 'T3'",
      "lastReviewDate": "2021-04-06",
      "contact": [ {
        "telecom": [ {
          "system": "phone",
          "value": "0111 111 1111"
        } ]
      } ],
      "subjectType": [ "Patient" ],
      "item": [ {
        "linkId": "60319",
        "prefix": "5900",
        "text": "SYSTEM_COVIDLEVEL2",
        "type": "choice",
        "required": true,
        "repeats": false,
        "option": [ {
          "valueString": "==\"covidlevel2\", Selected: true"
        }, {
          "valueString": "*, Selected: false"
        } ]
      } ]
    }
  }, {
    "fullUrl": "urn:uuid:f8d0bf3d-66a7-421a-837b-7a442f638128",
    "resource": {
      "resourceType": "QuestionnaireResponse",
      "id": "f8d0bf3d-66a7-421a-837b-7a442f638128",
      "identifier": {
        "value": "60319"
      },
      "questionnaire": {
        "reference": "urn:uuid:c6ecebcc-4259-45de-b0e9-ff728da05429"
      },
      "status": "completed",
      "subject": {
        "reference": "urn:uuid:8120b218-f906-4a1f-9069-39e41c4d533d"
      },
      "context": {
        "reference": "urn:uuid:17974a13-2044-4d68-ba57-d42376430eee"
      },
      "authored": "2021-04-06T15:19:34+00:00",
      "item": [ {
        "linkId": "Tx225069",
        "text": "What is the reason for the contact?",
        "answer": [ {
          "valueString": "a prescription request"
        } ]
      } ]
    }
  }, {
    "fullUrl": "urn:uuid:c6ecebcc-4259-45de-b0e9-ff728da05429",
    "resource": {
      "resourceType": "Questionnaire",
      "id": "c6ecebcc-4259-45de-b0e9-ff728da05429",
      "identifier": [ {
        "value": "60319"
      } ],
      "version": "2021-04-06T15:19:34.083Z",
      "status": "active",
      "experimental": false,
      "date": "2021-04-06T15:19:34+00:00",
      "publisher": "User ID: 'HADFIELDR' User name: 'Ryan Hadfield' User skill set: 'T3'",
      "lastReviewDate": "2021-04-06",
      "contact": [ {
        "telecom": [ {
          "system": "phone",
          "value": "0111 111 1111"
        } ]
      } ],
      "subjectType": [ "Patient" ],
      "item": [ {
        "linkId": "60319",
        "prefix": "6000",
        "text": "What is the reason for the contact?",
        "type": "choice",
        "required": true,
        "repeats": false,
        "option": [ {
          "valueString": "a child protection/vulnerable adult concern (specify), Selected: false"
        }, {
          "valueString": "a social or domestic emergency, Selected: false"
        }, {
          "valueString": "a prescription request, Selected: true"
        }, {
          "valueString": "an appointment request, Selected: false"
        }, {
          "valueString": "a request for health or medication information, Selected: false"
        }, {
          "valueString": "public health alert information, Selected: false"
        } ]
      } ]
    }
  }, {
    "fullUrl": "urn:uuid:99583385-df33-4fe4-851c-41ba5553d067",
    "resource": {
      "resourceType": "QuestionnaireResponse",
      "id": "99583385-df33-4fe4-851c-41ba5553d067",
      "identifier": {
        "value": "60319"
      },
      "questionnaire": {
        "reference": "urn:uuid:ede2e733-ae22-47dd-83d2-6ede5ec14350"
      },
      "status": "completed",
      "subject": {
        "reference": "urn:uuid:8120b218-f906-4a1f-9069-39e41c4d533d"
      },
      "context": {
        "reference": "urn:uuid:17974a13-2044-4d68-ba57-d42376430eee"
      },
      "authored": "2021-04-06T15:19:34+00:00",
      "item": [ {
        "linkId": "Tx220957",
        "text": "Is this contact about a new or worsening illness?",
        "answer": [ {
          "valueString": "no"
        } ]
      } ]
    }
  }, {
    "fullUrl": "urn:uuid:ede2e733-ae22-47dd-83d2-6ede5ec14350",
    "resource": {
      "resourceType": "Questionnaire",
      "id": "ede2e733-ae22-47dd-83d2-6ede5ec14350",
      "identifier": [ {
        "value": "60319"
      } ],
      "version": "2021-04-06T15:19:34.083Z",
      "status": "active",
      "experimental": false,
      "date": "2021-04-06T15:19:34+00:00",
      "publisher": "User ID: 'HADFIELDR' User name: 'Ryan Hadfield' User skill set: 'T3'",
      "lastReviewDate": "2021-04-06",
      "contact": [ {
        "telecom": [ {
          "system": "phone",
          "value": "0111 111 1111"
        } ]
      } ],
      "subjectType": [ "Patient" ],
      "item": [ {
        "linkId": "60319",
        "prefix": "1400",
        "text": "Is this contact about a new or worsening illness?",
        "type": "choice",
        "required": true,
        "repeats": false,
        "option": [ {
          "valueString": "yes, Selected: false"
        }, {
          "valueString": "not sure, Selected: false"
        }, {
          "valueString": "no, Selected: true"
        } ]
      } ]
    }
  }, {
    "fullUrl": "urn:uuid:5668f8e0-f1b8-427b-bedd-7d0193500039",
    "resource": {
      "resourceType": "QuestionnaireResponse",
      "id": "5668f8e0-f1b8-427b-bedd-7d0193500039",
      "identifier": {
        "value": "60319"
      },
      "questionnaire": {
        "reference": "urn:uuid:2de5fb58-297e-4e84-8caa-acbd5b743319"
      },
      "status": "completed",
      "subject": {
        "reference": "urn:uuid:8120b218-f906-4a1f-9069-39e41c4d533d"
      },
      "context": {
        "reference": "urn:uuid:17974a13-2044-4d68-ba57-d42376430eee"
      },
      "authored": "2021-04-06T15:19:34+00:00",
      "item": [ {
        "linkId": "Tx221352",
        "text": "Have you got enough medication to last until the surgery opens?",
        "answer": [ {
          "valueString": "no"
        } ]
      } ]
    }
  }, {
    "fullUrl": "urn:uuid:2de5fb58-297e-4e84-8caa-acbd5b743319",
    "resource": {
      "resourceType": "Questionnaire",
      "id": "2de5fb58-297e-4e84-8caa-acbd5b743319",
      "identifier": [ {
        "value": "60319"
      } ],
      "version": "2021-04-06T15:19:34.083Z",
      "status": "active",
      "experimental": false,
      "date": "2021-04-06T15:19:34+00:00",
      "publisher": "User ID: 'HADFIELDR' User name: 'Ryan Hadfield' User skill set: 'T3'",
      "lastReviewDate": "2021-04-06",
      "contact": [ {
        "telecom": [ {
          "system": "phone",
          "value": "0111 111 1111"
        } ]
      } ],
      "subjectType": [ "Patient" ],
      "item": [ {
        "linkId": "60319",
        "prefix": "1500",
        "text": "Have you got enough medication to last until the surgery opens?",
        "type": "choice",
        "required": true,
        "repeats": false,
        "option": [ {
          "valueString": "yes, Selected: false"
        }, {
          "valueString": "not sure, Selected: false"
        }, {
          "valueString": "no, Selected: true"
        } ]
      } ]
    }
  }, {
    "fullUrl": "urn:uuid:82ca7d3d-17b8-4b0c-b488-387a9bf8bd55",
    "resource": {
      "resourceType": "QuestionnaireResponse",
      "id": "82ca7d3d-17b8-4b0c-b488-387a9bf8bd55",
      "identifier": {
        "value": "60319"
      },
      "questionnaire": {
        "reference": "urn:uuid:f60b03c8-c442-465b-ad8f-4deb84733e8e"
      },
      "status": "completed",
      "subject": {
        "reference": "urn:uuid:8120b218-f906-4a1f-9069-39e41c4d533d"
      },
      "context": {
        "reference": "urn:uuid:17974a13-2044-4d68-ba57-d42376430eee"
      },
      "authored": "2021-04-06T15:19:34+00:00"
    }
  }, {
    "fullUrl": "urn:uuid:f60b03c8-c442-465b-ad8f-4deb84733e8e",
    "resource": {
      "resourceType": "Questionnaire",
      "id": "f60b03c8-c442-465b-ad8f-4deb84733e8e",
      "identifier": [ {
        "value": "60319"
      } ],
      "version": "2021-04-06T15:19:34.083Z",
      "status": "active",
      "experimental": false,
      "date": "2021-04-06T15:19:34+00:00",
      "publisher": "User ID: 'HADFIELDR' User name: 'Ryan Hadfield' User skill set: 'T3'",
      "lastReviewDate": "2021-04-06",
      "contact": [ {
        "telecom": [ {
          "system": "phone",
          "value": "0111 111 1111"
        } ]
      } ],
      "subjectType": [ "Patient" ]
    }
  }, {
    "fullUrl": "urn:uuid:d87391c4-b968-4ea2-b31b-5ddc85a234b2",
    "resource": {
      "resourceType": "QuestionnaireResponse",
      "id": "d87391c4-b968-4ea2-b31b-5ddc85a234b2",
      "identifier": {
        "value": "60319"
      },
      "questionnaire": {
        "reference": "urn:uuid:3ec3199f-c968-4ac7-8163-9f68705d39b6"
      },
      "status": "completed",
      "subject": {
        "reference": "urn:uuid:8120b218-f906-4a1f-9069-39e41c4d533d"
      },
      "context": {
        "reference": "urn:uuid:17974a13-2044-4d68-ba57-d42376430eee"
      },
      "authored": "2021-04-06T15:19:34+00:00",
      "item": [ {
        "linkId": "Tx224231",
        "text": "FROM WHAT YOU HAVE HEARD IS A CONSULTATION WITH A PRESCRIBER NEEDED?",
        "answer": [ {
          "valueString": "no"
        } ]
      } ]
    }
  }, {
    "fullUrl": "urn:uuid:3ec3199f-c968-4ac7-8163-9f68705d39b6",
    "resource": {
      "resourceType": "Questionnaire",
      "id": "3ec3199f-c968-4ac7-8163-9f68705d39b6",
      "identifier": [ {
        "value": "60319"
      } ],
      "version": "2021-04-06T15:19:34.083Z",
      "status": "active",
      "experimental": false,
      "date": "2021-04-06T15:19:34+00:00",
      "publisher": "User ID: 'HADFIELDR' User name: 'Ryan Hadfield' User skill set: 'T3'",
      "lastReviewDate": "2021-04-06",
      "contact": [ {
        "telecom": [ {
          "system": "phone",
          "value": "0111 111 1111"
        } ]
      } ],
      "subjectType": [ "Patient" ],
      "item": [ {
        "linkId": "60319",
        "prefix": "0",
        "text": "FROM WHAT YOU HAVE HEARD IS A CONSULTATION WITH A PRESCRIBER NEEDED?",
        "type": "choice",
        "required": true,
        "repeats": false,
        "option": [ {
          "valueString": "yes, Selected: false"
        }, {
          "valueString": "not sure, Selected: false"
        }, {
          "valueString": "no, Selected: true"
        } ]
      } ]
    }
  }, {
    "fullUrl": "urn:uuid:7f13e8b2-d0d1-47c8-8ebe-2d397e706f7c",
    "resource": {
      "resourceType": "QuestionnaireResponse",
      "id": "7f13e8b2-d0d1-47c8-8ebe-2d397e706f7c",
      "identifier": {
        "value": "60319"
      },
      "questionnaire": {
        "reference": "urn:uuid:2a5ca3a9-8f24-4228-ae7b-0322a9420166"
      },
      "status": "completed",
      "subject": {
        "reference": "urn:uuid:8120b218-f906-4a1f-9069-39e41c4d533d"
      },
      "context": {
        "reference": "urn:uuid:17974a13-2044-4d68-ba57-d42376430eee"
      },
      "authored": "2021-04-06T15:19:34+00:00",
      "item": [ {
        "linkId": "Tx222687",
        "text": "Have you got any of the medication available at the moment?",
        "answer": [ {
          "valueString": "no"
        } ]
      } ]
    }
  }, {
    "fullUrl": "urn:uuid:2a5ca3a9-8f24-4228-ae7b-0322a9420166",
    "resource": {
      "resourceType": "Questionnaire",
      "id": "2a5ca3a9-8f24-4228-ae7b-0322a9420166",
      "identifier": [ {
        "value": "60319"
      } ],
      "version": "2021-04-06T15:19:34.083Z",
      "status": "active",
      "experimental": false,
      "date": "2021-04-06T15:19:34+00:00",
      "publisher": "User ID: 'HADFIELDR' User name: 'Ryan Hadfield' User skill set: 'T3'",
      "lastReviewDate": "2021-04-06",
      "contact": [ {
        "telecom": [ {
          "system": "phone",
          "value": "0111 111 1111"
        } ]
      } ],
      "subjectType": [ "Patient" ],
      "item": [ {
        "linkId": "60319",
        "prefix": "200",
        "text": "Have you got any of the medication available at the moment?",
        "type": "choice",
        "required": true,
        "repeats": false,
        "option": [ {
          "valueString": "yes, Selected: false"
        }, {
          "valueString": "not sure, Selected: false"
        }, {
          "valueString": "no, Selected: true"
        } ]
      } ]
    }
  }, {
    "fullUrl": "urn:uuid:65ec2bc3-6e34-4a21-ad35-a1dc1ca7e047",
    "resource": {
      "resourceType": "QuestionnaireResponse",
      "id": "65ec2bc3-6e34-4a21-ad35-a1dc1ca7e047",
      "identifier": {
        "value": "60319"
      },
      "questionnaire": {
        "reference": "urn:uuid:d4ff42d9-eccf-480f-a887-b3c2c0781fb3"
      },
      "status": "completed",
      "subject": {
        "reference": "urn:uuid:8120b218-f906-4a1f-9069-39e41c4d533d"
      },
      "context": {
        "reference": "urn:uuid:17974a13-2044-4d68-ba57-d42376430eee"
      },
      "authored": "2021-04-06T15:19:34+00:00",
      "item": [ {
        "linkId": "Tx221367",
        "text": "When is the next dose due?",
        "answer": [ {
          "valueString": "over 12 hours time"
        } ]
      } ]
    }
  }, {
    "fullUrl": "urn:uuid:d4ff42d9-eccf-480f-a887-b3c2c0781fb3",
    "resource": {
      "resourceType": "Questionnaire",
      "id": "d4ff42d9-eccf-480f-a887-b3c2c0781fb3",
      "identifier": [ {
        "value": "60319"
      } ],
      "version": "2021-04-06T15:19:34.083Z",
      "status": "active",
      "experimental": false,
      "date": "2021-04-06T15:19:34+00:00",
      "publisher": "User ID: 'HADFIELDR' User name: 'Ryan Hadfield' User skill set: 'T3'",
      "lastReviewDate": "2021-04-06",
      "contact": [ {
        "telecom": [ {
          "system": "phone",
          "value": "0111 111 1111"
        } ]
      } ],
      "subjectType": [ "Patient" ],
      "item": [ {
        "linkId": "60319",
        "prefix": "100",
        "text": "When is the next dose due?",
        "type": "choice",
        "required": true,
        "repeats": false,
        "option": [ {
          "valueString": "within the next 2 hours, Selected: false"
        }, {
          "valueString": "within the next 6 hours, Selected: false"
        }, {
          "valueString": "within the next 12 hours, Selected: false"
        }, {
          "valueString": "over 12 hours time, Selected: true"
        }, {
          "valueString": "not sure, Selected: false"
        } ]
      } ]
    }
  }, {
    "fullUrl": "urn:uuid:a9a24fae-7d24-4d89-b570-3271fb67b5bb",
    "resource": {
      "resourceType": "QuestionnaireResponse",
      "id": "a9a24fae-7d24-4d89-b570-3271fb67b5bb",
      "identifier": {
        "value": "60319"
      },
      "questionnaire": {
        "reference": "urn:uuid:908b3dbc-fd5b-4754-97f2-ac44ec672e3b"
      },
      "status": "completed",
      "subject": {
        "reference": "urn:uuid:8120b218-f906-4a1f-9069-39e41c4d533d"
      },
      "context": {
        "reference": "urn:uuid:17974a13-2044-4d68-ba57-d42376430eee"
      },
      "authored": "2021-04-06T15:19:34+00:00",
      "item": [ {
        "linkId": "Tx223441",
        "text": "STRING:SDPCRepeatPrescription",
        "answer": [ {
          "valueString": "\"PC repeat prescription\""
        } ]
      } ]
    }
  }, {
    "fullUrl": "urn:uuid:908b3dbc-fd5b-4754-97f2-ac44ec672e3b",
    "resource": {
      "resourceType": "Questionnaire",
      "id": "908b3dbc-fd5b-4754-97f2-ac44ec672e3b",
      "identifier": [ {
        "value": "60319"
      } ],
      "version": "2021-04-06T15:19:34.083Z",
      "status": "active",
      "experimental": false,
      "date": "2021-04-06T15:19:34+00:00",
      "publisher": "User ID: 'HADFIELDR' User name: 'Ryan Hadfield' User skill set: 'T3'",
      "lastReviewDate": "2021-04-06",
      "contact": [ {
        "telecom": [ {
          "system": "phone",
          "value": "0111 111 1111"
        } ]
      } ],
      "subjectType": [ "Patient" ],
      "item": [ {
        "linkId": "60319",
        "prefix": "1100",
        "text": "STRING:SDPCRepeatPrescription",
        "type": "choice",
        "required": true,
        "repeats": false,
        "option": [ {
          "valueString": "\"PC repeat prescription\", Selected: true"
        } ]
      } ]
    }
  }, {
    "fullUrl": "urn:uuid:f2d2c0a9-e183-4308-9d96-65ef75cb5c1c",
    "resource": {
      "resourceType": "QuestionnaireResponse",
      "id": "f2d2c0a9-e183-4308-9d96-65ef75cb5c1c",
      "identifier": {
        "value": "60319"
      },
      "questionnaire": {
        "reference": "urn:uuid:6fe59aef-fd49-4425-a3d9-8ec4c91ac2fe"
      },
      "status": "completed",
      "subject": {
        "reference": "urn:uuid:8120b218-f906-4a1f-9069-39e41c4d533d"
      },
      "context": {
        "reference": "urn:uuid:17974a13-2044-4d68-ba57-d42376430eee"
      },
      "authored": "2021-04-06T15:19:34+00:00"
    }
  }, {
    "fullUrl": "urn:uuid:6fe59aef-fd49-4425-a3d9-8ec4c91ac2fe",
    "resource": {
      "resourceType": "Questionnaire",
      "id": "6fe59aef-fd49-4425-a3d9-8ec4c91ac2fe",
      "identifier": [ {
        "value": "60319"
      } ],
      "version": "2021-04-06T15:19:34.083Z",
      "status": "active",
      "experimental": false,
      "date": "2021-04-06T15:19:34+00:00",
      "publisher": "User ID: 'HADFIELDR' User name: 'Ryan Hadfield' User skill set: 'T3'",
      "lastReviewDate": "2021-04-06",
      "contact": [ {
        "telecom": [ {
          "system": "phone",
          "value": "0111 111 1111"
        } ]
      } ],
      "subjectType": [ "Patient" ]
    }
  }, {
    "fullUrl": "urn:uuid:76856ce1-66ae-4559-a6f6-6d21ff055f4b",
    "resource": {
      "resourceType": "QuestionnaireResponse",
      "id": "76856ce1-66ae-4559-a6f6-6d21ff055f4b",
      "identifier": {
        "value": "60319"
      },
      "questionnaire": {
        "reference": "urn:uuid:24ee67b6-ee0c-4a8a-b87e-ef2aff0c5933"
      },
      "status": "completed",
      "subject": {
        "reference": "urn:uuid:8120b218-f906-4a1f-9069-39e41c4d533d"
      },
      "context": {
        "reference": "urn:uuid:17974a13-2044-4d68-ba57-d42376430eee"
      },
      "authored": "2021-04-06T15:19:34+00:00"
    }
  }, {
    "fullUrl": "urn:uuid:24ee67b6-ee0c-4a8a-b87e-ef2aff0c5933",
    "resource": {
      "resourceType": "Questionnaire",
      "id": "24ee67b6-ee0c-4a8a-b87e-ef2aff0c5933",
      "identifier": [ {
        "value": "60319"
      } ],
      "version": "2021-04-06T15:19:34.083Z",
      "status": "active",
      "experimental": false,
      "date": "2021-04-06T15:19:34+00:00",
      "publisher": "User ID: 'HADFIELDR' User name: 'Ryan Hadfield' User skill set: 'T3'",
      "lastReviewDate": "2021-04-06",
      "contact": [ {
        "telecom": [ {
          "system": "phone",
          "value": "0111 111 1111"
        } ]
      } ],
      "subjectType": [ "Patient" ]
    }
  }, {
    "fullUrl": "urn:uuid:3b2cc38a-cda4-4c85-b694-7bf6e28c04ef",
    "resource": {
      "resourceType": "PractitionerRole",
      "id": "3b2cc38a-cda4-4c85-b694-7bf6e28c04ef",
      "practitioner": {
        "reference": "urn:uuid:17e8da34-54c6-4dcf-b30d-6c93091c7f25"
      },
      "organization": {
        "reference": "urn:uuid:b3b35f5e-e168-4664-9730-eee2474c30c5"
      },
      "code": [ {
        "coding": [ {
          "system": "2.16.840.1.113883.2.1.3.2.4.17.339",
          "code": "DOCTOR",
          "display": "Doctor"
        } ]
      } ]
    }
  }, {
    "fullUrl": "urn:uuid:b3b35f5e-e168-4664-9730-eee2474c30c5",
    "resource": {
      "resourceType": "Organization",
      "id": "b3b35f5e-e168-4664-9730-eee2474c30c5",
      "identifier": [ {
        "value": "RYE"
      } ],
      "name": "RepresentedOrg Name"
    }
  }, {
    "fullUrl": "urn:uuid:28ac548b-dd59-4e0c-9dec-0986ec794ba8",
    "resource": {
      "resourceType": "PractitionerRole",
      "id": "28ac548b-dd59-4e0c-9dec-0986ec794ba8",
      "practitioner": {
        "reference": "urn:uuid:89d11c20-e3d6-47e6-aaf3-a8b81fb68025"
      },
      "organization": {
        "reference": "urn:uuid:85734d1d-8f55-4cfd-8949-903c307ee928"
      },
      "code": [ {
        "coding": [ {
          "system": "2.16.840.1.113883.2.1.3.2.4.17.196",
          "code": "R0010",
          "display": "Medical Director"
        } ]
      } ]
    }
  }, {
    "fullUrl": "urn:uuid:85734d1d-8f55-4cfd-8949-903c307ee928",
    "resource": {
      "resourceType": "Organization",
      "id": "85734d1d-8f55-4cfd-8949-903c307ee928",
      "identifier": [ {
        "value": "RYE"
      } ],
      "name": "RepresentedOrgNameRYE"
    }
  }, {
    "fullUrl": "urn:uuid:dd53327b-8d94-477c-ac1b-797bbfff25fc",
    "resource": {
      "resourceType": "RelatedPerson",
      "id": "dd53327b-8d94-477c-ac1b-797bbfff25fc",
      "patient": {
        "reference": "urn:uuid:8120b218-f906-4a1f-9069-39e41c4d533d"
      },
      "relationship": {
        "coding": [ {
          "system": "http://hl7.org/fhir/v2/0131",
          "code": "C",
          "display": "Emergency Contact"
        } ]
      },
      "telecom": [ {
        "system": "phone",
        "value": "tel:000000000000"
      } ]
    }
  }, {
    "fullUrl": "urn:uuid:6752a7cb-fb7f-4031-9467-b756814e19a1",
    "resource": {
      "resourceType": "Device",
      "id": "6752a7cb-fb7f-4031-9467-b756814e19a1",
      "model": "111 Adaptor",
      "version": "1.0.1"
    }
  }, {
    "fullUrl": "urn:uuid:3ff7ccad-f389-468b-9102-67be935db1f1",
    "resource": {
      "resourceType": "List",
      "id": "3ff7ccad-f389-468b-9102-67be935db1f1",
      "status": "current",
      "mode": "working",
      "title": "111 Report List",
      "code": {
        "coding": [ {
          "system": "http://snomed.info/sct",
          "code": "225390008",
          "display": "Triage"
        } ]
      },
      "subject": {
        "reference": "urn:uuid:8120b218-f906-4a1f-9069-39e41c4d533d"
      },
      "encounter": {
        "reference": "urn:uuid:17974a13-2044-4d68-ba57-d42376430eee"
      },
      "date": "2021-04-06T15:19:34+00:00",
      "source": {
        "reference": "urn:uuid:6752a7cb-fb7f-4031-9467-b756814e19a1"
      },
      "orderedBy": {
        "coding": [ {
          "system": "http://hl7.org/fhir/list-order",
          "code": "event-date",
          "display": "Sorted by Event Date"
        } ]
      },
      "entry": [ {
        "item": {
          "reference": "urn:uuid:85734d1d-8f55-4cfd-8949-903c307ee928"
        }
      }, {
        "item": {
          "reference": "urn:uuid:ce3394f9-8864-4d06-95f3-4fdfc8548aa4"
        }
      }, {
        "item": {
          "reference": "urn:uuid:71cb7006-3f6a-4e7a-b6c9-09a51a3dca48"
        }
      }, {
        "item": {
          "reference": "urn:uuid:b3b35f5e-e168-4664-9730-eee2474c30c5"
        }
      }, {
        "item": {
          "reference": "urn:uuid:17e8da34-54c6-4dcf-b30d-6c93091c7f25"
        }
      }, {
        "item": {
          "reference": "urn:uuid:89d11c20-e3d6-47e6-aaf3-a8b81fb68025"
        }
      }, {
        "item": {
          "reference": "urn:uuid:dfb236c4-fb53-464d-825b-d1d17208444f"
        }
      }, {
        "item": {
          "reference": "urn:uuid:e6e2e023-f041-4816-a07d-788032325b5d"
        }
      }, {
        "item": {
          "reference": "urn:uuid:dd53327b-8d94-477c-ac1b-797bbfff25fc"
        }
      }, {
        "item": {
          "reference": "urn:uuid:82ca7d3d-17b8-4b0c-b488-387a9bf8bd55"
        }
      }, {
        "item": {
          "reference": "urn:uuid:2de5fb58-297e-4e84-8caa-acbd5b743319"
        }
      }, {
        "item": {
          "reference": "urn:uuid:ede2e733-ae22-47dd-83d2-6ede5ec14350"
        }
      }, {
        "item": {
          "reference": "urn:uuid:5668f8e0-f1b8-427b-bedd-7d0193500039"
        }
      }, {
        "item": {
          "reference": "urn:uuid:7f13e8b2-d0d1-47c8-8ebe-2d397e706f7c"
        }
      }, {
        "item": {
          "reference": "urn:uuid:6fe59aef-fd49-4425-a3d9-8ec4c91ac2fe"
        }
      }, {
        "item": {
          "reference": "urn:uuid:908b3dbc-fd5b-4754-97f2-ac44ec672e3b"
        }
      }, {
        "item": {
          "reference": "urn:uuid:c6ecebcc-4259-45de-b0e9-ff728da05429"
        }
      }, {
        "item": {
          "reference": "urn:uuid:ec48a45e-f95f-4d08-9a99-dfdacf634219"
        }
      }, {
        "item": {
          "reference": "urn:uuid:c5f7d0b1-9355-457c-8e5e-2f79a8fea49f"
        }
      }, {
        "item": {
          "reference": "urn:uuid:3ec3199f-c968-4ac7-8163-9f68705d39b6"
        }
      }, {
        "item": {
          "reference": "urn:uuid:65ec2bc3-6e34-4a21-ad35-a1dc1ca7e047"
        }
      }, {
        "item": {
          "reference": "urn:uuid:78ff24e0-e358-4d52-b7c1-917d6865b340"
        }
      }, {
        "item": {
          "reference": "urn:uuid:3fefc63c-e97f-496a-94ec-2bc8b9e39c01"
        }
      }, {
        "item": {
          "reference": "urn:uuid:24ee67b6-ee0c-4a8a-b87e-ef2aff0c5933"
        }
      }, {
        "item": {
          "reference": "urn:uuid:99583385-df33-4fe4-851c-41ba5553d067"
        }
      }, {
        "item": {
          "reference": "urn:uuid:4eb480bf-e45d-457a-b27c-42b59acdb318"
        }
      }, {
        "item": {
          "reference": "urn:uuid:478aea0c-ff44-47a6-acbd-b6464ae682eb"
        }
      }, {
        "item": {
          "reference": "urn:uuid:f2d2c0a9-e183-4308-9d96-65ef75cb5c1c"
        }
      }, {
        "item": {
          "reference": "urn:uuid:2a5ca3a9-8f24-4228-ae7b-0322a9420166"
        }
      }, {
        "item": {
          "reference": "urn:uuid:f8d0bf3d-66a7-421a-837b-7a442f638128"
        }
      }, {
        "item": {
          "reference": "urn:uuid:15c69350-9fee-4a3b-93af-7293ad54a052"
        }
      }, {
        "item": {
          "reference": "urn:uuid:d4ff42d9-eccf-480f-a887-b3c2c0781fb3"
        }
      }, {
        "item": {
          "reference": "urn:uuid:f60b03c8-c442-465b-ad8f-4deb84733e8e"
        }
      }, {
        "item": {
          "reference": "urn:uuid:b56841a7-0502-436d-80c2-9a8d6e1da8ab"
        }
      }, {
        "item": {
          "reference": "urn:uuid:a6227b49-ae81-4036-8be7-7f78bf354390"
        }
      }, {
        "item": {
          "reference": "urn:uuid:a9a24fae-7d24-4d89-b570-3271fb67b5bb"
        }
      }, {
        "item": {
          "reference": "urn:uuid:76856ce1-66ae-4559-a6f6-6d21ff055f4b"
        }
      }, {
        "item": {
          "reference": "urn:uuid:c518939b-cf44-462b-85e0-43787de72c51"
        }
      }, {
        "item": {
          "reference": "urn:uuid:d87391c4-b968-4ea2-b31b-5ddc85a234b2"
        }
      }, {
        "item": {
          "reference": "urn:uuid:266135b5-6f47-4c35-8dd1-231c3602d680"
        }
      } ]
    }
  } ]
}