{
  "resourceType": "Bundle",
  "meta": {
    "lastUpdated": "2022-05-12T07:25:17.994+00:00"
  },
  "identifier": {
    "type": {
      "text": "ClinicalDocument VersionNumber"
    },
    "value": "1"
  },
  "type": "message",
  "entry": [ {
    "fullUrl": "urn:uuid:F7916D36-4D5F-4A64-BD08-644E8A234AE2",
    "resource": {
      "resourceType": "MessageHeader",
      "id": "F7916D36-4D5F-4A64-BD08-644E8A234AE2",
      "event": {
        "system": "https://fhir.nhs.uk/STU3/CodeSystem/EventType-1",
        "code": "referral-1",
        "display": "Referral"
      },
      "destination": [ {
        "endpoint": "urn:nhs-uk:addressing:ods:NVE06:DOSServiceID:1335970392"
      } ],
      "timestamp": "2021-05-13T17:24:56.000+00:00",
      "source": {
        "name": "NHS 111 Adaptor",
        "endpoint": "http://localhost:8080/report"
      },
      "reason": {
        "coding": [ {
          "system": "urn:nhs-itk:ns:201005:interaction",
          "code": "urn:nhs-itk:interaction:primaryOutofHourRecipientNHS111CDADocument-v2-0"
        } ]
      }
    }
  }, {
    "fullUrl": "urn:uuid:e68d77fa-130a-4f99-80c8-0232924061c2",
    "resource": {
      "resourceType": "Encounter",
      "id": "e68d77fa-130a-4f99-80c8-0232924061c2",
      "identifier": [ {
        "system": "2.16.840.1.113883.2.1.3.2.4.18.34",
        "value": "2DBAE50F-F88C-4572-9866-F94FE0F1F25A"
      }, {
        "system": "2.16.840.1.113883.2.1.3.2.4.18.35",
        "value": "2100310450"
      } ],
      "status": "finished",
      "type": [ {
        "text": "111 Encounter Referral"
      } ],
      "subject": {
        "reference": "urn:uuid:768f854e-6ce3-451e-82b9-28ba9e4e3df9"
      },
      "participant": [ {
        "type": [ {
          "coding": [ {
            "system": "http://hl7.org/fhir/ValueSet/encounter-participant-type",
            "code": "PPRF",
            "display": "Author"
          } ]
        } ],
        "individual": {
          "reference": "urn:uuid:e7457e1b-47d5-421f-ae7b-457a24ca988d"
        }
      }, {
        "type": [ {
          "text": "Informant"
        } ],
        "individual": {
          "reference": "urn:uuid:0e6c0846-1e00-4c6d-80e6-3eec68c2ab08"
        }
      } ],
      "period": {
        "start": "2021-05-13T16:47:24+00:00",
        "end": "2021-05-13T17:24:56+00:00"
      },
      "location": [ {
        "location": {
          "reference": "urn:uuid:a69fd9a8-1e5d-4626-9512-f6dcf26e868f"
        },
        "status": "active"
      }, {
        "location": {
          "reference": "urn:uuid:5a99032b-44da-4143-8ab2-fa871eb7114d"
        },
        "status": "completed"
      } ],
      "serviceProvider": {
        "reference": "urn:uuid:463b11e9-e8bb-4f46-80a5-7cba35cc2f6c"
      }
    }
  }, {
    "fullUrl": "urn:uuid:463b11e9-e8bb-4f46-80a5-7cba35cc2f6c",
    "resource": {
      "resourceType": "Organization",
      "id": "463b11e9-e8bb-4f46-80a5-7cba35cc2f6c",
      "active": true,
      "type": [ {
        "text": "CST"
      } ],
      "name": "Norfolk and Wisbech 111"
    }
  }, {
    "fullUrl": "urn:uuid:e7457e1b-47d5-421f-ae7b-457a24ca988d",
    "resource": {
      "resourceType": "Practitioner",
      "id": "e7457e1b-47d5-421f-ae7b-457a24ca988d",
      "active": true,
      "name": [ {
        "text": "Ben Smythson"
      } ]
    }
  }, {
    "fullUrl": "urn:uuid:0e6c0846-1e00-4c6d-80e6-3eec68c2ab08",
    "resource": {
      "resourceType": "RelatedPerson",
      "id": "0e6c0846-1e00-4c6d-80e6-3eec68c2ab08",
      "active": true,
      "patient": {
        "reference": "urn:uuid:768f854e-6ce3-451e-82b9-28ba9e4e3df9"
      },
      "relationship": {
        "coding": [ {
          "system": "2.16.840.1.113883.2.1.3.2.4.16.45",
          "code": "21",
          "display": "Self"
        }, {
          "system": "http://hl7.org/fhir/v2/0131",
          "code": "C",
          "display": "Emergency Contact"
        } ]
      },
      "name": [ {
        "text": "Test Call Dx10 TEST CALL DX10"
      } ],
      "telecom": [ {
        "system": "phone",
        "value": "tel:01233123123"
      } ],
      "gender": "unknown"
    }
  }, {
    "fullUrl": "urn:uuid:a69fd9a8-1e5d-4626-9512-f6dcf26e868f",
    "resource": {
      "resourceType": "Location",
      "id": "a69fd9a8-1e5d-4626-9512-f6dcf26e868f",
      "managingOrganization": {
        "reference": "urn:uuid:bf5f7765-662f-4cb7-b70f-af2f65064cff"
      }
    }
  }, {
    "fullUrl": "urn:uuid:bf5f7765-662f-4cb7-b70f-af2f65064cff",
    "resource": {
      "resourceType": "Organization",
      "id": "bf5f7765-662f-4cb7-b70f-af2f65064cff",
      "identifier": [ {
        "value": "Z10000"
      } ],
      "type": [ {
        "text": "GP Practice"
      } ],
      "name": "UNKNOWN"
    }
  }, {
    "fullUrl": "urn:uuid:5a99032b-44da-4143-8ab2-fa871eb7114d",
    "resource": {
      "resourceType": "Location",
      "id": "5a99032b-44da-4143-8ab2-fa871eb7114d",
      "address": {
        "type": "physical",
        "line": [ "313 VICTORIA ROAD", "LOWESTOFT" ],
        "postalCode": "NR33 9LS"
      }
    }
  }, {
    "fullUrl": "urn:uuid:768f854e-6ce3-451e-82b9-28ba9e4e3df9",
    "resource": {
      "resourceType": "Patient",
      "id": "768f854e-6ce3-451e-82b9-28ba9e4e3df9",
      "language": "en",
      "active": true,
      "name": [ {
        "use": "official",
        "family": "TEST CALL DX10",
        "given": [ "Test Call Dx10" ]
      } ],
      "telecom": [ {
        "system": "phone",
        "value": "tel:01233123123"
      } ],
      "gender": "male",
      "birthDate": "1996-03-25",
      "address": [ {
        "use": "home",
        "line": [ "313 VICTORIA ROAD", "LOWESTOFT" ],
        "postalCode": "NR33 9LS"
      }, {
        "type": "physical",
        "line": [ "313 VICTORIA ROAD", "LOWESTOFT" ],
        "postalCode": "NR33 9LS"
      } ],
      "generalPractitioner": [ {
        "reference": "urn:uuid:27b305a4-4a9b-4314-a27d-0b85de68abf0"
      } ]
    }
  }, {
    "fullUrl": "urn:uuid:27b305a4-4a9b-4314-a27d-0b85de68abf0",
    "resource": {
      "resourceType": "Organization",
      "id": "27b305a4-4a9b-4314-a27d-0b85de68abf0",
      "identifier": [ {
        "value": "Z10000"
      } ],
      "type": [ {
        "text": "GP Practice"
      } ],
      "name": "UNKNOWN"
    }
  }, {
    "fullUrl": "urn:uuid:a39b103e-85fd-4940-b3d8-d0983554cbf1",
    "resource": {
      "resourceType": "HealthcareService",
      "id": "a39b103e-85fd-4940-b3d8-d0983554cbf1",
      "active": true,
      "providedBy": {
        "reference": "urn:uuid:7c7db6a0-157b-496e-b2ac-64bc39e77db8"
      },
      "location": [ {
        "reference": "urn:uuid:8bafcca7-b332-4330-8bee-f85a87c7fae6"
      } ],
      "name": "Out of Hours GP Service (Waveney) - Kirkley Mill Health Centre, Lowestoft"
    }
  }, {
    "fullUrl": "urn:uuid:8bafcca7-b332-4330-8bee-f85a87c7fae6",
    "resource": {
      "resourceType": "Location",
      "id": "8bafcca7-b332-4330-8bee-f85a87c7fae6",
      "managingOrganization": {
        "reference": "urn:uuid:7c7db6a0-157b-496e-b2ac-64bc39e77db8"
      }
    }
  }, {
    "fullUrl": "urn:uuid:7c7db6a0-157b-496e-b2ac-64bc39e77db8",
    "resource": {
      "resourceType": "Organization",
      "id": "7c7db6a0-157b-496e-b2ac-64bc39e77db8",
      "identifier": [ {
        "value": "NVE06"
      } ],
      "type": [ {
        "coding": [ {
          "code": "PRCP",
          "display": "Out of Hours GP Service (Waveney) - Kirkley Mill Health Centre, Lowestoft"
        } ]
      } ],
      "name": "Out of Hours GP Service (Waveney) - Kirkley Mill Health Centre, Lowestoft"
    }
  }, {
    "fullUrl": "urn:uuid:cc037e33-ebe8-4a25-98b3-8b803e2641e3",
    "resource": {
      "resourceType": "ReferralRequest",
      "id": "cc037e33-ebe8-4a25-98b3-8b803e2641e3",
      "status": "active",
      "intent": "plan",
      "priority": "routine",
      "subject": {
        "reference": "urn:uuid:768f854e-6ce3-451e-82b9-28ba9e4e3df9"
      },
      "context": {
        "reference": "urn:uuid:e68d77fa-130a-4f99-80c8-0232924061c2"
      },
      "occurrencePeriod": {
        "start": "2021-05-13T17:24:56+00:00"
      },
      "authoredOn": "2021-05-13T17:24:56+00:00",
      "requester": {
        "agent": {
          "reference": "urn:uuid:c88164f9-8f9c-4aaa-bb0e-73d13e4120b1"
        },
        "onBehalfOf": {
          "reference": "urn:uuid:463b11e9-e8bb-4f46-80a5-7cba35cc2f6c"
        }
      },
      "recipient": [ {
        "reference": "urn:uuid:871dc54b-4f71-4c3b-9013-764e03e7a2a0"
      }, {
        "reference": "urn:uuid:a39b103e-85fd-4940-b3d8-d0983554cbf1"
      } ],
      "reasonReference": [ {
        "reference": "urn:uuid:cc388f6a-0b3c-4578-b73b-33d658559180"
      } ],
      "supportingInfo": [ {
        "reference": "urn:uuid:b00c3124-10f1-4f3b-9909-5dd8aba52d7d"
      } ]
    }
  }, {
    "fullUrl": "urn:uuid:b00c3124-10f1-4f3b-9909-5dd8aba52d7d",
    "resource": {
      "resourceType": "ProcedureRequest",
      "id": "b00c3124-10f1-4f3b-9909-5dd8aba52d7d",
      "status": "active",
      "intent": "plan",
      "priority": "routine",
      "doNotPerform": false,
      "code": {
        "coding": [ {
          "system": "2.16.840.1.113883.2.1.3.2.4.17.325",
          "code": "Dx10",
          "display": "MUST contact a local service for a Non-Urgent Appointment"
        } ]
      },
      "subject": {
        "reference": "urn:uuid:768f854e-6ce3-451e-82b9-28ba9e4e3df9"
      },
      "occurrencePeriod": {
        "start": "2021-05-13T17:24:56+00:00"
      },
      "reasonReference": [ {
        "reference": "urn:uuid:cc388f6a-0b3c-4578-b73b-33d658559180"
      } ]
    }
  }, {
    "fullUrl": "urn:uuid:871dc54b-4f71-4c3b-9013-764e03e7a2a0",
    "resource": {
      "resourceType": "Practitioner",
      "id": "871dc54b-4f71-4c3b-9013-764e03e7a2a0",
      "active": true,
      "telecom": [ {
        "system": "phone",
        "value": "tel:01233505450"
      } ],
      "address": [ {
        "type": "physical",
        "line": [ "Kingston House", "The Long Barrow", "Orbital Park", "Ashford", "Kent" ],
        "postalCode": "TN24 0GP"
      } ]
    }
  }, {
    "fullUrl": "urn:uuid:5e0fe1a6-7cdc-455e-ae65-5dd22efccf36",
    "resource": {
      "resourceType": "Composition",
      "id": "5e0fe1a6-7cdc-455e-ae65-5dd22efccf36",
      "identifier": {
        "use": "usual",
        "value": "895062D0-60A8-4EB4-9017-5F489D53694D"
      },
      "status": "final",
      "type": {
        "coding": [ {
          "system": "http://snomed.info/sct",
          "code": "371531000",
          "display": "Report of clinical encounter (record artifact)"
        } ]
      },
      "subject": {
        "reference": "urn:uuid:768f854e-6ce3-451e-82b9-28ba9e4e3df9"
      },
      "encounter": {
        "reference": "urn:uuid:e68d77fa-130a-4f99-80c8-0232924061c2"
      },
      "date": "2021-05-13T17:24:56+00:00",
      "author": [ {
        "reference": "urn:uuid:e7457e1b-47d5-421f-ae7b-457a24ca988d"
      } ],
      "title": "111 Report",
      "confidentiality": "R",
      "section": [ {
        "section": [ {
          "title": "Patient's Reported Condition",
          "text": {
            "status": "generated",
            "div": "<div xmlns=\"http://www.w3.org/1999/xhtml\">&lt;content&gt;&amp;lt;CLEO Ref: 2100310450&amp;gt; Test Call &lt;br/&gt;\n                                                    &lt;/content&gt;</div>"
          }
        }, {
          "title": "Pathways Disposition",
          "text": {
            "status": "generated",
            "div": "<div xmlns=\"http://www.w3.org/1999/xhtml\">&lt;content&gt;If a pharmacy service is not available contact the GP practice during normal working hours. (Dx10)&lt;/content&gt;\n                                                    &lt;br/&gt;\n                                                    &lt;br/&gt;\n                                                    &lt;content&gt;Selected Service: 1335970392, Out of Hours GP Service (Waveney) - Kirkley Mill Health Centre, Lowestoft, 111&lt;/content&gt;\n                                                    &lt;br/&gt;</div>"
          }
        }, {
          "title": "Consultation Summary",
          "text": {
            "status": "generated",
            "div": "<div xmlns=\"http://www.w3.org/1999/xhtml\">&lt;content&gt;\n                                                        &lt;content&gt;Worst acne feature, blackheads or whiteheads&lt;/content&gt;\n                                                        &lt;br/&gt;\n                                                        &lt;content&gt;Acne&lt;/content&gt;\n                                                        &lt;br/&gt;\n                                                        &lt;content&gt;Warm to touch&lt;/content&gt;\n                                                        &lt;br/&gt;\n                                                        &lt;content&gt;Illness - test&lt;/content&gt;\n                                                        &lt;br/&gt;\n                                                    &lt;/content&gt;</div>"
          }
        }, {
          "title": "Pathways Assessment",
          "text": {
            "status": "generated",
            "div": "<div xmlns=\"http://www.w3.org/1999/xhtml\">&lt;content&gt;An injury or health problem was the reason for the contact.&lt;/content&gt;\n                                                    &lt;br/&gt;\n                                                    &lt;content&gt;Heavy bleeding had not occurred in the previous 2 hours.&lt;/content&gt;\n                                                    &lt;br/&gt;\n                                                    &lt;content&gt;An illness or health problem was the main problem. - test&lt;/content&gt;\n                                                    &lt;br/&gt;\n                                                    &lt;content&gt;The individual was not fighting for breath.&lt;/content&gt;\n                                                    &lt;br/&gt;\n                                                    &lt;content&gt;The main reason for the assessment was not an allergic reaction, heart attack, chest/upper back pain, probable stroke, recent fit/seizure or suicide attempt.&lt;/content&gt;\n                                                    &lt;br/&gt;\n                                                    &lt;content&gt;The main reason for contact was not new confusion, declared diabetic hypo/hyperglycaemia, or ICD shock.&lt;/content&gt;\n                                                    &lt;br/&gt;\n                                                    &lt;content&gt;The skin on the torso felt normal, warm or hot.&lt;/content&gt;\n                                                    &lt;br/&gt;\n                                                    &lt;content&gt;The main problem was not a rash, itch, jaundice, skin lumps or abnormal bruising.&lt;/content&gt;\n                                                    &lt;br/&gt;\n                                                    &lt;content&gt;The main problem was acne, spots or pimples.&lt;/content&gt;\n                                                    &lt;br/&gt;\n                                                    &lt;content&gt;The worst problem with the acne was blackheads or white heads.&lt;/content&gt;\n                                                    &lt;br/&gt;\n                                                    &lt;content&gt;The problem had not persisted for 3 months or got worse over that time.&lt;/content&gt;\n                                                    &lt;br/&gt;</div>"
          }
        }, {
          "title": "Advice Given",
          "text": {
            "status": "generated",
            "div": "<div xmlns=\"http://www.w3.org/1999/xhtml\">&lt;content&gt;Speak to a pharmacist for advice on suitable treatment.&lt;/content&gt;\n                                                    &lt;br/&gt;\n                                                    &lt;content&gt;If there are any new symptoms, or if the condition gets worse, changes or you have any other concerns, call us back.&lt;/content&gt;\n                                                    &lt;br/&gt;</div>"
          }
        }, {
          "title": "SCR Consent",
          "text": {
            "status": "generated",
            "div": "<div xmlns=\"http://www.w3.org/1999/xhtml\">&lt;content&gt;Consent given for SCR sharing&lt;br/&gt;\n                                                        &lt;br/&gt;\n                                                    &lt;/content&gt;</div>"
          }
        } ]
      }, {
        "title": "ReferralRequest",
        "entry": [ {
          "reference": "urn:uuid:cc037e33-ebe8-4a25-98b3-8b803e2641e3"
        } ]
      } ]
    }
  }, {
    "fullUrl": "urn:uuid:1f51e0ca-c1d6-4437-a082-c9aaac3a6347",
    "resource": {
      "resourceType": "Consent",
      "id": "1f51e0ca-c1d6-4437-a082-c9aaac3a6347",
      "identifier": {
        "use": "usual",
        "value": "895062D0-60A8-4EB4-9017-5F489D53694D"
      },
      "status": "active",
      "patient": {
        "reference": "urn:uuid:768f854e-6ce3-451e-82b9-28ba9e4e3df9"
      },
      "period": {
        "start": "2021-05-13T16:47:24+00:00",
        "end": "2021-05-13T17:24:56+00:00"
      },
      "consentingParty": [ {
        "reference": "urn:uuid:768f854e-6ce3-451e-82b9-28ba9e4e3df9"
      } ],
      "action": [ {
        "coding": [ {
          "system": "http://snomed.info/sct",
          "code": "425691002",
          "display": "Consent given for electronic record sharing"
        } ],
        "text": "Consent given for electronic record sharing"
      } ],
      "organization": [ {
        "reference": "urn:uuid:463b11e9-e8bb-4f46-80a5-7cba35cc2f6c"
      } ],
      "policyRule": "http://hl7.org/fhir/ConsentPolicy/opt-out",
      "data": [ {
        "meaning": "related",
        "reference": {
          "reference": "urn:uuid:e68d77fa-130a-4f99-80c8-0232924061c2"
        }
      } ]
    }
  }, {
    "fullUrl": "urn:uuid:cc388f6a-0b3c-4578-b73b-33d658559180",
    "resource": {
      "resourceType": "Condition",
      "id": "cc388f6a-0b3c-4578-b73b-33d658559180",
      "clinicalStatus": "active",
      "verificationStatus": "unknown",
      "subject": {
        "reference": "urn:uuid:768f854e-6ce3-451e-82b9-28ba9e4e3df9"
      },
      "context": {
        "reference": "urn:uuid:e68d77fa-130a-4f99-80c8-0232924061c2"
      }
    }
  }, {
    "fullUrl": "urn:uuid:c10b9993-2caa-4cc3-8220-4bd3a8b52f7a",
    "resource": {
      "resourceType": "Observation",
      "id": "c10b9993-2caa-4cc3-8220-4bd3a8b52f7a",
      "status": "final",
      "code": {
        "coding": [ {
          "system": "http://snomed.info/sct",
          "code": "33962009",
          "display": "Presenting complaint"
        } ]
      },
      "subject": {
        "reference": "urn:uuid:768f854e-6ce3-451e-82b9-28ba9e4e3df9"
      },
      "context": {
        "reference": "urn:uuid:e68d77fa-130a-4f99-80c8-0232924061c2"
      },
      "valueString": "<CLEO Ref: 2100310450> Test Call "
    }
  }, {
    "fullUrl": "urn:uuid:882ad2bc-b8a8-4805-957d-df73ccebf22f",
    "resource": {
      "resourceType": "PractitionerRole",
      "id": "882ad2bc-b8a8-4805-957d-df73ccebf22f",
      "practitioner": {
        "reference": "urn:uuid:e7457e1b-47d5-421f-ae7b-457a24ca988d"
      },
      "organization": {
        "reference": "urn:uuid:b7fb5f0d-5d3f-4fbd-a441-1264f6a9012b"
      },
      "code": [ {
        "coding": [ {
          "system": "2.16.840.1.113883.2.1.3.2.4.17.196",
          "code": "NR1690",
          "display": "Call Operator"
        } ]
      } ]
    }
  }, {
    "fullUrl": "urn:uuid:b7fb5f0d-5d3f-4fbd-a441-1264f6a9012b",
    "resource": {
      "resourceType": "Organization",
      "id": "b7fb5f0d-5d3f-4fbd-a441-1264f6a9012b",
      "identifier": [ {
        "value": "NTN08"
      } ],
      "name": "Norfolk and Wisbech 111"
    }
  }, {
    "fullUrl": "urn:uuid:b3b18d2e-02f4-4d68-8509-1e7e2ac51aed",
    "resource": {
      "resourceType": "RelatedPerson",
      "id": "b3b18d2e-02f4-4d68-8509-1e7e2ac51aed",
      "patient": {
        "reference": "urn:uuid:768f854e-6ce3-451e-82b9-28ba9e4e3df9"
      },
      "relationship": {
        "coding": [ {
          "system": "http://hl7.org/fhir/v2/0131",
          "code": "C",
          "display": "Emergency Contact"
        } ]
      },
      "telecom": [ {
        "system": "phone",
        "value": "tel:01233123123"
      } ]
    }
  }, {
    "fullUrl": "urn:uuid:c88164f9-8f9c-4aaa-bb0e-73d13e4120b1",
    "resource": {
      "resourceType": "Device",
      "id": "c88164f9-8f9c-4aaa-bb0e-73d13e4120b1",
      "model": "111 Adaptor",
      "version": "1.0.3"
    }
  }, {
    "fullUrl": "urn:uuid:81d5080b-7a2a-40c2-85c2-0fc66a1c098f",
    "resource": {
      "resourceType": "List",
      "id": "81d5080b-7a2a-40c2-85c2-0fc66a1c098f",
      "status": "current",
      "mode": "working",
      "title": "111 Report List",
      "code": {
        "coding": [ {
          "system": "http://snomed.info/sct",
          "code": "225390008",
          "display": "Triage"
        } ]
      },
      "subject": {
        "reference": "urn:uuid:768f854e-6ce3-451e-82b9-28ba9e4e3df9"
      },
      "encounter": {
        "reference": "urn:uuid:e68d77fa-130a-4f99-80c8-0232924061c2"
      },
      "date": "2021-05-13T17:24:56+00:00",
      "source": {
        "reference": "urn:uuid:c88164f9-8f9c-4aaa-bb0e-73d13e4120b1"
      },
      "orderedBy": {
        "coding": [ {
          "system": "http://hl7.org/fhir/list-order",
          "code": "event-date",
          "display": "Sorted by Event Date"
        } ]
      },
      "entry": [ {
        "item": {
          "reference": "urn:uuid:b3b18d2e-02f4-4d68-8509-1e7e2ac51aed"
        }
      }, {
        "item": {
          "reference": "urn:uuid:cc388f6a-0b3c-4578-b73b-33d658559180"
        }
      }, {
        "item": {
          "reference": "urn:uuid:871dc54b-4f71-4c3b-9013-764e03e7a2a0"
        }
      }, {
        "item": {
          "reference": "urn:uuid:27b305a4-4a9b-4314-a27d-0b85de68abf0"
        }
      }, {
        "item": {
          "reference": "urn:uuid:c10b9993-2caa-4cc3-8220-4bd3a8b52f7a"
        }
      }, {
        "item": {
          "reference": "urn:uuid:e7457e1b-47d5-421f-ae7b-457a24ca988d"
        }
      }, {
        "item": {
          "reference": "urn:uuid:0e6c0846-1e00-4c6d-80e6-3eec68c2ab08"
        }
      }, {
        "item": {
          "reference": "urn:uuid:bf5f7765-662f-4cb7-b70f-af2f65064cff"
        }
      }, {
        "item": {
          "reference": "urn:uuid:7c7db6a0-157b-496e-b2ac-64bc39e77db8"
        }
      }, {
        "item": {
          "reference": "urn:uuid:463b11e9-e8bb-4f46-80a5-7cba35cc2f6c"
        }
      }, {
        "item": {
          "reference": "urn:uuid:b7fb5f0d-5d3f-4fbd-a441-1264f6a9012b"
        }
      }, {
        "item": {
          "reference": "urn:uuid:cc037e33-ebe8-4a25-98b3-8b803e2641e3"
        }
      } ]
    }
  } ]
}