{
  "resourceType": "Bundle",
  "identifier": {
    "type": {
      "text": "ClinicalDocument VersionNumber"
    },
    "value": "1"
  },
  "type": "message",
  "entry": [ {
    "fullUrl": "urn:uuid:F7916D36-4D5F-4A64-BD08-644E8A234AE2",
    "resource": {
      "resourceType": "MessageHeader",
      "id": "F7916D36-4D5F-4A64-BD08-644E8A234AE2",
      "event": {
        "system": "https://fhir.nhs.uk/STU3/CodeSystem/EventType-1",
        "code": "referral-1",
        "display": "Referral"
      },
      "destination": [ {
        "endpoint": "urn:nhs-uk:addressing:ods:NVE06:DOSServiceID:1335970392"
      } ],
      "timestamp": "2021-05-13T17:24:56.000+00:00",
      "source": {
        "name": "NHS 111 Adaptor",
        "endpoint": "http://localhost:8080/report"
      },
      "reason": {
        "coding": [ {
          "system": "urn:nhs-itk:ns:201005:interaction",
          "code": "urn:nhs-itk:interaction:primaryOutofHourRecipientNHS111CDADocument-v2-0"
        } ]
      }
    },
    "response": {
      "status": "success",
      "lastModified": "2022-05-09T13:25:19.732+00:00"
    }
  }, {
    "fullUrl": "urn:uuid:55fb316d-0e1c-42fc-8815-b3a68ed3df5f",
    "resource": {
      "resourceType": "Encounter",
      "id": "55fb316d-0e1c-42fc-8815-b3a68ed3df5f",
      "identifier": [ {
        "system": "2.16.840.1.113883.2.1.3.2.4.18.34",
        "value": "2DBAE50F-F88C-4572-9866-F94FE0F1F25A"
      }, {
        "system": "2.16.840.1.113883.2.1.3.2.4.18.35",
        "value": "2100310450"
      } ],
      "status": "finished",
      "type": [ {
        "text": "111 Encounter Referral"
      } ],
      "subject": {
        "reference": "urn:uuid:d21b52f8-b586-4d68-84be-9309b82fa5fd"
      },
      "participant": [ {
        "type": [ {
          "coding": [ {
            "system": "http://hl7.org/fhir/ValueSet/encounter-participant-type",
            "code": "PPRF",
            "display": "Author"
          } ]
        } ],
        "individual": {
          "reference": "urn:uuid:3ab6e6eb-8836-43e9-ab3b-a3709c278dae"
        }
      }, {
        "type": [ {
          "text": "Informant"
        } ],
        "individual": {
          "reference": "urn:uuid:729931c0-a8a5-4b53-ad12-a62ab77b7a70"
        }
      } ],
      "period": {
        "start": "2021-05-13T16:47:24+00:00",
        "end": "2021-05-13T17:24:56+00:00"
      },
      "location": [ {
        "location": {
          "reference": "urn:uuid:4c054770-3285-4562-a81b-96da5c0f7aec"
        },
        "status": "active"
      }, {
        "location": {
          "reference": "urn:uuid:51fcd032-64a2-464b-b2e3-344c48eb85e4"
        },
        "status": "completed"
      } ],
      "serviceProvider": {
        "reference": "urn:uuid:32008c30-e438-49b2-8919-545bdb3fe43b"
      }
    }
  }, {
    "fullUrl": "urn:uuid:32008c30-e438-49b2-8919-545bdb3fe43b",
    "resource": {
      "resourceType": "Organization",
      "id": "32008c30-e438-49b2-8919-545bdb3fe43b",
      "active": true,
      "type": [ {
        "text": "CST"
      } ],
      "name": "Norfolk and Wisbech 111"
    }
  }, {
    "fullUrl": "urn:uuid:3ab6e6eb-8836-43e9-ab3b-a3709c278dae",
    "resource": {
      "resourceType": "Practitioner",
      "id": "3ab6e6eb-8836-43e9-ab3b-a3709c278dae",
      "active": true,
      "name": [ {
        "text": "Ben Smythson"
      } ]
    }
  }, {
    "fullUrl": "urn:uuid:729931c0-a8a5-4b53-ad12-a62ab77b7a70",
    "resource": {
      "resourceType": "RelatedPerson",
      "id": "729931c0-a8a5-4b53-ad12-a62ab77b7a70",
      "active": true,
      "patient": {
        "reference": "urn:uuid:d21b52f8-b586-4d68-84be-9309b82fa5fd"
      },
      "relationship": {
        "coding": [ {
          "system": "2.16.840.1.113883.2.1.3.2.4.16.45",
          "code": "21",
          "display": "Self"
        }, {
          "system": "http://hl7.org/fhir/v2/0131",
          "code": "C",
          "display": "Emergency Contact"
        } ]
      },
      "name": [ {
        "text": "Test Call Dx10 TEST CALL DX10"
      } ],
      "telecom": [ {
        "system": "phone",
        "value": "tel:01233123123"
      } ],
      "gender": "unknown"
    }
  }, {
    "fullUrl": "urn:uuid:4c054770-3285-4562-a81b-96da5c0f7aec",
    "resource": {
      "resourceType": "Location",
      "id": "4c054770-3285-4562-a81b-96da5c0f7aec",
      "managingOrganization": {
        "reference": "urn:uuid:85db61ea-c854-495f-ac04-6c0d74783d6d"
      }
    }
  }, {
    "fullUrl": "urn:uuid:85db61ea-c854-495f-ac04-6c0d74783d6d",
    "resource": {
      "resourceType": "Organization",
      "id": "85db61ea-c854-495f-ac04-6c0d74783d6d",
      "identifier": [ {
        "value": "Z10000"
      } ],
      "type": [ {
        "text": "GP Practice"
      } ],
      "name": "UNKNOWN"
    }
  }, {
    "fullUrl": "urn:uuid:51fcd032-64a2-464b-b2e3-344c48eb85e4",
    "resource": {
      "resourceType": "Location",
      "id": "51fcd032-64a2-464b-b2e3-344c48eb85e4",
      "address": {
        "type": "physical",
        "line": [ "313 VICTORIA ROAD", "LOWESTOFT" ],
        "postalCode": "NR33 9LS"
      }
    }
  }, {
    "fullUrl": "urn:uuid:d21b52f8-b586-4d68-84be-9309b82fa5fd",
    "resource": {
      "resourceType": "Patient",
      "id": "d21b52f8-b586-4d68-84be-9309b82fa5fd",
      "language": "en",
      "active": true,
      "name": [ {
        "use": "official",
        "family": "TEST CALL DX10",
        "given": [ "Test Call Dx10" ]
      } ],
      "telecom": [ {
        "system": "phone",
        "value": "tel:01233123123"
      } ],
      "gender": "male",
      "birthDate": "1996-03-25",
      "address": [ {
        "use": "home",
        "line": [ "313 VICTORIA ROAD", "LOWESTOFT" ],
        "postalCode": "NR33 9LS"
      }, {
        "type": "physical",
        "line": [ "313 VICTORIA ROAD", "LOWESTOFT" ],
        "postalCode": "NR33 9LS"
      } ],
      "generalPractitioner": [ {
        "reference": "urn:uuid:2a5657f2-3dca-47bc-8648-d81d5035c775"
      } ]
    }
  }, {
    "fullUrl": "urn:uuid:2a5657f2-3dca-47bc-8648-d81d5035c775",
    "resource": {
      "resourceType": "Organization",
      "id": "2a5657f2-3dca-47bc-8648-d81d5035c775",
      "identifier": [ {
        "value": "Z10000"
      } ],
      "type": [ {
        "text": "GP Practice"
      } ],
      "name": "UNKNOWN"
    }
  }, {
    "fullUrl": "urn:uuid:79b7bd8b-627c-4a8c-ab4c-f9362c5cbe4b",
    "resource": {
      "resourceType": "HealthcareService",
      "id": "79b7bd8b-627c-4a8c-ab4c-f9362c5cbe4b",
      "active": true,
      "providedBy": {
        "reference": "urn:uuid:e449ebcf-ae56-42a6-a5ad-0570b29c7717"
      },
      "location": [ {
        "reference": "urn:uuid:d3442572-1cad-4036-a75b-b89ca9f78c9e"
      } ],
      "name": "Out of Hours GP Service (Waveney) - Kirkley Mill Health Centre, Lowestoft"
    }
  }, {
    "fullUrl": "urn:uuid:d3442572-1cad-4036-a75b-b89ca9f78c9e",
    "resource": {
      "resourceType": "Location",
      "id": "d3442572-1cad-4036-a75b-b89ca9f78c9e",
      "managingOrganization": {
        "reference": "urn:uuid:e449ebcf-ae56-42a6-a5ad-0570b29c7717"
      }
    }
  }, {
    "fullUrl": "urn:uuid:e449ebcf-ae56-42a6-a5ad-0570b29c7717",
    "resource": {
      "resourceType": "Organization",
      "id": "e449ebcf-ae56-42a6-a5ad-0570b29c7717",
      "identifier": [ {
        "value": "NVE06"
      } ],
      "type": [ {
        "coding": [ {
          "code": "PRCP",
          "display": "Out of Hours GP Service (Waveney) - Kirkley Mill Health Centre, Lowestoft"
        } ]
      } ],
      "name": "Out of Hours GP Service (Waveney) - Kirkley Mill Health Centre, Lowestoft"
    }
  }, {
    "fullUrl": "urn:uuid:186cf98c-3239-4177-9a2c-78b817e1e5d1",
    "resource": {
      "resourceType": "ReferralRequest",
      "id": "186cf98c-3239-4177-9a2c-78b817e1e5d1",
      "status": "active",
      "intent": "plan",
      "priority": "routine",
      "subject": {
        "reference": "urn:uuid:d21b52f8-b586-4d68-84be-9309b82fa5fd"
      },
      "context": {
        "reference": "urn:uuid:55fb316d-0e1c-42fc-8815-b3a68ed3df5f"
      },
      "occurrencePeriod": {
        "start": "2021-05-13T17:24:56+00:00"
      },
      "authoredOn": "2021-05-13T17:24:56+00:00",
      "requester": {
        "agent": {
          "reference": "urn:uuid:4222353a-4b62-4f80-abcc-9b08777c331d"
        },
        "onBehalfOf": {
          "reference": "urn:uuid:32008c30-e438-49b2-8919-545bdb3fe43b"
        }
      },
      "recipient": [ {
        "reference": "urn:uuid:a884706c-8094-4da6-9800-46f34ef8faaf"
      }, {
        "reference": "urn:uuid:79b7bd8b-627c-4a8c-ab4c-f9362c5cbe4b"
      } ],
      "reasonReference": [ {
        "reference": "urn:uuid:c3ca9785-8ba6-4ad5-8bba-9d52bcd5e026"
      } ],
      "supportingInfo": [ {
        "reference": "urn:uuid:b83e9b1b-105b-45ca-aaac-a74663654066"
      } ]
    }
  }, {
    "fullUrl": "urn:uuid:b83e9b1b-105b-45ca-aaac-a74663654066",
    "resource": {
      "resourceType": "ProcedureRequest",
      "id": "b83e9b1b-105b-45ca-aaac-a74663654066",
      "status": "active",
      "intent": "plan",
      "priority": "routine",
      "doNotPerform": false,
      "code": {
        "coding": [ {
          "system": "2.16.840.1.113883.2.1.3.2.4.17.325",
          "code": "Dx10",
          "display": "MUST contact a local service for a Non-Urgent Appointment"
        } ]
      },
      "subject": {
        "reference": "urn:uuid:d21b52f8-b586-4d68-84be-9309b82fa5fd"
      },
      "occurrencePeriod": {
        "start": "2021-05-13T17:24:56+00:00"
      },
      "reasonReference": [ {
        "reference": "urn:uuid:c3ca9785-8ba6-4ad5-8bba-9d52bcd5e026"
      } ]
    }
  }, {
    "fullUrl": "urn:uuid:a884706c-8094-4da6-9800-46f34ef8faaf",
    "resource": {
      "resourceType": "Practitioner",
      "id": "a884706c-8094-4da6-9800-46f34ef8faaf",
      "active": true,
      "telecom": [ {
        "system": "phone",
        "value": "tel:01233505450"
      } ],
      "address": [ {
        "type": "physical",
        "line": [ "Kingston House", "The Long Barrow", "Orbital Park", "Ashford", "Kent" ],
        "postalCode": "TN24 0GP"
      } ]
    }
  }, {
    "fullUrl": "urn:uuid:270b5a75-837b-4d1e-81fd-ce7e7f9024a3",
    "resource": {
      "resourceType": "Composition",
      "id": "270b5a75-837b-4d1e-81fd-ce7e7f9024a3",
      "identifier": {
        "use": "usual",
        "value": "895062D0-60A8-4EB4-9017-5F489D53694D"
      },
      "status": "final",
      "type": {
        "coding": [ {
          "system": "http://snomed.info/sct",
          "code": "371531000",
          "display": "Report of clinical encounter (record artifact)"
        } ]
      },
      "subject": {
        "reference": "urn:uuid:d21b52f8-b586-4d68-84be-9309b82fa5fd"
      },
      "encounter": {
        "reference": "urn:uuid:55fb316d-0e1c-42fc-8815-b3a68ed3df5f"
      },
      "date": "2021-05-13T17:24:56+00:00",
      "author": [ {
        "reference": "urn:uuid:3ab6e6eb-8836-43e9-ab3b-a3709c278dae"
      } ],
      "title": "111 Report",
      "confidentiality": "R",
      "section": [ {
        "section": [ {
          "title": "Patient's Reported Condition",
          "text": {
            "status": "generated",
            "div": "<div xmlns=\"http://www.w3.org/1999/xhtml\">&lt;content&gt;&amp;lt;CLEO Ref: 2100310450&amp;gt; Test Call &lt;br/&gt;\n                                                    &lt;/content&gt;</div>"
          }
        }, {
          "title": "Pathways Disposition",
          "text": {
            "status": "generated",
            "div": "<div xmlns=\"http://www.w3.org/1999/xhtml\">&lt;content&gt;If a pharmacy service is not available contact the GP practice during normal working hours. (Dx10)&lt;/content&gt;\n                                                    &lt;br/&gt;\n                                                    &lt;br/&gt;\n                                                    &lt;content&gt;Selected Service: 1335970392, Out of Hours GP Service (Waveney) - Kirkley Mill Health Centre, Lowestoft, 111&lt;/content&gt;\n                                                    &lt;br/&gt;</div>"
          }
        }, {
          "title": "Consultation Summary",
          "text": {
            "status": "generated",
            "div": "<div xmlns=\"http://www.w3.org/1999/xhtml\">&lt;content&gt;\n                                                        &lt;content&gt;Worst acne feature, blackheads or whiteheads&lt;/content&gt;\n                                                        &lt;br/&gt;\n                                                        &lt;content&gt;Acne&lt;/content&gt;\n                                                        &lt;br/&gt;\n                                                        &lt;content&gt;Warm to touch&lt;/content&gt;\n                                                        &lt;br/&gt;\n                                                        &lt;content&gt;Illness - test&lt;/content&gt;\n                                                        &lt;br/&gt;\n                                                    &lt;/content&gt;</div>"
          }
        }, {
          "title": "Pathways Assessment",
          "text": {
            "status": "generated",
            "div": "<div xmlns=\"http://www.w3.org/1999/xhtml\">&lt;content&gt;An injury or health problem was the reason for the contact.&lt;/content&gt;\n                                                    &lt;br/&gt;\n                                                    &lt;content&gt;Heavy bleeding had not occurred in the previous 2 hours.&lt;/content&gt;\n                                                    &lt;br/&gt;\n                                                    &lt;content&gt;An illness or health problem was the main problem. - test&lt;/content&gt;\n                                                    &lt;br/&gt;\n                                                    &lt;content&gt;The individual was not fighting for breath.&lt;/content&gt;\n                                                    &lt;br/&gt;\n                                                    &lt;content&gt;The main reason for the assessment was not an allergic reaction, heart attack, chest/upper back pain, probable stroke, recent fit/seizure or suicide attempt.&lt;/content&gt;\n                                                    &lt;br/&gt;\n                                                    &lt;content&gt;The main reason for contact was not new confusion, declared diabetic hypo/hyperglycaemia, or ICD shock.&lt;/content&gt;\n                                                    &lt;br/&gt;\n                                                    &lt;content&gt;The skin on the torso felt normal, warm or hot.&lt;/content&gt;\n                                                    &lt;br/&gt;\n                                                    &lt;content&gt;The main problem was not a rash, itch, jaundice, skin lumps or abnormal bruising.&lt;/content&gt;\n                                                    &lt;br/&gt;\n                                                    &lt;content&gt;The main problem was acne, spots or pimples.&lt;/content&gt;\n                                                    &lt;br/&gt;\n                                                    &lt;content&gt;The worst problem with the acne was blackheads or white heads.&lt;/content&gt;\n                                                    &lt;br/&gt;\n                                                    &lt;content&gt;The problem had not persisted for 3 months or got worse over that time.&lt;/content&gt;\n                                                    &lt;br/&gt;</div>"
          }
        }, {
          "title": "Advice Given",
          "text": {
            "status": "generated",
            "div": "<div xmlns=\"http://www.w3.org/1999/xhtml\">&lt;content&gt;Speak to a pharmacist for advice on suitable treatment.&lt;/content&gt;\n                                                    &lt;br/&gt;\n                                                    &lt;content&gt;If there are any new symptoms, or if the condition gets worse, changes or you have any other concerns, call us back.&lt;/content&gt;\n                                                    &lt;br/&gt;</div>"
          }
        }, {
          "title": "SCR Consent",
          "text": {
            "status": "generated",
            "div": "<div xmlns=\"http://www.w3.org/1999/xhtml\">&lt;content&gt;Consent given for SCR sharing&lt;br/&gt;\n                                                        &lt;br/&gt;\n                                                    &lt;/content&gt;</div>"
          }
        } ]
      }, {
        "title": "ReferralRequest",
        "entry": [ {
          "reference": "urn:uuid:186cf98c-3239-4177-9a2c-78b817e1e5d1"
        } ]
      } ]
    }
  }, {
    "fullUrl": "urn:uuid:a2ec8538-faaf-42b7-adce-cb4cbab136f8",
    "resource": {
      "resourceType": "Consent",
      "id": "a2ec8538-faaf-42b7-adce-cb4cbab136f8",
      "identifier": {
        "use": "usual",
        "value": "895062D0-60A8-4EB4-9017-5F489D53694D"
      },
      "status": "active",
      "patient": {
        "reference": "urn:uuid:d21b52f8-b586-4d68-84be-9309b82fa5fd"
      },
      "period": {
        "start": "2021-05-13T16:47:24+00:00",
        "end": "2021-05-13T17:24:56+00:00"
      },
      "consentingParty": [ {
        "reference": "urn:uuid:d21b52f8-b586-4d68-84be-9309b82fa5fd"
      } ],
      "action": [ {
        "coding": [ {
          "system": "http://snomed.info/sct",
          "code": "425691002",
          "display": "Consent given for electronic record sharing"
        } ],
        "text": "Consent given for electronic record sharing"
      } ],
      "organization": [ {
        "reference": "urn:uuid:32008c30-e438-49b2-8919-545bdb3fe43b"
      } ],
      "policyRule": "http://hl7.org/fhir/ConsentPolicy/opt-out",
      "data": [ {
        "meaning": "related",
        "reference": {
          "reference": "urn:uuid:55fb316d-0e1c-42fc-8815-b3a68ed3df5f"
        }
      } ]
    }
  }, {
    "fullUrl": "urn:uuid:c3ca9785-8ba6-4ad5-8bba-9d52bcd5e026",
    "resource": {
      "resourceType": "Condition",
      "id": "c3ca9785-8ba6-4ad5-8bba-9d52bcd5e026",
      "clinicalStatus": "active",
      "verificationStatus": "unknown",
      "subject": {
        "reference": "urn:uuid:d21b52f8-b586-4d68-84be-9309b82fa5fd"
      },
      "context": {
        "reference": "urn:uuid:55fb316d-0e1c-42fc-8815-b3a68ed3df5f"
      }
    }
  }, {
    "fullUrl": "urn:uuid:56c31142-ea99-484e-b343-adb374833103",
    "resource": {
      "resourceType": "Observation",
      "id": "56c31142-ea99-484e-b343-adb374833103",
      "status": "final",
      "code": {
        "coding": [ {
          "system": "http://snomed.info/sct",
          "code": "33962009",
          "display": "Presenting complaint"
        } ]
      },
      "subject": {
        "reference": "urn:uuid:d21b52f8-b586-4d68-84be-9309b82fa5fd"
      },
      "context": {
        "reference": "urn:uuid:55fb316d-0e1c-42fc-8815-b3a68ed3df5f"
      },
      "valueString": "<CLEO Ref: 2100310450> Test Call "
    }
  }, {
    "fullUrl": "urn:uuid:75cf2371-d89a-481e-9130-8a89025619ef",
    "resource": {
      "resourceType": "PractitionerRole",
      "id": "75cf2371-d89a-481e-9130-8a89025619ef",
      "practitioner": {
        "reference": "urn:uuid:3ab6e6eb-8836-43e9-ab3b-a3709c278dae"
      },
      "organization": {
        "reference": "urn:uuid:18644e0b-33f0-4d0c-b533-66a17a3c22a7"
      },
      "code": [ {
        "coding": [ {
          "system": "2.16.840.1.113883.2.1.3.2.4.17.196",
          "code": "NR1690",
          "display": "Call Operator"
        } ]
      } ]
    }
  }, {
    "fullUrl": "urn:uuid:18644e0b-33f0-4d0c-b533-66a17a3c22a7",
    "resource": {
      "resourceType": "Organization",
      "id": "18644e0b-33f0-4d0c-b533-66a17a3c22a7",
      "identifier": [ {
        "value": "NTN08"
      } ],
      "name": "Norfolk and Wisbech 111"
    }
  }, {
    "fullUrl": "urn:uuid:23bd2613-73ab-4eaa-bb02-558e50abe3a1",
    "resource": {
      "resourceType": "RelatedPerson",
      "id": "23bd2613-73ab-4eaa-bb02-558e50abe3a1",
      "patient": {
        "reference": "urn:uuid:d21b52f8-b586-4d68-84be-9309b82fa5fd"
      },
      "relationship": {
        "coding": [ {
          "system": "http://hl7.org/fhir/v2/0131",
          "code": "C",
          "display": "Emergency Contact"
        } ]
      },
      "telecom": [ {
        "system": "phone",
        "value": "tel:01233123123"
      } ]
    }
  }, {
    "fullUrl": "urn:uuid:4222353a-4b62-4f80-abcc-9b08777c331d",
    "resource": {
      "resourceType": "Device",
      "id": "4222353a-4b62-4f80-abcc-9b08777c331d",
      "model": "111 Adaptor",
      "version": "1.0.1"
    }
  }, {
    "fullUrl": "urn:uuid:178db165-b007-40cb-903a-68b2da8bd22a",
    "resource": {
      "resourceType": "List",
      "id": "178db165-b007-40cb-903a-68b2da8bd22a",
      "status": "current",
      "mode": "working",
      "title": "111 Report List",
      "code": {
        "coding": [ {
          "system": "http://snomed.info/sct",
          "code": "225390008",
          "display": "Triage"
        } ]
      },
      "subject": {
        "reference": "urn:uuid:d21b52f8-b586-4d68-84be-9309b82fa5fd"
      },
      "encounter": {
        "reference": "urn:uuid:55fb316d-0e1c-42fc-8815-b3a68ed3df5f"
      },
      "date": "2021-05-13T17:24:56+00:00",
      "source": {
        "reference": "urn:uuid:4222353a-4b62-4f80-abcc-9b08777c331d"
      },
      "orderedBy": {
        "coding": [ {
          "system": "http://hl7.org/fhir/list-order",
          "code": "event-date",
          "display": "Sorted by Event Date"
        } ]
      },
      "entry": [ {
        "item": {
          "reference": "urn:uuid:3ab6e6eb-8836-43e9-ab3b-a3709c278dae"
        }
      }, {
        "item": {
          "reference": "urn:uuid:23bd2613-73ab-4eaa-bb02-558e50abe3a1"
        }
      }, {
        "item": {
          "reference": "urn:uuid:18644e0b-33f0-4d0c-b533-66a17a3c22a7"
        }
      }, {
        "item": {
          "reference": "urn:uuid:a884706c-8094-4da6-9800-46f34ef8faaf"
        }
      }, {
        "item": {
          "reference": "urn:uuid:56c31142-ea99-484e-b343-adb374833103"
        }
      }, {
        "item": {
          "reference": "urn:uuid:729931c0-a8a5-4b53-ad12-a62ab77b7a70"
        }
      }, {
        "item": {
          "reference": "urn:uuid:c3ca9785-8ba6-4ad5-8bba-9d52bcd5e026"
        }
      }, {
        "item": {
          "reference": "urn:uuid:85db61ea-c854-495f-ac04-6c0d74783d6d"
        }
      }, {
        "item": {
          "reference": "urn:uuid:e449ebcf-ae56-42a6-a5ad-0570b29c7717"
        }
      }, {
        "item": {
          "reference": "urn:uuid:32008c30-e438-49b2-8919-545bdb3fe43b"
        }
      }, {
        "item": {
          "reference": "urn:uuid:2a5657f2-3dca-47bc-8648-d81d5035c775"
        }
      }, {
        "item": {
          "reference": "urn:uuid:186cf98c-3239-4177-9a2c-78b817e1e5d1"
        }
      } ]
    }
  } ]
}