{
  "resourceType": "Bundle",
  "identifier": {
    "type": {
      "text": "ClinicalDocument VersionNumber"
    },
    "value": "1"
  },
  "type": "message",
  "entry": [ {
    "fullUrl": "urn:uuid:F7916D36-4D5F-4A64-BD08-644E8A234AE2",
    "resource": {
      "resourceType": "MessageHeader",
      "id": "F7916D36-4D5F-4A64-BD08-644E8A234AE2",
      "event": {
        "system": "https://fhir.nhs.uk/STU3/CodeSystem/EventType-1",
        "code": "referral-1",
        "display": "Referral"
      },
      "destination": [ {
        "endpoint": "urn:nhs-uk:addressing:ods:NVE06:DOSServiceID:1335970392"
      } ],
      "timestamp": "2021-05-13T17:24:56.000+00:00",
      "source": {
        "name": "NHS 111 Adaptor",
        "endpoint": "http://localhost:8080/report"
      },
      "reason": {
        "coding": [ {
          "system": "urn:nhs-itk:ns:201005:interaction",
          "code": "urn:nhs-itk:interaction:primaryOutofHourRecipientNHS111CDADocument-v2-0"
        } ]
      }
    }
  }, {
    "fullUrl": "urn:uuid:a2f22c74-8c9d-4b16-a216-af89d20d2b5f",
    "resource": {
      "resourceType": "Encounter",
      "id": "a2f22c74-8c9d-4b16-a216-af89d20d2b5f",
      "identifier": [ {
        "system": "2.16.840.1.113883.2.1.3.2.4.18.34",
        "value": "2DBAE50F-F88C-4572-9866-F94FE0F1F25A"
      }, {
        "system": "2.16.840.1.113883.2.1.3.2.4.18.35",
        "value": "2100310450"
      } ],
      "status": "finished",
      "type": [ {
        "text": "111 Encounter Referral"
      } ],
      "subject": {
        "reference": "urn:uuid:d5c9d212-4f18-4de0-a82d-6995cd5a093e"
      },
      "participant": [ {
        "type": [ {
          "coding": [ {
            "system": "http://hl7.org/fhir/ValueSet/encounter-participant-type",
            "code": "PPRF",
            "display": "Author"
          } ]
        } ],
        "individual": {
          "reference": "urn:uuid:c2a7eb9c-353a-4882-b6e6-7515eb38b044"
        }
      }, {
        "type": [ {
          "text": "Informant"
        } ],
        "individual": {
          "reference": "urn:uuid:6005bf89-3711-43c0-ae5e-6504bf391595"
        }
      } ],
      "period": {
        "start": "2021-05-13T17:24:56+00:00"
      },
      "location": [ {
        "location": {
          "reference": "urn:uuid:b86438c7-1870-4c3f-b32b-857f96e2db44"
        },
        "status": "active"
      }, {
        "location": {
          "reference": "urn:uuid:7246ba5a-3efb-4901-af44-8cd761818461"
        },
        "status": "completed"
      } ],
      "serviceProvider": {
        "reference": "urn:uuid:772a942a-289e-478d-8473-cd032b2442db"
      }
    }
  }, {
    "fullUrl": "urn:uuid:772a942a-289e-478d-8473-cd032b2442db",
    "resource": {
      "resourceType": "Organization",
      "id": "772a942a-289e-478d-8473-cd032b2442db",
      "active": true,
      "type": [ {
        "text": "CST"
      } ],
      "name": "Norfolk and Wisbech 111"
    }
  }, {
    "fullUrl": "urn:uuid:c2a7eb9c-353a-4882-b6e6-7515eb38b044",
    "resource": {
      "resourceType": "Practitioner",
      "id": "c2a7eb9c-353a-4882-b6e6-7515eb38b044",
      "active": true,
      "name": [ {
        "text": "Ben Smythson"
      } ]
    }
  }, {
    "fullUrl": "urn:uuid:6005bf89-3711-43c0-ae5e-6504bf391595",
    "resource": {
      "resourceType": "RelatedPerson",
      "id": "6005bf89-3711-43c0-ae5e-6504bf391595",
      "active": true,
      "patient": {
        "reference": "urn:uuid:d5c9d212-4f18-4de0-a82d-6995cd5a093e"
      },
      "relationship": {
        "coding": [ {
          "system": "2.16.840.1.113883.2.1.3.2.4.16.45",
          "code": "21",
          "display": "Self"
        }, {
          "system": "http://hl7.org/fhir/v2/0131",
          "code": "C",
          "display": "Emergency Contact"
        } ]
      },
      "name": [ {
        "text": "Test Call Dx10 TEST CALL DX10"
      } ],
      "telecom": [ {
        "system": "phone",
        "value": "tel:01233123123"
      } ],
      "gender": "unknown"
    }
  }, {
    "fullUrl": "urn:uuid:b86438c7-1870-4c3f-b32b-857f96e2db44",
    "resource": {
      "resourceType": "Location",
      "id": "b86438c7-1870-4c3f-b32b-857f96e2db44",
      "managingOrganization": {
        "reference": "urn:uuid:a965bc9b-71d7-4392-beb5-27382400f7db"
      }
    }
  }, {
    "fullUrl": "urn:uuid:a965bc9b-71d7-4392-beb5-27382400f7db",
    "resource": {
      "resourceType": "Organization",
      "id": "a965bc9b-71d7-4392-beb5-27382400f7db",
      "identifier": [ {
        "value": "Z10000"
      } ],
      "type": [ {
        "text": "GP Practice"
      } ],
      "name": "UNKNOWN"
    }
  }, {
    "fullUrl": "urn:uuid:7246ba5a-3efb-4901-af44-8cd761818461",
    "resource": {
      "resourceType": "Location",
      "id": "7246ba5a-3efb-4901-af44-8cd761818461",
      "address": {
        "type": "physical",
        "line": [ "313 VICTORIA ROAD", "LOWESTOFT" ],
        "postalCode": "NR33 9LS"
      }
    }
  }, {
    "fullUrl": "urn:uuid:d5c9d212-4f18-4de0-a82d-6995cd5a093e",
    "resource": {
      "resourceType": "Patient",
      "id": "d5c9d212-4f18-4de0-a82d-6995cd5a093e",
      "language": "en",
      "active": true,
      "name": [ {
        "use": "official",
        "family": "TEST CALL DX10",
        "given": [ "Test Call Dx10" ]
      } ],
      "telecom": [ {
        "system": "phone",
        "value": "tel:01233123123"
      } ],
      "gender": "male",
      "birthDate": "1996-03-25",
      "address": [ {
        "use": "home",
        "line": [ "313 VICTORIA ROAD", "LOWESTOFT" ],
        "postalCode": "NR33 9LS"
      }, {
        "type": "physical",
        "line": [ "313 VICTORIA ROAD", "LOWESTOFT" ],
        "postalCode": "NR33 9LS"
      } ],
      "generalPractitioner": [ {
        "reference": "urn:uuid:caa621f3-5352-4d1a-8a30-e0be451221aa"
      } ]
    }
  }, {
    "fullUrl": "urn:uuid:caa621f3-5352-4d1a-8a30-e0be451221aa",
    "resource": {
      "resourceType": "Organization",
      "id": "caa621f3-5352-4d1a-8a30-e0be451221aa",
      "identifier": [ {
        "value": "Z10000"
      } ],
      "type": [ {
        "text": "GP Practice"
      } ],
      "name": "UNKNOWN"
    }
  }, {
    "fullUrl": "urn:uuid:d14eba4f-7b7c-43c9-9a62-f3f207982df4",
    "resource": {
      "resourceType": "HealthcareService",
      "id": "d14eba4f-7b7c-43c9-9a62-f3f207982df4",
      "active": true,
      "providedBy": {
        "reference": "urn:uuid:7072bae2-67f5-45dd-9bff-61c1051f9843"
      },
      "location": [ {
        "reference": "urn:uuid:39c50895-95f7-44f6-be86-2ec326d8e6cb"
      } ],
      "name": "Out of Hours GP Service (Waveney) - Kirkley Mill Health Centre, Lowestoft"
    }
  }, {
    "fullUrl": "urn:uuid:39c50895-95f7-44f6-be86-2ec326d8e6cb",
    "resource": {
      "resourceType": "Location",
      "id": "39c50895-95f7-44f6-be86-2ec326d8e6cb",
      "managingOrganization": {
        "reference": "urn:uuid:7072bae2-67f5-45dd-9bff-61c1051f9843"
      }
    }
  }, {
    "fullUrl": "urn:uuid:7072bae2-67f5-45dd-9bff-61c1051f9843",
    "resource": {
      "resourceType": "Organization",
      "id": "7072bae2-67f5-45dd-9bff-61c1051f9843",
      "identifier": [ {
        "value": "NVE06"
      } ],
      "type": [ {
        "coding": [ {
          "code": "PRCP",
          "display": "Out of Hours GP Service (Waveney) - Kirkley Mill Health Centre, Lowestoft"
        } ]
      } ],
      "name": "Out of Hours GP Service (Waveney) - Kirkley Mill Health Centre, Lowestoft"
    }
  }, {
    "fullUrl": "urn:uuid:43d89b50-e405-4f80-bdc1-bee9aa0f3424",
    "resource": {
      "resourceType": "ReferralRequest",
      "id": "43d89b50-e405-4f80-bdc1-bee9aa0f3424",
      "status": "active",
      "intent": "plan",
      "priority": "routine",
      "subject": {
        "reference": "urn:uuid:d5c9d212-4f18-4de0-a82d-6995cd5a093e"
      },
      "context": {
        "reference": "urn:uuid:a2f22c74-8c9d-4b16-a216-af89d20d2b5f"
      },
      "occurrencePeriod": {
        "start": "2021-09-29T10:03:10+00:00",
        "end": "2021-09-29T11:03:10+00:00"
      },
      "authoredOn": "2021-05-13T17:24:56+00:00",
      "requester": {
        "agent": {
          "reference": "urn:uuid:d613dd6f-3125-4de4-b8f6-db16d5f1f1b8"
        },
        "onBehalfOf": {
          "reference": "urn:uuid:772a942a-289e-478d-8473-cd032b2442db"
        }
      },
      "recipient": [ {
        "reference": "urn:uuid:ce4bc500-c5a4-4f7d-a6d8-6b2460a44719"
      }, {
        "reference": "urn:uuid:d14eba4f-7b7c-43c9-9a62-f3f207982df4"
      } ],
      "reasonReference": [ {
        "reference": "urn:uuid:3a506bd9-6b0c-41a5-9c90-d3371198caf3"
      } ],
      "supportingInfo": [ {
        "reference": "urn:uuid:8df958b5-7034-4e8c-a825-c03c2325d417"
      } ]
    }
  }, {
    "fullUrl": "urn:uuid:8df958b5-7034-4e8c-a825-c03c2325d417",
    "resource": {
      "resourceType": "ProcedureRequest",
      "id": "8df958b5-7034-4e8c-a825-c03c2325d417",
      "status": "active",
      "intent": "plan",
      "priority": "routine",
      "doNotPerform": false,
      "code": {
        "coding": [ {
          "system": "2.16.840.1.113883.2.1.3.2.4.17.325",
          "code": "Dx10",
          "display": "MUST contact a local service for a Non-Urgent Appointment"
        } ]
      },
      "subject": {
        "reference": "urn:uuid:d5c9d212-4f18-4de0-a82d-6995cd5a093e"
      },
      "occurrencePeriod": {
        "start": "2021-09-29T10:03:10+00:00",
        "end": "2021-09-29T11:03:10+00:00"
      },
      "reasonReference": [ {
        "reference": "urn:uuid:3a506bd9-6b0c-41a5-9c90-d3371198caf3"
      } ]
    }
  }, {
    "fullUrl": "urn:uuid:ce4bc500-c5a4-4f7d-a6d8-6b2460a44719",
    "resource": {
      "resourceType": "Practitioner",
      "id": "ce4bc500-c5a4-4f7d-a6d8-6b2460a44719",
      "active": true,
      "telecom": [ {
        "system": "phone",
        "value": "tel:01233505450"
      } ],
      "address": [ {
        "type": "physical",
        "line": [ "Kingston House", "The Long Barrow", "Orbital Park", "Ashford", "Kent" ],
        "postalCode": "TN24 0GP"
      } ]
    }
  }, {
    "fullUrl": "urn:uuid:ffcac0da-9c1f-40ae-b7b7-23a1e4039580",
    "resource": {
      "resourceType": "Composition",
      "id": "ffcac0da-9c1f-40ae-b7b7-23a1e4039580",
      "identifier": {
        "use": "usual",
        "value": "895062D0-60A8-4EB4-9017-5F489D53694D"
      },
      "status": "final",
      "type": {
        "coding": [ {
          "system": "http://snomed.info/sct",
          "code": "371531000",
          "display": "Report of clinical encounter (record artifact)"
        } ]
      },
      "subject": {
        "reference": "urn:uuid:d5c9d212-4f18-4de0-a82d-6995cd5a093e"
      },
      "encounter": {
        "reference": "urn:uuid:a2f22c74-8c9d-4b16-a216-af89d20d2b5f"
      },
      "date": "2021-09-29T10:03:10+00:00",
      "author": [ {
        "reference": "urn:uuid:c2a7eb9c-353a-4882-b6e6-7515eb38b044"
      } ],
      "title": "111 Report",
      "confidentiality": "R",
      "section": [ {
        "section": [ {
          "title": "Patient's Reported Condition",
          "text": {
            "status": "generated",
            "div": "<div xmlns=\"http://www.w3.org/1999/xhtml\">&lt;content&gt;&amp;lt;CLEO Ref: 2100310450&amp;gt; Test Call &lt;br/&gt;\n                                                    &lt;/content&gt;</div>"
          }
        }, {
          "title": "Pathways Disposition",
          "text": {
            "status": "generated",
            "div": "<div xmlns=\"http://www.w3.org/1999/xhtml\">&lt;content&gt;If a pharmacy service is not available contact the GP practice during normal working hours. (Dx10)&lt;/content&gt;\n                                                    &lt;br/&gt;\n                                                    &lt;br/&gt;\n                                                    &lt;content&gt;Selected Service: 1335970392, Out of Hours GP Service (Waveney) - Kirkley Mill Health Centre, Lowestoft, 111&lt;/content&gt;\n                                                    &lt;br/&gt;</div>"
          }
        }, {
          "title": "Consultation Summary",
          "text": {
            "status": "generated",
            "div": "<div xmlns=\"http://www.w3.org/1999/xhtml\">&lt;content&gt;\n                                                        &lt;content&gt;Worst acne feature, blackheads or whiteheads&lt;/content&gt;\n                                                        &lt;br/&gt;\n                                                        &lt;content&gt;Acne&lt;/content&gt;\n                                                        &lt;br/&gt;\n                                                        &lt;content&gt;Warm to touch&lt;/content&gt;\n                                                        &lt;br/&gt;\n                                                        &lt;content&gt;Illness - test&lt;/content&gt;\n                                                        &lt;br/&gt;\n                                                    &lt;/content&gt;</div>"
          }
        }, {
          "title": "Pathways Assessment",
          "text": {
            "status": "generated",
            "div": "<div xmlns=\"http://www.w3.org/1999/xhtml\">&lt;content&gt;An injury or health problem was the reason for the contact.&lt;/content&gt;\n                                                    &lt;br/&gt;\n                                                    &lt;content&gt;Heavy bleeding had not occurred in the previous 2 hours.&lt;/content&gt;\n                                                    &lt;br/&gt;\n                                                    &lt;content&gt;An illness or health problem was the main problem. - test&lt;/content&gt;\n                                                    &lt;br/&gt;\n                                                    &lt;content&gt;The individual was not fighting for breath.&lt;/content&gt;\n                                                    &lt;br/&gt;\n                                                    &lt;content&gt;The main reason for the assessment was not an allergic reaction, heart attack, chest/upper back pain, probable stroke, recent fit/seizure or suicide attempt.&lt;/content&gt;\n                                                    &lt;br/&gt;\n                                                    &lt;content&gt;The main reason for contact was not new confusion, declared diabetic hypo/hyperglycaemia, or ICD shock.&lt;/content&gt;\n                                                    &lt;br/&gt;\n                                                    &lt;content&gt;The skin on the torso felt normal, warm or hot.&lt;/content&gt;\n                                                    &lt;br/&gt;\n                                                    &lt;content&gt;The main problem was not a rash, itch, jaundice, skin lumps or abnormal bruising.&lt;/content&gt;\n                                                    &lt;br/&gt;\n                                                    &lt;content&gt;The main problem was acne, spots or pimples.&lt;/content&gt;\n                                                    &lt;br/&gt;\n                                                    &lt;content&gt;The worst problem with the acne was blackheads or white heads.&lt;/content&gt;\n                                                    &lt;br/&gt;\n                                                    &lt;content&gt;The problem had not persisted for 3 months or got worse over that time.&lt;/content&gt;\n                                                    &lt;br/&gt;</div>"
          }
        }, {
          "title": "Advice Given",
          "text": {
            "status": "generated",
            "div": "<div xmlns=\"http://www.w3.org/1999/xhtml\">&lt;content&gt;Speak to a pharmacist for advice on suitable treatment.&lt;/content&gt;\n                                                    &lt;br/&gt;\n                                                    &lt;content&gt;If there are any new symptoms, or if the condition gets worse, changes or you have any other concerns, call us back.&lt;/content&gt;\n                                                    &lt;br/&gt;</div>"
          }
        }, {
          "title": "SCR Consent",
          "text": {
            "status": "generated",
            "div": "<div xmlns=\"http://www.w3.org/1999/xhtml\">&lt;content&gt;Consent given for SCR sharing&lt;br/&gt;\n                                                        &lt;br/&gt;\n                                                    &lt;/content&gt;</div>"
          }
        } ]
      }, {
        "title": "ReferralRequest",
        "entry": [ {
          "reference": "urn:uuid:43d89b50-e405-4f80-bdc1-bee9aa0f3424"
        } ]
      } ]
    }
  }, {
    "fullUrl": "urn:uuid:a253ec59-065d-4920-b1d6-ba61fe24dd66",
    "resource": {
      "resourceType": "Consent",
      "id": "a253ec59-065d-4920-b1d6-ba61fe24dd66",
      "identifier": {
        "use": "usual",
        "value": "895062D0-60A8-4EB4-9017-5F489D53694D"
      },
      "status": "active",
      "patient": {
        "reference": "urn:uuid:d5c9d212-4f18-4de0-a82d-6995cd5a093e"
      },
      "period": {
        "start": "2021-05-13T17:24:56+00:00"
      },
      "consentingParty": [ {
        "reference": "urn:uuid:d5c9d212-4f18-4de0-a82d-6995cd5a093e"
      } ],
      "action": [ {
        "coding": [ {
          "system": "http://snomed.info/sct",
          "code": "425691002",
          "display": "Consent given for electronic record sharing"
        } ],
        "text": "Consent given for electronic record sharing"
      } ],
      "organization": [ {
        "reference": "urn:uuid:772a942a-289e-478d-8473-cd032b2442db"
      } ],
      "policyRule": "http://hl7.org/fhir/ConsentPolicy/opt-out",
      "data": [ {
        "meaning": "related",
        "reference": {
          "reference": "urn:uuid:a2f22c74-8c9d-4b16-a216-af89d20d2b5f"
        }
      } ]
    }
  }, {
    "fullUrl": "urn:uuid:3a506bd9-6b0c-41a5-9c90-d3371198caf3",
    "resource": {
      "resourceType": "Condition",
      "id": "3a506bd9-6b0c-41a5-9c90-d3371198caf3",
      "clinicalStatus": "active",
      "verificationStatus": "unknown",
      "subject": {
        "reference": "urn:uuid:d5c9d212-4f18-4de0-a82d-6995cd5a093e"
      },
      "context": {
        "reference": "urn:uuid:a2f22c74-8c9d-4b16-a216-af89d20d2b5f"
      }
    }
  }, {
    "fullUrl": "urn:uuid:d1c9e464-32b4-435a-86d7-ebd1cb038b63",
    "resource": {
      "resourceType": "Observation",
      "id": "d1c9e464-32b4-435a-86d7-ebd1cb038b63",
      "status": "final",
      "code": {
        "coding": [ {
          "system": "http://snomed.info/sct",
          "code": "33962009",
          "display": "Presenting complaint"
        } ]
      },
      "subject": {
        "reference": "urn:uuid:d5c9d212-4f18-4de0-a82d-6995cd5a093e"
      },
      "context": {
        "reference": "urn:uuid:a2f22c74-8c9d-4b16-a216-af89d20d2b5f"
      },
      "valueString": "<CLEO Ref: 2100310450> Test Call "
    }
  }, {
    "fullUrl": "urn:uuid:781982a1-a43e-4b4d-a211-021f3cca2c67",
    "resource": {
      "resourceType": "PractitionerRole",
      "id": "781982a1-a43e-4b4d-a211-021f3cca2c67",
      "practitioner": {
        "reference": "urn:uuid:c2a7eb9c-353a-4882-b6e6-7515eb38b044"
      },
      "organization": {
        "reference": "urn:uuid:a2689dec-f441-4f03-9989-fe6daecb739a"
      },
      "code": [ {
        "coding": [ {
          "system": "2.16.840.1.113883.2.1.3.2.4.17.196",
          "code": "NR1690",
          "display": "Call Operator"
        } ]
      } ]
    }
  }, {
    "fullUrl": "urn:uuid:a2689dec-f441-4f03-9989-fe6daecb739a",
    "resource": {
      "resourceType": "Organization",
      "id": "a2689dec-f441-4f03-9989-fe6daecb739a",
      "identifier": [ {
        "value": "NTN08"
      } ],
      "name": "Norfolk and Wisbech 111"
    }
  }, {
    "fullUrl": "urn:uuid:b3341207-833e-455b-9c5c-2277894e4bd4",
    "resource": {
      "resourceType": "RelatedPerson",
      "id": "b3341207-833e-455b-9c5c-2277894e4bd4",
      "patient": {
        "reference": "urn:uuid:d5c9d212-4f18-4de0-a82d-6995cd5a093e"
      },
      "relationship": {
        "coding": [ {
          "system": "http://hl7.org/fhir/v2/0131",
          "code": "C",
          "display": "Emergency Contact"
        } ]
      },
      "telecom": [ {
        "system": "phone",
        "value": "tel:01233123123"
      } ]
    }
  }, {
    "fullUrl": "urn:uuid:d613dd6f-3125-4de4-b8f6-db16d5f1f1b8",
    "resource": {
      "resourceType": "Device",
      "id": "d613dd6f-3125-4de4-b8f6-db16d5f1f1b8",
      "model": "111 Adaptor",
      "version": "0.9.0"
    }
  }, {
    "fullUrl": "urn:uuid:82369cb8-2da9-4918-86b9-0dd07d34b04d",
    "resource": {
      "resourceType": "List",
      "id": "82369cb8-2da9-4918-86b9-0dd07d34b04d",
      "status": "current",
      "mode": "working",
      "title": "111 Report List",
      "code": {
        "coding": [ {
          "system": "http://snomed.info/sct",
          "code": "225390008",
          "display": "Triage"
        } ]
      },
      "subject": {
        "reference": "urn:uuid:d5c9d212-4f18-4de0-a82d-6995cd5a093e"
      },
      "encounter": {
        "reference": "urn:uuid:a2f22c74-8c9d-4b16-a216-af89d20d2b5f"
      },
      "date": "2021-09-29T10:03:10+00:00",
      "source": {
        "reference": "urn:uuid:d613dd6f-3125-4de4-b8f6-db16d5f1f1b8"
      },
      "orderedBy": {
        "coding": [ {
          "system": "http://hl7.org/fhir/list-order",
          "code": "event-date",
          "display": "Sorted by Event Date"
        } ]
      },
      "entry": [ {
        "item": {
          "reference": "urn:uuid:b3341207-833e-455b-9c5c-2277894e4bd4"
        }
      }, {
        "item": {
          "reference": "urn:uuid:caa621f3-5352-4d1a-8a30-e0be451221aa"
        }
      }, {
        "item": {
          "reference": "urn:uuid:d1c9e464-32b4-435a-86d7-ebd1cb038b63"
        }
      }, {
        "item": {
          "reference": "urn:uuid:c2a7eb9c-353a-4882-b6e6-7515eb38b044"
        }
      }, {
        "item": {
          "reference": "urn:uuid:3a506bd9-6b0c-41a5-9c90-d3371198caf3"
        }
      }, {
        "item": {
          "reference": "urn:uuid:772a942a-289e-478d-8473-cd032b2442db"
        }
      }, {
        "item": {
          "reference": "urn:uuid:a965bc9b-71d7-4392-beb5-27382400f7db"
        }
      }, {
        "item": {
          "reference": "urn:uuid:7072bae2-67f5-45dd-9bff-61c1051f9843"
        }
      }, {
        "item": {
          "reference": "urn:uuid:6005bf89-3711-43c0-ae5e-6504bf391595"
        }
      }, {
        "item": {
          "reference": "urn:uuid:a2689dec-f441-4f03-9989-fe6daecb739a"
        }
      }, {
        "item": {
          "reference": "urn:uuid:ce4bc500-c5a4-4f7d-a6d8-6b2460a44719"
        }
      }, {
        "item": {
          "reference": "urn:uuid:43d89b50-e405-4f80-bdc1-bee9aa0f3424"
        }
      } ]
    }
  } ]
}