{
  "resourceType": "Bundle",
  "identifier": {
    "type": {
      "text": "ClinicalDocument VersionNumber"
    },
    "value": "1"
  },
  "type": "message",
  "entry": [ {
    "fullUrl": "urn:uuid:05040617-33BA-4344-AA59-281CF2FE63CA",
    "resource": {
      "resourceType": "MessageHeader",
      "id": "05040617-33BA-4344-AA59-281CF2FE63CA",
      "event": {
        "system": "https://fhir.nhs.uk/STU3/CodeSystem/EventType-1",
        "code": "referral-1",
        "display": "Referral"
      },
      "destination": [ {
        "endpoint": "urn:nhs-uk:addressing:ods:FHR04RPX:DOSServiceID:2000038667"
      } ],
      "timestamp": "2021-04-06T15:19:34.000+00:00",
      "source": {
        "name": "NHS 111 Adaptor",
        "endpoint": "http://localhost:8080/report"
      },
      "reason": {
        "coding": [ {
          "system": "urn:nhs-itk:ns:201005:interaction",
          "code": "urn:nhs-itk:interaction:primaryOutofHourRecipientNHS111CDADocument-v2-0"
        } ]
      }
    },
    "response": {
      "status": "success",
      "lastModified": "2022-05-09T13:25:19.967+00:00"
    }
  }, {
    "fullUrl": "urn:uuid:1c59c222-3530-44e2-bf9c-ac65911af87a",
    "resource": {
      "resourceType": "Encounter",
      "id": "1c59c222-3530-44e2-bf9c-ac65911af87a",
      "identifier": [ {
        "system": "2.16.840.1.113883.2.1.3.2.4.18.34",
        "value": "AdastraCaseGUID34"
      }, {
        "system": "2.16.840.1.113883.2.1.3.2.4.18.35",
        "value": "AdastraCaseID35"
      }, {
        "system": "2.16.840.1.113883.2.1.3.2.4.18.49",
        "value": "AdastraCaseGUID49"
      } ],
      "status": "finished",
      "type": [ {
        "text": "111 Encounter Referral"
      } ],
      "subject": {
        "reference": "urn:uuid:6b8e70db-ec9a-4796-b4d4-bc4bc7af2f34"
      },
      "participant": [ {
        "type": [ {
          "coding": [ {
            "system": "http://hl7.org/fhir/ValueSet/encounter-participant-type",
            "code": "PPRF",
            "display": "Author"
          } ]
        } ],
        "individual": {
          "reference": "urn:uuid:da3c3e0b-bccf-42bd-a7be-95e5f817a13e"
        }
      }, {
        "type": [ {
          "text": "Informant"
        } ],
        "individual": {
          "reference": "urn:uuid:cf09d40f-fe47-437e-b642-701f061f8c59"
        }
      }, {
        "type": [ {
          "coding": [ {
            "system": "http://hl7.org/fhir/ValueSet/encounter-participant-type",
            "code": "ATND",
            "display": "Responsible Party"
          } ]
        } ],
        "individual": {
          "reference": "urn:uuid:cd1653b6-1ae7-4ad8-bf72-2bcdc624608f"
        }
      } ],
      "period": {
        "start": "2021-04-06T15:13:33+00:00",
        "end": "2021-04-06T15:19:29+00:00"
      },
      "location": [ {
        "location": {
          "reference": "urn:uuid:dbd9e845-f88b-49b6-a48a-7255d93803a9"
        },
        "status": "completed"
      } ],
      "serviceProvider": {
        "reference": "urn:uuid:4f463d65-7009-4320-80ef-8e12ce7903b3"
      }
    }
  }, {
    "fullUrl": "urn:uuid:4f463d65-7009-4320-80ef-8e12ce7903b3",
    "resource": {
      "resourceType": "Organization",
      "id": "4f463d65-7009-4320-80ef-8e12ce7903b3",
      "active": true,
      "type": [ {
        "text": "CST"
      } ],
      "name": "CustodianName"
    }
  }, {
    "fullUrl": "urn:uuid:da3c3e0b-bccf-42bd-a7be-95e5f817a13e",
    "resource": {
      "resourceType": "Practitioner",
      "id": "da3c3e0b-bccf-42bd-a7be-95e5f817a13e",
      "active": true,
      "name": [ {
        "use": "official",
        "family": "AuthorAssignedPerson FamilyName",
        "given": [ "AuthorAssignedPerson GivenName" ]
      } ]
    }
  }, {
    "fullUrl": "urn:uuid:cf09d40f-fe47-437e-b642-701f061f8c59",
    "resource": {
      "resourceType": "RelatedPerson",
      "id": "cf09d40f-fe47-437e-b642-701f061f8c59",
      "active": true,
      "patient": {
        "reference": "urn:uuid:6b8e70db-ec9a-4796-b4d4-bc4bc7af2f34"
      },
      "relationship": {
        "coding": [ {
          "system": "2.16.840.1.113883.2.1.3.2.4.16.45",
          "code": "16",
          "display": "Relative"
        } ]
      },
      "name": [ {
        "text": "RelatedPerson Name"
      } ],
      "telecom": [ {
        "system": "phone",
        "value": "tel:01111111111",
        "use": "home"
      } ],
      "gender": "unknown"
    }
  }, {
    "fullUrl": "urn:uuid:cd1653b6-1ae7-4ad8-bf72-2bcdc624608f",
    "resource": {
      "resourceType": "Practitioner",
      "id": "cd1653b6-1ae7-4ad8-bf72-2bcdc624608f",
      "active": true,
      "name": [ {
        "use": "official",
        "family": "ResponsablePartyMD FamilyName",
        "given": [ "ResponsablePartyMD GivenName" ]
      } ]
    }
  }, {
    "fullUrl": "urn:uuid:dbd9e845-f88b-49b6-a48a-7255d93803a9",
    "resource": {
      "resourceType": "Location",
      "id": "dbd9e845-f88b-49b6-a48a-7255d93803a9",
      "name": "Incident Location",
      "address": {
        "type": "physical",
        "line": [ "HealthCareFacility AddressLine1", "HealthCareFacility AddressLine2", "HealthCareFacility AddressLine3", "HealthCareFacility AddressLine4", "HealthCareFacility AddressLine5" ],
        "postalCode": "LOH25 4NS"
      }
    }
  }, {
    "fullUrl": "urn:uuid:6b8e70db-ec9a-4796-b4d4-bc4bc7af2f34",
    "resource": {
      "resourceType": "Patient",
      "id": "6b8e70db-ec9a-4796-b4d4-bc4bc7af2f34",
      "active": true,
      "name": [ {
        "use": "official",
        "family": "Patient Family Name",
        "given": [ "Patient Given Name" ]
      } ],
      "telecom": [ {
        "system": "phone",
        "value": "tel:000000000000",
        "use": "home"
      }, {
        "system": "phone",
        "value": "tel:000000000000"
      } ],
      "gender": "other",
      "birthDate": "1990-02-02",
      "address": [ {
        "use": "home",
        "line": [ "Home Address Line 1", "Home Address Line 2", "Home Address Line 3", "Home Address Line 4", "Home Address Line 5" ],
        "postalCode": "HA25 4NS"
      }, {
        "type": "physical",
        "line": [ "Home Address Line 1", "Home Address Line 2", "Home Address Line 3", "Home Address Line 4", "Home Address Line 5" ],
        "postalCode": "PH25 4NS"
      } ]
    }
  }, {
    "fullUrl": "urn:uuid:d11806da-3309-4320-a760-66311ec22caf",
    "resource": {
      "resourceType": "HealthcareService",
      "id": "d11806da-3309-4320-a760-66311ec22caf",
      "active": true,
      "providedBy": {
        "reference": "urn:uuid:158522a7-c61f-4719-a82f-523e3b41fcc3"
      },
      "location": [ {
        "reference": "urn:uuid:fe730f7e-c442-4452-8a37-e36681cab797"
      } ],
      "name": "InformationRecipient IntendedRecipient Name FHR0"
    }
  }, {
    "fullUrl": "urn:uuid:fe730f7e-c442-4452-8a37-e36681cab797",
    "resource": {
      "resourceType": "Location",
      "id": "fe730f7e-c442-4452-8a37-e36681cab797",
      "managingOrganization": {
        "reference": "urn:uuid:158522a7-c61f-4719-a82f-523e3b41fcc3"
      }
    }
  }, {
    "fullUrl": "urn:uuid:158522a7-c61f-4719-a82f-523e3b41fcc3",
    "resource": {
      "resourceType": "Organization",
      "id": "158522a7-c61f-4719-a82f-523e3b41fcc3",
      "identifier": [ {
        "value": "FHR04RPX"
      } ],
      "type": [ {
        "coding": [ {
          "code": "PRCP",
          "display": "InformationRecipient IntendedRecipient Name FHR0"
        } ]
      } ],
      "name": "InformationRecipient IntendedRecipient Name FHR0"
    }
  }, {
    "fullUrl": "urn:uuid:1e639077-8840-4199-81bf-30e44975ab8f",
    "resource": {
      "resourceType": "ReferralRequest",
      "id": "1e639077-8840-4199-81bf-30e44975ab8f",
      "status": "active",
      "intent": "plan",
      "priority": "routine",
      "subject": {
        "reference": "urn:uuid:6b8e70db-ec9a-4796-b4d4-bc4bc7af2f34"
      },
      "context": {
        "reference": "urn:uuid:1c59c222-3530-44e2-bf9c-ac65911af87a"
      },
      "occurrencePeriod": {
        "start": "2021-04-06T15:19:34+00:00"
      },
      "authoredOn": "2021-04-06T15:19:29+00:00",
      "requester": {
        "agent": {
          "reference": "urn:uuid:0625e3d3-6b73-41f5-b7f5-e535258c7468"
        },
        "onBehalfOf": {
          "reference": "urn:uuid:4f463d65-7009-4320-80ef-8e12ce7903b3"
        }
      },
      "recipient": [ {
        "reference": "urn:uuid:d11806da-3309-4320-a760-66311ec22caf"
      } ],
      "reasonReference": [ {
        "reference": "urn:uuid:f798b991-c70e-4b3c-b631-9f614505da57"
      } ],
      "supportingInfo": [ {
        "reference": "urn:uuid:345fd8ea-e2cd-4e77-ba93-48e89911f99b"
      } ]
    }
  }, {
    "fullUrl": "urn:uuid:345fd8ea-e2cd-4e77-ba93-48e89911f99b",
    "resource": {
      "resourceType": "ProcedureRequest",
      "id": "345fd8ea-e2cd-4e77-ba93-48e89911f99b",
      "status": "active",
      "intent": "plan",
      "priority": "routine",
      "doNotPerform": false,
      "code": {
        "coding": [ {
          "system": "2.16.840.1.113883.2.1.3.2.4.17.325",
          "code": "DispoCodeDx87",
          "display": "DispoName - Repeat Prescription required within 24 hours"
        } ]
      },
      "subject": {
        "reference": "urn:uuid:6b8e70db-ec9a-4796-b4d4-bc4bc7af2f34"
      },
      "occurrencePeriod": {
        "start": "2021-04-06T15:19:34+00:00"
      },
      "reasonReference": [ {
        "reference": "urn:uuid:f798b991-c70e-4b3c-b631-9f614505da57"
      } ]
    }
  }, {
    "fullUrl": "urn:uuid:7970842c-3162-40ff-ba95-e464b073f09d",
    "resource": {
      "resourceType": "Composition",
      "id": "7970842c-3162-40ff-ba95-e464b073f09d",
      "identifier": {
        "use": "usual",
        "value": "E2DF04F7-95CA-40AD-808D-797C0A89E39C"
      },
      "status": "final",
      "type": {
        "coding": [ {
          "system": "http://snomed.info/sct",
          "code": "371531000",
          "display": "Report of clinical encounter (record artifact)"
        } ]
      },
      "subject": {
        "reference": "urn:uuid:6b8e70db-ec9a-4796-b4d4-bc4bc7af2f34"
      },
      "encounter": {
        "reference": "urn:uuid:1c59c222-3530-44e2-bf9c-ac65911af87a"
      },
      "date": "2021-04-06T15:19:34+00:00",
      "author": [ {
        "reference": "urn:uuid:da3c3e0b-bccf-42bd-a7be-95e5f817a13e"
      } ],
      "title": "111 Report",
      "confidentiality": "N",
      "section": [ {
        "section": [ {
          "title": "ComponentTitle - Patient's Reported Condition",
          "text": {
            "status": "generated",
            "div": "<div xmlns=\"http://www.w3.org/1999/xhtml\">&lt;content&gt;ComponentText - Pharmacy ITK Testing&lt;/content&gt;\n                                                    &lt;br/&gt;</div>"
          }
        }, {
          "title": "ComponentTitle - Pathways Disposition",
          "text": {
            "status": "generated",
            "div": "<div xmlns=\"http://www.w3.org/1999/xhtml\">ComponentText - Repeat Prescription required within 24 hours (Dx87)                                         &lt;br/&gt;\n                                                    &lt;br/&gt;                                         Selected service: Springvale, Fraser Road, Kings Worthy, Winchester&lt;br/&gt;</div>"
          }
        }, {
          "title": "ComponentTitle - Consultation Summary",
          "text": {
            "status": "generated",
            "div": "<div xmlns=\"http://www.w3.org/1999/xhtml\">ComponentText - Prescription request&lt;br/&gt;Not enough medication until surgery opens&lt;br/&gt;No medication available&lt;br/&gt;Next dose due in over 12 hours time&lt;br/&gt;</div>"
          }
        }, {
          "title": "ComponentTitle - Pathways Assessment",
          "text": {
            "status": "generated",
            "div": "<div xmlns=\"http://www.w3.org/1999/xhtml\">ComponentText - Reason for call menu - continued to next list.&lt;br/&gt;A prescription request was the main reason for the contact.&lt;br/&gt;The main reason for the contact was not a new or worsening illness.&lt;br/&gt;The individual did not have enough medication to last until the surgery next opened.&lt;br/&gt;The medication was suitable for repeat prescribing without further consultation.&lt;br/&gt;The individual had no medication available.&lt;br/&gt;The next dose was due in over 12 hours time.&lt;br/&gt;Instructions given were: The individual needs a repeat prescription.&lt;br/&gt;Directory of Services referral: Springvale, Fraser Road, Kings Worthy, Winchester&lt;br/&gt;</div>"
          }
        }, {
          "title": "ComponentTitle - Advice Given",
          "text": {
            "status": "generated",
            "div": "<div xmlns=\"http://www.w3.org/1999/xhtml\">ComponentText - I will arrange for a clinician or pharmacist to speak to the individual.&lt;br/&gt;IF THE RECOMMENDED TIMEFRAME FALLS OUTSIDE OPENING HOURS: I will arrange for a clinician to speak to the individual.&lt;br/&gt;\n                                                    &lt;br/&gt;</div>"
          }
        }, {
          "title": "ComponentTitle - Information And Advice Given"
        }, {
          "title": "ComponentTitle - Disposition",
          "text": {
            "status": "generated",
            "div": "<div xmlns=\"http://www.w3.org/1999/xhtml\">&lt;content&gt;ComponentText - Repeat Prescription required within 24 hours&lt;br/&gt;\n                                                    &lt;/content&gt;\n                                                    &lt;br/&gt;\n                                                    &lt;br/&gt;</div>"
          }
        } ]
      }, {
        "title": "CarePlan",
        "entry": [ {
          "reference": "urn:uuid:83abef7a-45af-457f-9c07-48f831d0cffb"
        } ]
      }, {
        "title": "ReferralRequest",
        "entry": [ {
          "reference": "urn:uuid:1e639077-8840-4199-81bf-30e44975ab8f"
        } ]
      }, {
        "title": "QuestionnaireResponse",
        "entry": [ {
          "reference": "urn:uuid:7b4e9197-ded0-4606-b18d-aafa604bd4fc"
        } ]
      }, {
        "title": "QuestionnaireResponse",
        "entry": [ {
          "reference": "urn:uuid:4b08e526-ebbb-4596-97cf-5766fa5cc941"
        } ]
      }, {
        "title": "QuestionnaireResponse",
        "entry": [ {
          "reference": "urn:uuid:772f5f00-f9ce-4f4e-80ba-80eb1149c604"
        } ]
      }, {
        "title": "QuestionnaireResponse",
        "entry": [ {
          "reference": "urn:uuid:3dff8f5f-cbc1-4fc5-b116-fc9c35fff1b6"
        } ]
      }, {
        "title": "QuestionnaireResponse",
        "entry": [ {
          "reference": "urn:uuid:a3137515-ffd9-4b2d-930a-27e12456781d"
        } ]
      }, {
        "title": "QuestionnaireResponse",
        "entry": [ {
          "reference": "urn:uuid:cff67ec2-4efe-440a-9b07-446be245e841"
        } ]
      }, {
        "title": "QuestionnaireResponse",
        "entry": [ {
          "reference": "urn:uuid:68b2be95-5a01-41f0-90ed-ff3c35f4705d"
        } ]
      }, {
        "title": "QuestionnaireResponse",
        "entry": [ {
          "reference": "urn:uuid:0e965dc8-c078-4616-a66f-6293f40e3bb2"
        } ]
      }, {
        "title": "QuestionnaireResponse",
        "entry": [ {
          "reference": "urn:uuid:16a4e748-03a2-4ca6-9a14-04d2ef1442c3"
        } ]
      }, {
        "title": "QuestionnaireResponse",
        "entry": [ {
          "reference": "urn:uuid:426fc427-406f-440c-b4ce-b8bcd1aca471"
        } ]
      }, {
        "title": "QuestionnaireResponse",
        "entry": [ {
          "reference": "urn:uuid:a6021206-a1e5-4d87-b658-7832a01564ed"
        } ]
      }, {
        "title": "QuestionnaireResponse",
        "entry": [ {
          "reference": "urn:uuid:ebd68b2f-e84f-4d54-a61e-5058d8825360"
        } ]
      }, {
        "title": "QuestionnaireResponse",
        "entry": [ {
          "reference": "urn:uuid:0c6aa2a6-cdb5-47bf-937c-7d67778111fa"
        } ]
      }, {
        "title": "QuestionnaireResponse",
        "entry": [ {
          "reference": "urn:uuid:eeac54da-d7e5-435b-bc6f-e3454d383912"
        } ]
      }, {
        "title": "QuestionnaireResponse",
        "entry": [ {
          "reference": "urn:uuid:327dbc70-2a62-4206-8ab3-a40536eebde9"
        } ]
      } ]
    }
  }, {
    "fullUrl": "urn:uuid:83abef7a-45af-457f-9c07-48f831d0cffb",
    "resource": {
      "resourceType": "CarePlan",
      "id": "83abef7a-45af-457f-9c07-48f831d0cffb",
      "status": "completed",
      "intent": "plan",
      "title": "ComponentTitle - Information And Advice Given",
      "subject": {
        "reference": "urn:uuid:6b8e70db-ec9a-4796-b4d4-bc4bc7af2f34"
      },
      "context": {
        "reference": "urn:uuid:1c59c222-3530-44e2-bf9c-ac65911af87a"
      },
      "period": {
        "start": "2021-04-06T15:13:33+00:00",
        "end": "2021-04-06T15:19:29+00:00"
      },
      "addresses": [ {
        "reference": "urn:uuid:f798b991-c70e-4b3c-b631-9f614505da57"
      } ]
    }
  }, {
    "fullUrl": "urn:uuid:61e76422-3006-4fd9-bf15-19ce617123a4",
    "resource": {
      "resourceType": "Consent",
      "id": "61e76422-3006-4fd9-bf15-19ce617123a4",
      "identifier": {
        "use": "usual",
        "value": "E2DF04F7-95CA-40AD-808D-797C0A89E39C"
      },
      "status": "active",
      "patient": {
        "reference": "urn:uuid:6b8e70db-ec9a-4796-b4d4-bc4bc7af2f34"
      },
      "period": {
        "start": "2021-04-06T15:13:33+00:00",
        "end": "2021-04-06T15:19:29+00:00"
      },
      "consentingParty": [ {
        "reference": "urn:uuid:6b8e70db-ec9a-4796-b4d4-bc4bc7af2f34"
      } ],
      "action": [ {
        "coding": [ {
          "system": "http://snomed.info/sct",
          "code": "425691002",
          "display": "Consent given for electronic record sharing"
        } ],
        "text": "Consent given for electronic record sharing"
      } ],
      "organization": [ {
        "reference": "urn:uuid:4f463d65-7009-4320-80ef-8e12ce7903b3"
      } ],
      "policyRule": "http://hl7.org/fhir/ConsentPolicy/opt-out",
      "data": [ {
        "meaning": "related",
        "reference": {
          "reference": "urn:uuid:1c59c222-3530-44e2-bf9c-ac65911af87a"
        }
      } ]
    }
  }, {
    "fullUrl": "urn:uuid:f798b991-c70e-4b3c-b631-9f614505da57",
    "resource": {
      "resourceType": "Condition",
      "id": "f798b991-c70e-4b3c-b631-9f614505da57",
      "clinicalStatus": "active",
      "verificationStatus": "unknown",
      "subject": {
        "reference": "urn:uuid:6b8e70db-ec9a-4796-b4d4-bc4bc7af2f34"
      },
      "context": {
        "reference": "urn:uuid:1c59c222-3530-44e2-bf9c-ac65911af87a"
      },
      "evidence": [ {
        "detail": [ {
          "reference": "urn:uuid:7b4e9197-ded0-4606-b18d-aafa604bd4fc"
        } ]
      }, {
        "detail": [ {
          "reference": "urn:uuid:4b08e526-ebbb-4596-97cf-5766fa5cc941"
        } ]
      }, {
        "detail": [ {
          "reference": "urn:uuid:772f5f00-f9ce-4f4e-80ba-80eb1149c604"
        } ]
      }, {
        "detail": [ {
          "reference": "urn:uuid:3dff8f5f-cbc1-4fc5-b116-fc9c35fff1b6"
        } ]
      }, {
        "detail": [ {
          "reference": "urn:uuid:a3137515-ffd9-4b2d-930a-27e12456781d"
        } ]
      }, {
        "detail": [ {
          "reference": "urn:uuid:cff67ec2-4efe-440a-9b07-446be245e841"
        } ]
      }, {
        "detail": [ {
          "reference": "urn:uuid:68b2be95-5a01-41f0-90ed-ff3c35f4705d"
        } ]
      }, {
        "detail": [ {
          "reference": "urn:uuid:0e965dc8-c078-4616-a66f-6293f40e3bb2"
        } ]
      }, {
        "detail": [ {
          "reference": "urn:uuid:16a4e748-03a2-4ca6-9a14-04d2ef1442c3"
        } ]
      }, {
        "detail": [ {
          "reference": "urn:uuid:426fc427-406f-440c-b4ce-b8bcd1aca471"
        } ]
      }, {
        "detail": [ {
          "reference": "urn:uuid:a6021206-a1e5-4d87-b658-7832a01564ed"
        } ]
      }, {
        "detail": [ {
          "reference": "urn:uuid:ebd68b2f-e84f-4d54-a61e-5058d8825360"
        } ]
      }, {
        "detail": [ {
          "reference": "urn:uuid:0c6aa2a6-cdb5-47bf-937c-7d67778111fa"
        } ]
      }, {
        "detail": [ {
          "reference": "urn:uuid:eeac54da-d7e5-435b-bc6f-e3454d383912"
        } ]
      }, {
        "detail": [ {
          "reference": "urn:uuid:327dbc70-2a62-4206-8ab3-a40536eebde9"
        } ]
      } ]
    }
  }, {
    "fullUrl": "urn:uuid:7b4e9197-ded0-4606-b18d-aafa604bd4fc",
    "resource": {
      "resourceType": "QuestionnaireResponse",
      "id": "7b4e9197-ded0-4606-b18d-aafa604bd4fc",
      "identifier": {
        "value": "60319"
      },
      "questionnaire": {
        "reference": "urn:uuid:d126ca3d-6131-4809-b8df-52b61facd85c"
      },
      "status": "completed",
      "subject": {
        "reference": "urn:uuid:6b8e70db-ec9a-4796-b4d4-bc4bc7af2f34"
      },
      "context": {
        "reference": "urn:uuid:1c59c222-3530-44e2-bf9c-ac65911af87a"
      },
      "authored": "2021-04-06T15:19:34+00:00",
      "item": [ {
        "linkId": "Tx220109",
        "text": "What is the reason for the contact?",
        "answer": [ {
          "valueString": "more"
        } ]
      } ]
    }
  }, {
    "fullUrl": "urn:uuid:d126ca3d-6131-4809-b8df-52b61facd85c",
    "resource": {
      "resourceType": "Questionnaire",
      "id": "d126ca3d-6131-4809-b8df-52b61facd85c",
      "identifier": [ {
        "value": "60319"
      } ],
      "version": "2021-04-06T15:19:34.083Z",
      "status": "active",
      "experimental": false,
      "date": "2021-04-06T15:19:34+00:00",
      "publisher": "User ID: 'HADFIELDR' User name: 'Ryan Hadfield' User skill set: 'T3'",
      "lastReviewDate": "2021-04-06",
      "contact": [ {
        "telecom": [ {
          "system": "phone",
          "value": "0111 111 1111"
        } ]
      } ],
      "subjectType": [ "Patient" ],
      "item": [ {
        "linkId": "60319",
        "prefix": "5",
        "text": "What is the reason for the contact?",
        "type": "choice",
        "required": true,
        "repeats": false,
        "option": [ {
          "valueString": "an injury or other health problem, Selected: false"
        }, {
          "valueString": "a need to access another healthcare service, Selected: false"
        }, {
          "valueString": "a healthcare professional requesting contact with another clinician, Selected: false"
        }, {
          "valueString": "a report of results or tests, Selected: false"
        }, {
          "valueString": "more, Selected: true"
        } ]
      } ]
    }
  }, {
    "fullUrl": "urn:uuid:4b08e526-ebbb-4596-97cf-5766fa5cc941",
    "resource": {
      "resourceType": "QuestionnaireResponse",
      "id": "4b08e526-ebbb-4596-97cf-5766fa5cc941",
      "identifier": {
        "value": "60319"
      },
      "questionnaire": {
        "reference": "urn:uuid:8bc6b613-ab4b-4ee9-ace6-af772c9ca208"
      },
      "status": "completed",
      "subject": {
        "reference": "urn:uuid:6b8e70db-ec9a-4796-b4d4-bc4bc7af2f34"
      },
      "context": {
        "reference": "urn:uuid:1c59c222-3530-44e2-bf9c-ac65911af87a"
      },
      "authored": "2021-04-06T15:19:34+00:00",
      "item": [ {
        "linkId": "Tx221793",
        "text": "STRING:to'Social&information'-further'Callreason'menu",
        "answer": [ {
          "valueString": "\"present\""
        } ]
      } ]
    }
  }, {
    "fullUrl": "urn:uuid:8bc6b613-ab4b-4ee9-ace6-af772c9ca208",
    "resource": {
      "resourceType": "Questionnaire",
      "id": "8bc6b613-ab4b-4ee9-ace6-af772c9ca208",
      "identifier": [ {
        "value": "60319"
      } ],
      "version": "2021-04-06T15:19:34.083Z",
      "status": "active",
      "experimental": false,
      "date": "2021-04-06T15:19:34+00:00",
      "publisher": "User ID: 'HADFIELDR' User name: 'Ryan Hadfield' User skill set: 'T3'",
      "lastReviewDate": "2021-04-06",
      "contact": [ {
        "telecom": [ {
          "system": "phone",
          "value": "0111 111 1111"
        } ]
      } ],
      "subjectType": [ "Patient" ],
      "item": [ {
        "linkId": "60319",
        "prefix": "600",
        "text": "STRING:to'Social&information'-further'Callreason'menu",
        "type": "choice",
        "required": true,
        "repeats": false,
        "option": [ {
          "valueString": "\"present\", Selected: true"
        } ]
      } ]
    }
  }, {
    "fullUrl": "urn:uuid:772f5f00-f9ce-4f4e-80ba-80eb1149c604",
    "resource": {
      "resourceType": "QuestionnaireResponse",
      "id": "772f5f00-f9ce-4f4e-80ba-80eb1149c604",
      "identifier": {
        "value": "60319"
      },
      "questionnaire": {
        "reference": "urn:uuid:6ca09870-2ecb-4681-b0cf-03aa33ff882e"
      },
      "status": "completed",
      "subject": {
        "reference": "urn:uuid:6b8e70db-ec9a-4796-b4d4-bc4bc7af2f34"
      },
      "context": {
        "reference": "urn:uuid:1c59c222-3530-44e2-bf9c-ac65911af87a"
      },
      "authored": "2021-04-06T15:19:34+00:00"
    }
  }, {
    "fullUrl": "urn:uuid:6ca09870-2ecb-4681-b0cf-03aa33ff882e",
    "resource": {
      "resourceType": "Questionnaire",
      "id": "6ca09870-2ecb-4681-b0cf-03aa33ff882e",
      "identifier": [ {
        "value": "60319"
      } ],
      "version": "2021-04-06T15:19:34.083Z",
      "status": "active",
      "experimental": false,
      "date": "2021-04-06T15:19:34+00:00",
      "publisher": "User ID: 'HADFIELDR' User name: 'Ryan Hadfield' User skill set: 'T3'",
      "lastReviewDate": "2021-04-06",
      "contact": [ {
        "telecom": [ {
          "system": "phone",
          "value": "0111 111 1111"
        } ]
      } ],
      "subjectType": [ "Patient" ]
    }
  }, {
    "fullUrl": "urn:uuid:3dff8f5f-cbc1-4fc5-b116-fc9c35fff1b6",
    "resource": {
      "resourceType": "QuestionnaireResponse",
      "id": "3dff8f5f-cbc1-4fc5-b116-fc9c35fff1b6",
      "identifier": {
        "value": "60319"
      },
      "questionnaire": {
        "reference": "urn:uuid:a35f9ac3-e67f-417b-80f2-9ab9fcb5e4d8"
      },
      "status": "completed",
      "subject": {
        "reference": "urn:uuid:6b8e70db-ec9a-4796-b4d4-bc4bc7af2f34"
      },
      "context": {
        "reference": "urn:uuid:1c59c222-3530-44e2-bf9c-ac65911af87a"
      },
      "authored": "2021-04-06T15:19:34+00:00",
      "item": [ {
        "linkId": "Tx221804",
        "text": "STRING:transfertofurthermenuquestionestablishedinEntryFlow",
        "answer": [ {
          "valueString": "\"present\""
        } ]
      } ]
    }
  }, {
    "fullUrl": "urn:uuid:a35f9ac3-e67f-417b-80f2-9ab9fcb5e4d8",
    "resource": {
      "resourceType": "Questionnaire",
      "id": "a35f9ac3-e67f-417b-80f2-9ab9fcb5e4d8",
      "identifier": [ {
        "value": "60319"
      } ],
      "version": "2021-04-06T15:19:34.083Z",
      "status": "active",
      "experimental": false,
      "date": "2021-04-06T15:19:34+00:00",
      "publisher": "User ID: 'HADFIELDR' User name: 'Ryan Hadfield' User skill set: 'T3'",
      "lastReviewDate": "2021-04-06",
      "contact": [ {
        "telecom": [ {
          "system": "phone",
          "value": "0111 111 1111"
        } ]
      } ],
      "subjectType": [ "Patient" ],
      "item": [ {
        "linkId": "60319",
        "prefix": "41",
        "text": "STRING:transfertofurthermenuquestionestablishedinEntryFlow",
        "type": "choice",
        "required": true,
        "repeats": false,
        "option": [ {
          "valueString": "\"present\", Selected: true"
        } ]
      } ]
    }
  }, {
    "fullUrl": "urn:uuid:a3137515-ffd9-4b2d-930a-27e12456781d",
    "resource": {
      "resourceType": "QuestionnaireResponse",
      "id": "a3137515-ffd9-4b2d-930a-27e12456781d",
      "identifier": {
        "value": "60319"
      },
      "questionnaire": {
        "reference": "urn:uuid:d436f265-8c16-4352-862e-90d0c3c2b33f"
      },
      "status": "completed",
      "subject": {
        "reference": "urn:uuid:6b8e70db-ec9a-4796-b4d4-bc4bc7af2f34"
      },
      "context": {
        "reference": "urn:uuid:1c59c222-3530-44e2-bf9c-ac65911af87a"
      },
      "authored": "2021-04-06T15:19:34+00:00",
      "item": [ {
        "linkId": "Tx224998",
        "text": "SYSTEM_COVIDLEVEL2",
        "answer": [ {
          "valueString": "==\"covidlevel2\""
        } ]
      } ]
    }
  }, {
    "fullUrl": "urn:uuid:d436f265-8c16-4352-862e-90d0c3c2b33f",
    "resource": {
      "resourceType": "Questionnaire",
      "id": "d436f265-8c16-4352-862e-90d0c3c2b33f",
      "identifier": [ {
        "value": "60319"
      } ],
      "version": "2021-04-06T15:19:34.083Z",
      "status": "active",
      "experimental": false,
      "date": "2021-04-06T15:19:34+00:00",
      "publisher": "User ID: 'HADFIELDR' User name: 'Ryan Hadfield' User skill set: 'T3'",
      "lastReviewDate": "2021-04-06",
      "contact": [ {
        "telecom": [ {
          "system": "phone",
          "value": "0111 111 1111"
        } ]
      } ],
      "subjectType": [ "Patient" ],
      "item": [ {
        "linkId": "60319",
        "prefix": "5900",
        "text": "SYSTEM_COVIDLEVEL2",
        "type": "choice",
        "required": true,
        "repeats": false,
        "option": [ {
          "valueString": "==\"covidlevel2\", Selected: true"
        }, {
          "valueString": "*, Selected: false"
        } ]
      } ]
    }
  }, {
    "fullUrl": "urn:uuid:cff67ec2-4efe-440a-9b07-446be245e841",
    "resource": {
      "resourceType": "QuestionnaireResponse",
      "id": "cff67ec2-4efe-440a-9b07-446be245e841",
      "identifier": {
        "value": "60319"
      },
      "questionnaire": {
        "reference": "urn:uuid:0845f3a9-eccc-4d67-8a88-0a8f32dd6f3d"
      },
      "status": "completed",
      "subject": {
        "reference": "urn:uuid:6b8e70db-ec9a-4796-b4d4-bc4bc7af2f34"
      },
      "context": {
        "reference": "urn:uuid:1c59c222-3530-44e2-bf9c-ac65911af87a"
      },
      "authored": "2021-04-06T15:19:34+00:00",
      "item": [ {
        "linkId": "Tx225069",
        "text": "What is the reason for the contact?",
        "answer": [ {
          "valueString": "a prescription request"
        } ]
      } ]
    }
  }, {
    "fullUrl": "urn:uuid:0845f3a9-eccc-4d67-8a88-0a8f32dd6f3d",
    "resource": {
      "resourceType": "Questionnaire",
      "id": "0845f3a9-eccc-4d67-8a88-0a8f32dd6f3d",
      "identifier": [ {
        "value": "60319"
      } ],
      "version": "2021-04-06T15:19:34.083Z",
      "status": "active",
      "experimental": false,
      "date": "2021-04-06T15:19:34+00:00",
      "publisher": "User ID: 'HADFIELDR' User name: 'Ryan Hadfield' User skill set: 'T3'",
      "lastReviewDate": "2021-04-06",
      "contact": [ {
        "telecom": [ {
          "system": "phone",
          "value": "0111 111 1111"
        } ]
      } ],
      "subjectType": [ "Patient" ],
      "item": [ {
        "linkId": "60319",
        "prefix": "6000",
        "text": "What is the reason for the contact?",
        "type": "choice",
        "required": true,
        "repeats": false,
        "option": [ {
          "valueString": "a child protection/vulnerable adult concern (specify), Selected: false"
        }, {
          "valueString": "a social or domestic emergency, Selected: false"
        }, {
          "valueString": "a prescription request, Selected: true"
        }, {
          "valueString": "an appointment request, Selected: false"
        }, {
          "valueString": "a request for health or medication information, Selected: false"
        }, {
          "valueString": "public health alert information, Selected: false"
        } ]
      } ]
    }
  }, {
    "fullUrl": "urn:uuid:68b2be95-5a01-41f0-90ed-ff3c35f4705d",
    "resource": {
      "resourceType": "QuestionnaireResponse",
      "id": "68b2be95-5a01-41f0-90ed-ff3c35f4705d",
      "identifier": {
        "value": "60319"
      },
      "questionnaire": {
        "reference": "urn:uuid:da369867-9580-4870-aa1f-36e62740e651"
      },
      "status": "completed",
      "subject": {
        "reference": "urn:uuid:6b8e70db-ec9a-4796-b4d4-bc4bc7af2f34"
      },
      "context": {
        "reference": "urn:uuid:1c59c222-3530-44e2-bf9c-ac65911af87a"
      },
      "authored": "2021-04-06T15:19:34+00:00",
      "item": [ {
        "linkId": "Tx220957",
        "text": "Is this contact about a new or worsening illness?",
        "answer": [ {
          "valueString": "no"
        } ]
      } ]
    }
  }, {
    "fullUrl": "urn:uuid:da369867-9580-4870-aa1f-36e62740e651",
    "resource": {
      "resourceType": "Questionnaire",
      "id": "da369867-9580-4870-aa1f-36e62740e651",
      "identifier": [ {
        "value": "60319"
      } ],
      "version": "2021-04-06T15:19:34.083Z",
      "status": "active",
      "experimental": false,
      "date": "2021-04-06T15:19:34+00:00",
      "publisher": "User ID: 'HADFIELDR' User name: 'Ryan Hadfield' User skill set: 'T3'",
      "lastReviewDate": "2021-04-06",
      "contact": [ {
        "telecom": [ {
          "system": "phone",
          "value": "0111 111 1111"
        } ]
      } ],
      "subjectType": [ "Patient" ],
      "item": [ {
        "linkId": "60319",
        "prefix": "1400",
        "text": "Is this contact about a new or worsening illness?",
        "type": "choice",
        "required": true,
        "repeats": false,
        "option": [ {
          "valueString": "yes, Selected: false"
        }, {
          "valueString": "not sure, Selected: false"
        }, {
          "valueString": "no, Selected: true"
        } ]
      } ]
    }
  }, {
    "fullUrl": "urn:uuid:0e965dc8-c078-4616-a66f-6293f40e3bb2",
    "resource": {
      "resourceType": "QuestionnaireResponse",
      "id": "0e965dc8-c078-4616-a66f-6293f40e3bb2",
      "identifier": {
        "value": "60319"
      },
      "questionnaire": {
        "reference": "urn:uuid:27209a0d-e425-4062-9465-570f54794fa6"
      },
      "status": "completed",
      "subject": {
        "reference": "urn:uuid:6b8e70db-ec9a-4796-b4d4-bc4bc7af2f34"
      },
      "context": {
        "reference": "urn:uuid:1c59c222-3530-44e2-bf9c-ac65911af87a"
      },
      "authored": "2021-04-06T15:19:34+00:00",
      "item": [ {
        "linkId": "Tx221352",
        "text": "Have you got enough medication to last until the surgery opens?",
        "answer": [ {
          "valueString": "no"
        } ]
      } ]
    }
  }, {
    "fullUrl": "urn:uuid:27209a0d-e425-4062-9465-570f54794fa6",
    "resource": {
      "resourceType": "Questionnaire",
      "id": "27209a0d-e425-4062-9465-570f54794fa6",
      "identifier": [ {
        "value": "60319"
      } ],
      "version": "2021-04-06T15:19:34.083Z",
      "status": "active",
      "experimental": false,
      "date": "2021-04-06T15:19:34+00:00",
      "publisher": "User ID: 'HADFIELDR' User name: 'Ryan Hadfield' User skill set: 'T3'",
      "lastReviewDate": "2021-04-06",
      "contact": [ {
        "telecom": [ {
          "system": "phone",
          "value": "0111 111 1111"
        } ]
      } ],
      "subjectType": [ "Patient" ],
      "item": [ {
        "linkId": "60319",
        "prefix": "1500",
        "text": "Have you got enough medication to last until the surgery opens?",
        "type": "choice",
        "required": true,
        "repeats": false,
        "option": [ {
          "valueString": "yes, Selected: false"
        }, {
          "valueString": "not sure, Selected: false"
        }, {
          "valueString": "no, Selected: true"
        } ]
      } ]
    }
  }, {
    "fullUrl": "urn:uuid:16a4e748-03a2-4ca6-9a14-04d2ef1442c3",
    "resource": {
      "resourceType": "QuestionnaireResponse",
      "id": "16a4e748-03a2-4ca6-9a14-04d2ef1442c3",
      "identifier": {
        "value": "60319"
      },
      "questionnaire": {
        "reference": "urn:uuid:ee8936c5-ee4a-4947-800a-2791157f3224"
      },
      "status": "completed",
      "subject": {
        "reference": "urn:uuid:6b8e70db-ec9a-4796-b4d4-bc4bc7af2f34"
      },
      "context": {
        "reference": "urn:uuid:1c59c222-3530-44e2-bf9c-ac65911af87a"
      },
      "authored": "2021-04-06T15:19:34+00:00"
    }
  }, {
    "fullUrl": "urn:uuid:ee8936c5-ee4a-4947-800a-2791157f3224",
    "resource": {
      "resourceType": "Questionnaire",
      "id": "ee8936c5-ee4a-4947-800a-2791157f3224",
      "identifier": [ {
        "value": "60319"
      } ],
      "version": "2021-04-06T15:19:34.083Z",
      "status": "active",
      "experimental": false,
      "date": "2021-04-06T15:19:34+00:00",
      "publisher": "User ID: 'HADFIELDR' User name: 'Ryan Hadfield' User skill set: 'T3'",
      "lastReviewDate": "2021-04-06",
      "contact": [ {
        "telecom": [ {
          "system": "phone",
          "value": "0111 111 1111"
        } ]
      } ],
      "subjectType": [ "Patient" ]
    }
  }, {
    "fullUrl": "urn:uuid:426fc427-406f-440c-b4ce-b8bcd1aca471",
    "resource": {
      "resourceType": "QuestionnaireResponse",
      "id": "426fc427-406f-440c-b4ce-b8bcd1aca471",
      "identifier": {
        "value": "60319"
      },
      "questionnaire": {
        "reference": "urn:uuid:722e6ab8-95c1-4c09-9d2a-4ebbf9778c64"
      },
      "status": "completed",
      "subject": {
        "reference": "urn:uuid:6b8e70db-ec9a-4796-b4d4-bc4bc7af2f34"
      },
      "context": {
        "reference": "urn:uuid:1c59c222-3530-44e2-bf9c-ac65911af87a"
      },
      "authored": "2021-04-06T15:19:34+00:00",
      "item": [ {
        "linkId": "Tx224231",
        "text": "FROM WHAT YOU HAVE HEARD IS A CONSULTATION WITH A PRESCRIBER NEEDED?",
        "answer": [ {
          "valueString": "no"
        } ]
      } ]
    }
  }, {
    "fullUrl": "urn:uuid:722e6ab8-95c1-4c09-9d2a-4ebbf9778c64",
    "resource": {
      "resourceType": "Questionnaire",
      "id": "722e6ab8-95c1-4c09-9d2a-4ebbf9778c64",
      "identifier": [ {
        "value": "60319"
      } ],
      "version": "2021-04-06T15:19:34.083Z",
      "status": "active",
      "experimental": false,
      "date": "2021-04-06T15:19:34+00:00",
      "publisher": "User ID: 'HADFIELDR' User name: 'Ryan Hadfield' User skill set: 'T3'",
      "lastReviewDate": "2021-04-06",
      "contact": [ {
        "telecom": [ {
          "system": "phone",
          "value": "0111 111 1111"
        } ]
      } ],
      "subjectType": [ "Patient" ],
      "item": [ {
        "linkId": "60319",
        "prefix": "0",
        "text": "FROM WHAT YOU HAVE HEARD IS A CONSULTATION WITH A PRESCRIBER NEEDED?",
        "type": "choice",
        "required": true,
        "repeats": false,
        "option": [ {
          "valueString": "yes, Selected: false"
        }, {
          "valueString": "not sure, Selected: false"
        }, {
          "valueString": "no, Selected: true"
        } ]
      } ]
    }
  }, {
    "fullUrl": "urn:uuid:a6021206-a1e5-4d87-b658-7832a01564ed",
    "resource": {
      "resourceType": "QuestionnaireResponse",
      "id": "a6021206-a1e5-4d87-b658-7832a01564ed",
      "identifier": {
        "value": "60319"
      },
      "questionnaire": {
        "reference": "urn:uuid:f08119ad-9e0f-42cc-89b4-dd1727511317"
      },
      "status": "completed",
      "subject": {
        "reference": "urn:uuid:6b8e70db-ec9a-4796-b4d4-bc4bc7af2f34"
      },
      "context": {
        "reference": "urn:uuid:1c59c222-3530-44e2-bf9c-ac65911af87a"
      },
      "authored": "2021-04-06T15:19:34+00:00",
      "item": [ {
        "linkId": "Tx222687",
        "text": "Have you got any of the medication available at the moment?",
        "answer": [ {
          "valueString": "no"
        } ]
      } ]
    }
  }, {
    "fullUrl": "urn:uuid:f08119ad-9e0f-42cc-89b4-dd1727511317",
    "resource": {
      "resourceType": "Questionnaire",
      "id": "f08119ad-9e0f-42cc-89b4-dd1727511317",
      "identifier": [ {
        "value": "60319"
      } ],
      "version": "2021-04-06T15:19:34.083Z",
      "status": "active",
      "experimental": false,
      "date": "2021-04-06T15:19:34+00:00",
      "publisher": "User ID: 'HADFIELDR' User name: 'Ryan Hadfield' User skill set: 'T3'",
      "lastReviewDate": "2021-04-06",
      "contact": [ {
        "telecom": [ {
          "system": "phone",
          "value": "0111 111 1111"
        } ]
      } ],
      "subjectType": [ "Patient" ],
      "item": [ {
        "linkId": "60319",
        "prefix": "200",
        "text": "Have you got any of the medication available at the moment?",
        "type": "choice",
        "required": true,
        "repeats": false,
        "option": [ {
          "valueString": "yes, Selected: false"
        }, {
          "valueString": "not sure, Selected: false"
        }, {
          "valueString": "no, Selected: true"
        } ]
      } ]
    }
  }, {
    "fullUrl": "urn:uuid:ebd68b2f-e84f-4d54-a61e-5058d8825360",
    "resource": {
      "resourceType": "QuestionnaireResponse",
      "id": "ebd68b2f-e84f-4d54-a61e-5058d8825360",
      "identifier": {
        "value": "60319"
      },
      "questionnaire": {
        "reference": "urn:uuid:c455c177-605c-4598-8533-eb4cdd7e6eac"
      },
      "status": "completed",
      "subject": {
        "reference": "urn:uuid:6b8e70db-ec9a-4796-b4d4-bc4bc7af2f34"
      },
      "context": {
        "reference": "urn:uuid:1c59c222-3530-44e2-bf9c-ac65911af87a"
      },
      "authored": "2021-04-06T15:19:34+00:00",
      "item": [ {
        "linkId": "Tx221367",
        "text": "When is the next dose due?",
        "answer": [ {
          "valueString": "over 12 hours time"
        } ]
      } ]
    }
  }, {
    "fullUrl": "urn:uuid:c455c177-605c-4598-8533-eb4cdd7e6eac",
    "resource": {
      "resourceType": "Questionnaire",
      "id": "c455c177-605c-4598-8533-eb4cdd7e6eac",
      "identifier": [ {
        "value": "60319"
      } ],
      "version": "2021-04-06T15:19:34.083Z",
      "status": "active",
      "experimental": false,
      "date": "2021-04-06T15:19:34+00:00",
      "publisher": "User ID: 'HADFIELDR' User name: 'Ryan Hadfield' User skill set: 'T3'",
      "lastReviewDate": "2021-04-06",
      "contact": [ {
        "telecom": [ {
          "system": "phone",
          "value": "0111 111 1111"
        } ]
      } ],
      "subjectType": [ "Patient" ],
      "item": [ {
        "linkId": "60319",
        "prefix": "100",
        "text": "When is the next dose due?",
        "type": "choice",
        "required": true,
        "repeats": false,
        "option": [ {
          "valueString": "within the next 2 hours, Selected: false"
        }, {
          "valueString": "within the next 6 hours, Selected: false"
        }, {
          "valueString": "within the next 12 hours, Selected: false"
        }, {
          "valueString": "over 12 hours time, Selected: true"
        }, {
          "valueString": "not sure, Selected: false"
        } ]
      } ]
    }
  }, {
    "fullUrl": "urn:uuid:0c6aa2a6-cdb5-47bf-937c-7d67778111fa",
    "resource": {
      "resourceType": "QuestionnaireResponse",
      "id": "0c6aa2a6-cdb5-47bf-937c-7d67778111fa",
      "identifier": {
        "value": "60319"
      },
      "questionnaire": {
        "reference": "urn:uuid:09bf47ec-4410-4149-a8a2-b9048297977d"
      },
      "status": "completed",
      "subject": {
        "reference": "urn:uuid:6b8e70db-ec9a-4796-b4d4-bc4bc7af2f34"
      },
      "context": {
        "reference": "urn:uuid:1c59c222-3530-44e2-bf9c-ac65911af87a"
      },
      "authored": "2021-04-06T15:19:34+00:00",
      "item": [ {
        "linkId": "Tx223441",
        "text": "STRING:SDPCRepeatPrescription",
        "answer": [ {
          "valueString": "\"PC repeat prescription\""
        } ]
      } ]
    }
  }, {
    "fullUrl": "urn:uuid:09bf47ec-4410-4149-a8a2-b9048297977d",
    "resource": {
      "resourceType": "Questionnaire",
      "id": "09bf47ec-4410-4149-a8a2-b9048297977d",
      "identifier": [ {
        "value": "60319"
      } ],
      "version": "2021-04-06T15:19:34.083Z",
      "status": "active",
      "experimental": false,
      "date": "2021-04-06T15:19:34+00:00",
      "publisher": "User ID: 'HADFIELDR' User name: 'Ryan Hadfield' User skill set: 'T3'",
      "lastReviewDate": "2021-04-06",
      "contact": [ {
        "telecom": [ {
          "system": "phone",
          "value": "0111 111 1111"
        } ]
      } ],
      "subjectType": [ "Patient" ],
      "item": [ {
        "linkId": "60319",
        "prefix": "1100",
        "text": "STRING:SDPCRepeatPrescription",
        "type": "choice",
        "required": true,
        "repeats": false,
        "option": [ {
          "valueString": "\"PC repeat prescription\", Selected: true"
        } ]
      } ]
    }
  }, {
    "fullUrl": "urn:uuid:eeac54da-d7e5-435b-bc6f-e3454d383912",
    "resource": {
      "resourceType": "QuestionnaireResponse",
      "id": "eeac54da-d7e5-435b-bc6f-e3454d383912",
      "identifier": {
        "value": "60319"
      },
      "questionnaire": {
        "reference": "urn:uuid:ae0d1b4c-6125-4744-9e8c-fdf4a3e5c896"
      },
      "status": "completed",
      "subject": {
        "reference": "urn:uuid:6b8e70db-ec9a-4796-b4d4-bc4bc7af2f34"
      },
      "context": {
        "reference": "urn:uuid:1c59c222-3530-44e2-bf9c-ac65911af87a"
      },
      "authored": "2021-04-06T15:19:34+00:00"
    }
  }, {
    "fullUrl": "urn:uuid:ae0d1b4c-6125-4744-9e8c-fdf4a3e5c896",
    "resource": {
      "resourceType": "Questionnaire",
      "id": "ae0d1b4c-6125-4744-9e8c-fdf4a3e5c896",
      "identifier": [ {
        "value": "60319"
      } ],
      "version": "2021-04-06T15:19:34.083Z",
      "status": "active",
      "experimental": false,
      "date": "2021-04-06T15:19:34+00:00",
      "publisher": "User ID: 'HADFIELDR' User name: 'Ryan Hadfield' User skill set: 'T3'",
      "lastReviewDate": "2021-04-06",
      "contact": [ {
        "telecom": [ {
          "system": "phone",
          "value": "0111 111 1111"
        } ]
      } ],
      "subjectType": [ "Patient" ]
    }
  }, {
    "fullUrl": "urn:uuid:327dbc70-2a62-4206-8ab3-a40536eebde9",
    "resource": {
      "resourceType": "QuestionnaireResponse",
      "id": "327dbc70-2a62-4206-8ab3-a40536eebde9",
      "identifier": {
        "value": "60319"
      },
      "questionnaire": {
        "reference": "urn:uuid:b34663d9-75fb-4200-95a2-0518733b7f89"
      },
      "status": "completed",
      "subject": {
        "reference": "urn:uuid:6b8e70db-ec9a-4796-b4d4-bc4bc7af2f34"
      },
      "context": {
        "reference": "urn:uuid:1c59c222-3530-44e2-bf9c-ac65911af87a"
      },
      "authored": "2021-04-06T15:19:34+00:00"
    }
  }, {
    "fullUrl": "urn:uuid:b34663d9-75fb-4200-95a2-0518733b7f89",
    "resource": {
      "resourceType": "Questionnaire",
      "id": "b34663d9-75fb-4200-95a2-0518733b7f89",
      "identifier": [ {
        "value": "60319"
      } ],
      "version": "2021-04-06T15:19:34.083Z",
      "status": "active",
      "experimental": false,
      "date": "2021-04-06T15:19:34+00:00",
      "publisher": "User ID: 'HADFIELDR' User name: 'Ryan Hadfield' User skill set: 'T3'",
      "lastReviewDate": "2021-04-06",
      "contact": [ {
        "telecom": [ {
          "system": "phone",
          "value": "0111 111 1111"
        } ]
      } ],
      "subjectType": [ "Patient" ]
    }
  }, {
    "fullUrl": "urn:uuid:b248af07-ec6b-455c-ba6e-385175354f16",
    "resource": {
      "resourceType": "PractitionerRole",
      "id": "b248af07-ec6b-455c-ba6e-385175354f16",
      "practitioner": {
        "reference": "urn:uuid:da3c3e0b-bccf-42bd-a7be-95e5f817a13e"
      },
      "organization": {
        "reference": "urn:uuid:977a572b-52d7-4442-aef3-4d7494a35425"
      },
      "code": [ {
        "coding": [ {
          "system": "2.16.840.1.113883.2.1.3.2.4.17.339",
          "code": "DOCTOR",
          "display": "Doctor"
        } ]
      } ]
    }
  }, {
    "fullUrl": "urn:uuid:977a572b-52d7-4442-aef3-4d7494a35425",
    "resource": {
      "resourceType": "Organization",
      "id": "977a572b-52d7-4442-aef3-4d7494a35425",
      "identifier": [ {
        "value": "RYE"
      } ],
      "name": "RepresentedOrg Name"
    }
  }, {
    "fullUrl": "urn:uuid:07626fc6-0d4d-4c2a-9a3c-3b57ede3143c",
    "resource": {
      "resourceType": "PractitionerRole",
      "id": "07626fc6-0d4d-4c2a-9a3c-3b57ede3143c",
      "practitioner": {
        "reference": "urn:uuid:cd1653b6-1ae7-4ad8-bf72-2bcdc624608f"
      },
      "organization": {
        "reference": "urn:uuid:dbe76062-f77d-46e1-bf01-29bdcce892a5"
      },
      "code": [ {
        "coding": [ {
          "system": "2.16.840.1.113883.2.1.3.2.4.17.196",
          "code": "R0010",
          "display": "Medical Director"
        } ]
      } ]
    }
  }, {
    "fullUrl": "urn:uuid:dbe76062-f77d-46e1-bf01-29bdcce892a5",
    "resource": {
      "resourceType": "Organization",
      "id": "dbe76062-f77d-46e1-bf01-29bdcce892a5",
      "identifier": [ {
        "value": "RYE"
      } ],
      "name": "RepresentedOrgNameRYE"
    }
  }, {
    "fullUrl": "urn:uuid:2ff4b0ae-a041-42a2-bc78-a83136ee232f",
    "resource": {
      "resourceType": "RelatedPerson",
      "id": "2ff4b0ae-a041-42a2-bc78-a83136ee232f",
      "patient": {
        "reference": "urn:uuid:6b8e70db-ec9a-4796-b4d4-bc4bc7af2f34"
      },
      "relationship": {
        "coding": [ {
          "system": "http://hl7.org/fhir/v2/0131",
          "code": "C",
          "display": "Emergency Contact"
        } ]
      },
      "telecom": [ {
        "system": "phone",
        "value": "tel:000000000000"
      } ]
    }
  }, {
    "fullUrl": "urn:uuid:0625e3d3-6b73-41f5-b7f5-e535258c7468",
    "resource": {
      "resourceType": "Device",
      "id": "0625e3d3-6b73-41f5-b7f5-e535258c7468",
      "model": "111 Adaptor",
      "version": "1.0.1"
    }
  }, {
    "fullUrl": "urn:uuid:2957b62e-3efe-467d-b732-3a973bc57f62",
    "resource": {
      "resourceType": "List",
      "id": "2957b62e-3efe-467d-b732-3a973bc57f62",
      "status": "current",
      "mode": "working",
      "title": "111 Report List",
      "code": {
        "coding": [ {
          "system": "http://snomed.info/sct",
          "code": "225390008",
          "display": "Triage"
        } ]
      },
      "subject": {
        "reference": "urn:uuid:6b8e70db-ec9a-4796-b4d4-bc4bc7af2f34"
      },
      "encounter": {
        "reference": "urn:uuid:1c59c222-3530-44e2-bf9c-ac65911af87a"
      },
      "date": "2021-04-06T15:19:34+00:00",
      "source": {
        "reference": "urn:uuid:0625e3d3-6b73-41f5-b7f5-e535258c7468"
      },
      "orderedBy": {
        "coding": [ {
          "system": "http://hl7.org/fhir/list-order",
          "code": "event-date",
          "display": "Sorted by Event Date"
        } ]
      },
      "entry": [ {
        "item": {
          "reference": "urn:uuid:dbe76062-f77d-46e1-bf01-29bdcce892a5"
        }
      }, {
        "item": {
          "reference": "urn:uuid:4f463d65-7009-4320-80ef-8e12ce7903b3"
        }
      }, {
        "item": {
          "reference": "urn:uuid:da3c3e0b-bccf-42bd-a7be-95e5f817a13e"
        }
      }, {
        "item": {
          "reference": "urn:uuid:977a572b-52d7-4442-aef3-4d7494a35425"
        }
      }, {
        "item": {
          "reference": "urn:uuid:cd1653b6-1ae7-4ad8-bf72-2bcdc624608f"
        }
      }, {
        "item": {
          "reference": "urn:uuid:158522a7-c61f-4719-a82f-523e3b41fcc3"
        }
      }, {
        "item": {
          "reference": "urn:uuid:cf09d40f-fe47-437e-b642-701f061f8c59"
        }
      }, {
        "item": {
          "reference": "urn:uuid:f798b991-c70e-4b3c-b631-9f614505da57"
        }
      }, {
        "item": {
          "reference": "urn:uuid:2ff4b0ae-a041-42a2-bc78-a83136ee232f"
        }
      }, {
        "item": {
          "reference": "urn:uuid:772f5f00-f9ce-4f4e-80ba-80eb1149c604"
        }
      }, {
        "item": {
          "reference": "urn:uuid:ebd68b2f-e84f-4d54-a61e-5058d8825360"
        }
      }, {
        "item": {
          "reference": "urn:uuid:f08119ad-9e0f-42cc-89b4-dd1727511317"
        }
      }, {
        "item": {
          "reference": "urn:uuid:09bf47ec-4410-4149-a8a2-b9048297977d"
        }
      }, {
        "item": {
          "reference": "urn:uuid:da369867-9580-4870-aa1f-36e62740e651"
        }
      }, {
        "item": {
          "reference": "urn:uuid:d126ca3d-6131-4809-b8df-52b61facd85c"
        }
      }, {
        "item": {
          "reference": "urn:uuid:6ca09870-2ecb-4681-b0cf-03aa33ff882e"
        }
      }, {
        "item": {
          "reference": "urn:uuid:ae0d1b4c-6125-4744-9e8c-fdf4a3e5c896"
        }
      }, {
        "item": {
          "reference": "urn:uuid:a35f9ac3-e67f-417b-80f2-9ab9fcb5e4d8"
        }
      }, {
        "item": {
          "reference": "urn:uuid:426fc427-406f-440c-b4ce-b8bcd1aca471"
        }
      }, {
        "item": {
          "reference": "urn:uuid:722e6ab8-95c1-4c09-9d2a-4ebbf9778c64"
        }
      }, {
        "item": {
          "reference": "urn:uuid:68b2be95-5a01-41f0-90ed-ff3c35f4705d"
        }
      }, {
        "item": {
          "reference": "urn:uuid:3dff8f5f-cbc1-4fc5-b116-fc9c35fff1b6"
        }
      }, {
        "item": {
          "reference": "urn:uuid:7b4e9197-ded0-4606-b18d-aafa604bd4fc"
        }
      }, {
        "item": {
          "reference": "urn:uuid:d436f265-8c16-4352-862e-90d0c3c2b33f"
        }
      }, {
        "item": {
          "reference": "urn:uuid:ee8936c5-ee4a-4947-800a-2791157f3224"
        }
      }, {
        "item": {
          "reference": "urn:uuid:c455c177-605c-4598-8533-eb4cdd7e6eac"
        }
      }, {
        "item": {
          "reference": "urn:uuid:a6021206-a1e5-4d87-b658-7832a01564ed"
        }
      }, {
        "item": {
          "reference": "urn:uuid:27209a0d-e425-4062-9465-570f54794fa6"
        }
      }, {
        "item": {
          "reference": "urn:uuid:a3137515-ffd9-4b2d-930a-27e12456781d"
        }
      }, {
        "item": {
          "reference": "urn:uuid:0845f3a9-eccc-4d67-8a88-0a8f32dd6f3d"
        }
      }, {
        "item": {
          "reference": "urn:uuid:4b08e526-ebbb-4596-97cf-5766fa5cc941"
        }
      }, {
        "item": {
          "reference": "urn:uuid:8bc6b613-ab4b-4ee9-ace6-af772c9ca208"
        }
      }, {
        "item": {
          "reference": "urn:uuid:b34663d9-75fb-4200-95a2-0518733b7f89"
        }
      }, {
        "item": {
          "reference": "urn:uuid:16a4e748-03a2-4ca6-9a14-04d2ef1442c3"
        }
      }, {
        "item": {
          "reference": "urn:uuid:eeac54da-d7e5-435b-bc6f-e3454d383912"
        }
      }, {
        "item": {
          "reference": "urn:uuid:327dbc70-2a62-4206-8ab3-a40536eebde9"
        }
      }, {
        "item": {
          "reference": "urn:uuid:0c6aa2a6-cdb5-47bf-937c-7d67778111fa"
        }
      }, {
        "item": {
          "reference": "urn:uuid:0e965dc8-c078-4616-a66f-6293f40e3bb2"
        }
      }, {
        "item": {
          "reference": "urn:uuid:cff67ec2-4efe-440a-9b07-446be245e841"
        }
      }, {
        "item": {
          "reference": "urn:uuid:1e639077-8840-4199-81bf-30e44975ab8f"
        }
      } ]
    }
  } ]
}