{
  "resourceType": "Bundle",
  "meta": {
    "lastUpdated": "2022-05-12T07:25:18.332+00:00"
  },
  "identifier": {
    "type": {
      "text": "ClinicalDocument VersionNumber"
    },
    "value": "1"
  },
  "type": "message",
  "entry": [ {
    "fullUrl": "urn:uuid:05040617-33BA-4344-AA59-281CF2FE63CA",
    "resource": {
      "resourceType": "MessageHeader",
      "id": "05040617-33BA-4344-AA59-281CF2FE63CA",
      "event": {
        "system": "https://fhir.nhs.uk/STU3/CodeSystem/EventType-1",
        "code": "referral-1",
        "display": "Referral"
      },
      "destination": [ {
        "endpoint": "urn:nhs-uk:addressing:ods:FHR04RPX:DOSServiceID:2000038667"
      } ],
      "timestamp": "2021-04-06T15:19:34.000+00:00",
      "source": {
        "name": "NHS 111 Adaptor",
        "endpoint": "http://localhost:8080/report"
      },
      "reason": {
        "coding": [ {
          "system": "urn:nhs-itk:ns:201005:interaction",
          "code": "urn:nhs-itk:interaction:primaryOutofHourRecipientNHS111CDADocument-v2-0"
        } ]
      }
    }
  }, {
    "fullUrl": "urn:uuid:bb73ffdb-8286-44e4-b3c2-791451be1d21",
    "resource": {
      "resourceType": "Encounter",
      "id": "bb73ffdb-8286-44e4-b3c2-791451be1d21",
      "identifier": [ {
        "system": "2.16.840.1.113883.2.1.3.2.4.18.34",
        "value": "AdastraCaseGUID34"
      }, {
        "system": "2.16.840.1.113883.2.1.3.2.4.18.35",
        "value": "AdastraCaseID35"
      }, {
        "system": "2.16.840.1.113883.2.1.3.2.4.18.49",
        "value": "AdastraCaseGUID49"
      } ],
      "status": "finished",
      "type": [ {
        "text": "111 Encounter Referral"
      } ],
      "subject": {
        "reference": "urn:uuid:d2f8b894-97db-459e-91cd-7a8788eb1a2e"
      },
      "participant": [ {
        "type": [ {
          "coding": [ {
            "system": "http://hl7.org/fhir/ValueSet/encounter-participant-type",
            "code": "PPRF",
            "display": "Author"
          } ]
        } ],
        "individual": {
          "reference": "urn:uuid:846cb0fb-694d-4d62-9a54-660ff44f9ded"
        }
      }, {
        "type": [ {
          "text": "Informant"
        } ],
        "individual": {
          "reference": "urn:uuid:01f7bd11-e4f0-40f2-8c91-fd3656156494"
        }
      }, {
        "type": [ {
          "coding": [ {
            "system": "http://hl7.org/fhir/ValueSet/encounter-participant-type",
            "code": "ATND",
            "display": "Responsible Party"
          } ]
        } ],
        "individual": {
          "reference": "urn:uuid:ed629747-c389-4016-a2b5-cdc074527bdd"
        }
      } ],
      "period": {
        "start": "2021-04-06T15:13:33+00:00",
        "end": "2021-04-06T15:19:29+00:00"
      },
      "location": [ {
        "location": {
          "reference": "urn:uuid:7a8d53d6-75ac-4740-b1b5-2f11771ff1b9"
        },
        "status": "completed"
      } ],
      "serviceProvider": {
        "reference": "urn:uuid:569354a4-8def-40d4-85f7-2fceb16ec480"
      }
    }
  }, {
    "fullUrl": "urn:uuid:569354a4-8def-40d4-85f7-2fceb16ec480",
    "resource": {
      "resourceType": "Organization",
      "id": "569354a4-8def-40d4-85f7-2fceb16ec480",
      "active": true,
      "type": [ {
        "text": "CST"
      } ],
      "name": "CustodianName"
    }
  }, {
    "fullUrl": "urn:uuid:846cb0fb-694d-4d62-9a54-660ff44f9ded",
    "resource": {
      "resourceType": "Practitioner",
      "id": "846cb0fb-694d-4d62-9a54-660ff44f9ded",
      "active": true,
      "name": [ {
        "use": "official",
        "family": "AuthorAssignedPerson FamilyName",
        "given": [ "AuthorAssignedPerson GivenName" ]
      } ]
    }
  }, {
    "fullUrl": "urn:uuid:01f7bd11-e4f0-40f2-8c91-fd3656156494",
    "resource": {
      "resourceType": "RelatedPerson",
      "id": "01f7bd11-e4f0-40f2-8c91-fd3656156494",
      "active": true,
      "patient": {
        "reference": "urn:uuid:d2f8b894-97db-459e-91cd-7a8788eb1a2e"
      },
      "relationship": {
        "coding": [ {
          "system": "2.16.840.1.113883.2.1.3.2.4.16.45",
          "code": "16",
          "display": "Relative"
        } ]
      },
      "name": [ {
        "text": "RelatedPerson Name"
      } ],
      "telecom": [ {
        "system": "phone",
        "value": "tel:01111111111",
        "use": "home"
      } ],
      "gender": "unknown"
    }
  }, {
    "fullUrl": "urn:uuid:ed629747-c389-4016-a2b5-cdc074527bdd",
    "resource": {
      "resourceType": "Practitioner",
      "id": "ed629747-c389-4016-a2b5-cdc074527bdd",
      "active": true,
      "name": [ {
        "use": "official",
        "family": "ResponsablePartyMD FamilyName",
        "given": [ "ResponsablePartyMD GivenName" ]
      } ]
    }
  }, {
    "fullUrl": "urn:uuid:7a8d53d6-75ac-4740-b1b5-2f11771ff1b9",
    "resource": {
      "resourceType": "Location",
      "id": "7a8d53d6-75ac-4740-b1b5-2f11771ff1b9",
      "name": "Incident Location",
      "address": {
        "type": "physical",
        "line": [ "HealthCareFacility AddressLine1", "HealthCareFacility AddressLine2", "HealthCareFacility AddressLine3", "HealthCareFacility AddressLine4", "HealthCareFacility AddressLine5" ],
        "postalCode": "LOH25 4NS"
      }
    }
  }, {
    "fullUrl": "urn:uuid:d2f8b894-97db-459e-91cd-7a8788eb1a2e",
    "resource": {
      "resourceType": "Patient",
      "id": "d2f8b894-97db-459e-91cd-7a8788eb1a2e",
      "active": true,
      "name": [ {
        "use": "official",
        "family": "Patient Family Name",
        "given": [ "Patient Given Name" ]
      } ],
      "telecom": [ {
        "system": "phone",
        "value": "tel:000000000000",
        "use": "home"
      }, {
        "system": "phone",
        "value": "tel:000000000000"
      } ],
      "gender": "other",
      "birthDate": "1990-02-02",
      "address": [ {
        "use": "home",
        "line": [ "Home Address Line 1", "Home Address Line 2", "Home Address Line 3", "Home Address Line 4", "Home Address Line 5" ],
        "postalCode": "HA25 4NS"
      }, {
        "type": "physical",
        "line": [ "Home Address Line 1", "Home Address Line 2", "Home Address Line 3", "Home Address Line 4", "Home Address Line 5" ],
        "postalCode": "PH25 4NS"
      } ]
    }
  }, {
    "fullUrl": "urn:uuid:dc2caaba-0a26-406b-b6b7-bbb5ad946a0f",
    "resource": {
      "resourceType": "HealthcareService",
      "id": "dc2caaba-0a26-406b-b6b7-bbb5ad946a0f",
      "active": true,
      "providedBy": {
        "reference": "urn:uuid:0131d09b-2c6f-4fdc-a6f1-c9a6844c21d1"
      },
      "location": [ {
        "reference": "urn:uuid:1a10f51d-58d0-479b-94ce-3b0602fb3192"
      } ],
      "name": "InformationRecipient IntendedRecipient Name FHR0"
    }
  }, {
    "fullUrl": "urn:uuid:1a10f51d-58d0-479b-94ce-3b0602fb3192",
    "resource": {
      "resourceType": "Location",
      "id": "1a10f51d-58d0-479b-94ce-3b0602fb3192",
      "managingOrganization": {
        "reference": "urn:uuid:0131d09b-2c6f-4fdc-a6f1-c9a6844c21d1"
      }
    }
  }, {
    "fullUrl": "urn:uuid:0131d09b-2c6f-4fdc-a6f1-c9a6844c21d1",
    "resource": {
      "resourceType": "Organization",
      "id": "0131d09b-2c6f-4fdc-a6f1-c9a6844c21d1",
      "identifier": [ {
        "value": "FHR04RPX"
      } ],
      "type": [ {
        "coding": [ {
          "code": "PRCP",
          "display": "InformationRecipient IntendedRecipient Name FHR0"
        } ]
      } ],
      "name": "InformationRecipient IntendedRecipient Name FHR0"
    }
  }, {
    "fullUrl": "urn:uuid:933352be-d884-452a-910a-2ffc46d43247",
    "resource": {
      "resourceType": "ReferralRequest",
      "id": "933352be-d884-452a-910a-2ffc46d43247",
      "status": "active",
      "intent": "plan",
      "priority": "routine",
      "subject": {
        "reference": "urn:uuid:d2f8b894-97db-459e-91cd-7a8788eb1a2e"
      },
      "context": {
        "reference": "urn:uuid:bb73ffdb-8286-44e4-b3c2-791451be1d21"
      },
      "occurrencePeriod": {
        "start": "2021-04-06T15:19:34+00:00"
      },
      "authoredOn": "2021-04-06T15:19:29+00:00",
      "requester": {
        "agent": {
          "reference": "urn:uuid:e45c8215-68c7-407f-9b7a-21dc566cef86"
        },
        "onBehalfOf": {
          "reference": "urn:uuid:569354a4-8def-40d4-85f7-2fceb16ec480"
        }
      },
      "recipient": [ {
        "reference": "urn:uuid:dc2caaba-0a26-406b-b6b7-bbb5ad946a0f"
      } ],
      "reasonReference": [ {
        "reference": "urn:uuid:eedfb4b7-99eb-48b0-9821-e4bec22fcfd9"
      } ],
      "supportingInfo": [ {
        "reference": "urn:uuid:86b365ce-f1a2-4f77-8346-74526e94deb7"
      } ]
    }
  }, {
    "fullUrl": "urn:uuid:86b365ce-f1a2-4f77-8346-74526e94deb7",
    "resource": {
      "resourceType": "ProcedureRequest",
      "id": "86b365ce-f1a2-4f77-8346-74526e94deb7",
      "status": "active",
      "intent": "plan",
      "priority": "routine",
      "doNotPerform": false,
      "code": {
        "coding": [ {
          "system": "2.16.840.1.113883.2.1.3.2.4.17.325",
          "code": "DispoCodeDx87",
          "display": "DispoName - Repeat Prescription required within 24 hours"
        } ]
      },
      "subject": {
        "reference": "urn:uuid:d2f8b894-97db-459e-91cd-7a8788eb1a2e"
      },
      "occurrencePeriod": {
        "start": "2021-04-06T15:19:34+00:00"
      },
      "reasonReference": [ {
        "reference": "urn:uuid:eedfb4b7-99eb-48b0-9821-e4bec22fcfd9"
      } ]
    }
  }, {
    "fullUrl": "urn:uuid:7ca9311c-a556-4537-b5c5-07ccedcff239",
    "resource": {
      "resourceType": "Composition",
      "id": "7ca9311c-a556-4537-b5c5-07ccedcff239",
      "identifier": {
        "use": "usual",
        "value": "E2DF04F7-95CA-40AD-808D-797C0A89E39C"
      },
      "status": "final",
      "type": {
        "coding": [ {
          "system": "http://snomed.info/sct",
          "code": "371531000",
          "display": "Report of clinical encounter (record artifact)"
        } ]
      },
      "subject": {
        "reference": "urn:uuid:d2f8b894-97db-459e-91cd-7a8788eb1a2e"
      },
      "encounter": {
        "reference": "urn:uuid:bb73ffdb-8286-44e4-b3c2-791451be1d21"
      },
      "date": "2021-04-06T15:19:34+00:00",
      "author": [ {
        "reference": "urn:uuid:846cb0fb-694d-4d62-9a54-660ff44f9ded"
      } ],
      "title": "111 Report",
      "confidentiality": "N",
      "section": [ {
        "section": [ {
          "title": "ComponentTitle - Patient's Reported Condition",
          "text": {
            "status": "generated",
            "div": "<div xmlns=\"http://www.w3.org/1999/xhtml\">&lt;content&gt;ComponentText - Pharmacy ITK Testing&lt;/content&gt;\n                                                    &lt;br/&gt;</div>"
          }
        }, {
          "title": "ComponentTitle - Pathways Disposition",
          "text": {
            "status": "generated",
            "div": "<div xmlns=\"http://www.w3.org/1999/xhtml\">ComponentText - Repeat Prescription required within 24 hours (Dx87)                                         &lt;br/&gt;\n                                                    &lt;br/&gt;                                         Selected service: Springvale, Fraser Road, Kings Worthy, Winchester&lt;br/&gt;</div>"
          }
        }, {
          "title": "ComponentTitle - Consultation Summary",
          "text": {
            "status": "generated",
            "div": "<div xmlns=\"http://www.w3.org/1999/xhtml\">ComponentText - Prescription request&lt;br/&gt;Not enough medication until surgery opens&lt;br/&gt;No medication available&lt;br/&gt;Next dose due in over 12 hours time&lt;br/&gt;</div>"
          }
        }, {
          "title": "ComponentTitle - Pathways Assessment",
          "text": {
            "status": "generated",
            "div": "<div xmlns=\"http://www.w3.org/1999/xhtml\">ComponentText - Reason for call menu - continued to next list.&lt;br/&gt;A prescription request was the main reason for the contact.&lt;br/&gt;The main reason for the contact was not a new or worsening illness.&lt;br/&gt;The individual did not have enough medication to last until the surgery next opened.&lt;br/&gt;The medication was suitable for repeat prescribing without further consultation.&lt;br/&gt;The individual had no medication available.&lt;br/&gt;The next dose was due in over 12 hours time.&lt;br/&gt;Instructions given were: The individual needs a repeat prescription.&lt;br/&gt;Directory of Services referral: Springvale, Fraser Road, Kings Worthy, Winchester&lt;br/&gt;</div>"
          }
        }, {
          "title": "ComponentTitle - Advice Given",
          "text": {
            "status": "generated",
            "div": "<div xmlns=\"http://www.w3.org/1999/xhtml\">ComponentText - I will arrange for a clinician or pharmacist to speak to the individual.&lt;br/&gt;IF THE RECOMMENDED TIMEFRAME FALLS OUTSIDE OPENING HOURS: I will arrange for a clinician to speak to the individual.&lt;br/&gt;\n                                                    &lt;br/&gt;</div>"
          }
        }, {
          "title": "ComponentTitle - Information And Advice Given"
        }, {
          "title": "ComponentTitle - Disposition",
          "text": {
            "status": "generated",
            "div": "<div xmlns=\"http://www.w3.org/1999/xhtml\">&lt;content&gt;ComponentText - Repeat Prescription required within 24 hours&lt;br/&gt;\n                                                    &lt;/content&gt;\n                                                    &lt;br/&gt;\n                                                    &lt;br/&gt;</div>"
          }
        } ]
      }, {
        "title": "CarePlan",
        "entry": [ {
          "reference": "urn:uuid:e8b9b179-eb5c-4711-b40d-bdaeb3d45700"
        } ]
      }, {
        "title": "ReferralRequest",
        "entry": [ {
          "reference": "urn:uuid:933352be-d884-452a-910a-2ffc46d43247"
        } ]
      }, {
        "title": "QuestionnaireResponse",
        "entry": [ {
          "reference": "urn:uuid:b2b1c315-aa2f-4d3e-a1e3-773f4d8559c7"
        } ]
      }, {
        "title": "QuestionnaireResponse",
        "entry": [ {
          "reference": "urn:uuid:5760bb24-8829-47f3-a4c9-aca833781dd6"
        } ]
      }, {
        "title": "QuestionnaireResponse",
        "entry": [ {
          "reference": "urn:uuid:347292c5-7a30-4064-a608-1cf031b3504b"
        } ]
      }, {
        "title": "QuestionnaireResponse",
        "entry": [ {
          "reference": "urn:uuid:8c79befa-9ea6-4867-81fc-97724482be9c"
        } ]
      }, {
        "title": "QuestionnaireResponse",
        "entry": [ {
          "reference": "urn:uuid:e8badb11-4f8e-42f6-8a79-0e79129bf326"
        } ]
      }, {
        "title": "QuestionnaireResponse",
        "entry": [ {
          "reference": "urn:uuid:5ca08279-2d3e-4419-a8e4-e18f3e39ee37"
        } ]
      }, {
        "title": "QuestionnaireResponse",
        "entry": [ {
          "reference": "urn:uuid:cd5458a1-9bda-43d4-9aa0-1636358ef07c"
        } ]
      }, {
        "title": "QuestionnaireResponse",
        "entry": [ {
          "reference": "urn:uuid:56bb51aa-90fa-4f36-b5b4-e065a13c8190"
        } ]
      }, {
        "title": "QuestionnaireResponse",
        "entry": [ {
          "reference": "urn:uuid:0e670025-b412-4167-b994-fd10d0aea876"
        } ]
      }, {
        "title": "QuestionnaireResponse",
        "entry": [ {
          "reference": "urn:uuid:7b44a485-75ff-45ac-877d-e3f834a8c92a"
        } ]
      }, {
        "title": "QuestionnaireResponse",
        "entry": [ {
          "reference": "urn:uuid:f90b89d4-9c1d-4ca4-98e6-60f7c8d7f9b2"
        } ]
      }, {
        "title": "QuestionnaireResponse",
        "entry": [ {
          "reference": "urn:uuid:3a3c3258-6518-4968-8c36-48c2a2280f88"
        } ]
      }, {
        "title": "QuestionnaireResponse",
        "entry": [ {
          "reference": "urn:uuid:ed40ed46-6d42-447b-8897-a4b24c745b52"
        } ]
      }, {
        "title": "QuestionnaireResponse",
        "entry": [ {
          "reference": "urn:uuid:d15a97c6-d606-485b-b676-acd200f5535e"
        } ]
      }, {
        "title": "QuestionnaireResponse",
        "entry": [ {
          "reference": "urn:uuid:20d28ba6-ab33-48da-8ef3-6065f7555958"
        } ]
      } ]
    }
  }, {
    "fullUrl": "urn:uuid:e8b9b179-eb5c-4711-b40d-bdaeb3d45700",
    "resource": {
      "resourceType": "CarePlan",
      "id": "e8b9b179-eb5c-4711-b40d-bdaeb3d45700",
      "status": "completed",
      "intent": "plan",
      "title": "ComponentTitle - Information And Advice Given",
      "subject": {
        "reference": "urn:uuid:d2f8b894-97db-459e-91cd-7a8788eb1a2e"
      },
      "context": {
        "reference": "urn:uuid:bb73ffdb-8286-44e4-b3c2-791451be1d21"
      },
      "period": {
        "start": "2021-04-06T15:13:33+00:00",
        "end": "2021-04-06T15:19:29+00:00"
      },
      "addresses": [ {
        "reference": "urn:uuid:eedfb4b7-99eb-48b0-9821-e4bec22fcfd9"
      } ]
    }
  }, {
    "fullUrl": "urn:uuid:6d579864-53ca-4a3d-be6e-30c92fd118e1",
    "resource": {
      "resourceType": "Consent",
      "id": "6d579864-53ca-4a3d-be6e-30c92fd118e1",
      "identifier": {
        "use": "usual",
        "value": "E2DF04F7-95CA-40AD-808D-797C0A89E39C"
      },
      "status": "active",
      "patient": {
        "reference": "urn:uuid:d2f8b894-97db-459e-91cd-7a8788eb1a2e"
      },
      "period": {
        "start": "2021-04-06T15:13:33+00:00",
        "end": "2021-04-06T15:19:29+00:00"
      },
      "consentingParty": [ {
        "reference": "urn:uuid:d2f8b894-97db-459e-91cd-7a8788eb1a2e"
      } ],
      "action": [ {
        "coding": [ {
          "system": "http://snomed.info/sct",
          "code": "425691002",
          "display": "Consent given for electronic record sharing"
        } ],
        "text": "Consent given for electronic record sharing"
      } ],
      "organization": [ {
        "reference": "urn:uuid:569354a4-8def-40d4-85f7-2fceb16ec480"
      } ],
      "policyRule": "http://hl7.org/fhir/ConsentPolicy/opt-out",
      "data": [ {
        "meaning": "related",
        "reference": {
          "reference": "urn:uuid:bb73ffdb-8286-44e4-b3c2-791451be1d21"
        }
      } ]
    }
  }, {
    "fullUrl": "urn:uuid:eedfb4b7-99eb-48b0-9821-e4bec22fcfd9",
    "resource": {
      "resourceType": "Condition",
      "id": "eedfb4b7-99eb-48b0-9821-e4bec22fcfd9",
      "clinicalStatus": "active",
      "verificationStatus": "unknown",
      "subject": {
        "reference": "urn:uuid:d2f8b894-97db-459e-91cd-7a8788eb1a2e"
      },
      "context": {
        "reference": "urn:uuid:bb73ffdb-8286-44e4-b3c2-791451be1d21"
      },
      "evidence": [ {
        "detail": [ {
          "reference": "urn:uuid:b2b1c315-aa2f-4d3e-a1e3-773f4d8559c7"
        } ]
      }, {
        "detail": [ {
          "reference": "urn:uuid:5760bb24-8829-47f3-a4c9-aca833781dd6"
        } ]
      }, {
        "detail": [ {
          "reference": "urn:uuid:347292c5-7a30-4064-a608-1cf031b3504b"
        } ]
      }, {
        "detail": [ {
          "reference": "urn:uuid:8c79befa-9ea6-4867-81fc-97724482be9c"
        } ]
      }, {
        "detail": [ {
          "reference": "urn:uuid:e8badb11-4f8e-42f6-8a79-0e79129bf326"
        } ]
      }, {
        "detail": [ {
          "reference": "urn:uuid:5ca08279-2d3e-4419-a8e4-e18f3e39ee37"
        } ]
      }, {
        "detail": [ {
          "reference": "urn:uuid:cd5458a1-9bda-43d4-9aa0-1636358ef07c"
        } ]
      }, {
        "detail": [ {
          "reference": "urn:uuid:56bb51aa-90fa-4f36-b5b4-e065a13c8190"
        } ]
      }, {
        "detail": [ {
          "reference": "urn:uuid:0e670025-b412-4167-b994-fd10d0aea876"
        } ]
      }, {
        "detail": [ {
          "reference": "urn:uuid:7b44a485-75ff-45ac-877d-e3f834a8c92a"
        } ]
      }, {
        "detail": [ {
          "reference": "urn:uuid:f90b89d4-9c1d-4ca4-98e6-60f7c8d7f9b2"
        } ]
      }, {
        "detail": [ {
          "reference": "urn:uuid:3a3c3258-6518-4968-8c36-48c2a2280f88"
        } ]
      }, {
        "detail": [ {
          "reference": "urn:uuid:ed40ed46-6d42-447b-8897-a4b24c745b52"
        } ]
      }, {
        "detail": [ {
          "reference": "urn:uuid:d15a97c6-d606-485b-b676-acd200f5535e"
        } ]
      }, {
        "detail": [ {
          "reference": "urn:uuid:20d28ba6-ab33-48da-8ef3-6065f7555958"
        } ]
      } ]
    }
  }, {
    "fullUrl": "urn:uuid:b2b1c315-aa2f-4d3e-a1e3-773f4d8559c7",
    "resource": {
      "resourceType": "QuestionnaireResponse",
      "id": "b2b1c315-aa2f-4d3e-a1e3-773f4d8559c7",
      "identifier": {
        "value": "60319"
      },
      "questionnaire": {
        "reference": "urn:uuid:aaa4edd0-b323-4828-8564-c3323e4f0baa"
      },
      "status": "completed",
      "subject": {
        "reference": "urn:uuid:d2f8b894-97db-459e-91cd-7a8788eb1a2e"
      },
      "context": {
        "reference": "urn:uuid:bb73ffdb-8286-44e4-b3c2-791451be1d21"
      },
      "authored": "2021-04-06T15:19:34+00:00",
      "item": [ {
        "linkId": "Tx220109",
        "text": "What is the reason for the contact?",
        "answer": [ {
          "valueString": "more"
        } ]
      } ]
    }
  }, {
    "fullUrl": "urn:uuid:aaa4edd0-b323-4828-8564-c3323e4f0baa",
    "resource": {
      "resourceType": "Questionnaire",
      "id": "aaa4edd0-b323-4828-8564-c3323e4f0baa",
      "identifier": [ {
        "value": "60319"
      } ],
      "version": "2021-04-06T15:19:34.083Z",
      "status": "active",
      "experimental": false,
      "date": "2021-04-06T15:19:34+00:00",
      "publisher": "User ID: 'HADFIELDR' User name: 'Ryan Hadfield' User skill set: 'T3'",
      "lastReviewDate": "2021-04-06",
      "contact": [ {
        "telecom": [ {
          "system": "phone",
          "value": "0111 111 1111"
        } ]
      } ],
      "subjectType": [ "Patient" ],
      "item": [ {
        "linkId": "60319",
        "prefix": "5",
        "text": "What is the reason for the contact?",
        "type": "choice",
        "required": true,
        "repeats": false,
        "option": [ {
          "valueString": "an injury or other health problem, Selected: false"
        }, {
          "valueString": "a need to access another healthcare service, Selected: false"
        }, {
          "valueString": "a healthcare professional requesting contact with another clinician, Selected: false"
        }, {
          "valueString": "a report of results or tests, Selected: false"
        }, {
          "valueString": "more, Selected: true"
        } ]
      } ]
    }
  }, {
    "fullUrl": "urn:uuid:5760bb24-8829-47f3-a4c9-aca833781dd6",
    "resource": {
      "resourceType": "QuestionnaireResponse",
      "id": "5760bb24-8829-47f3-a4c9-aca833781dd6",
      "identifier": {
        "value": "60319"
      },
      "questionnaire": {
        "reference": "urn:uuid:cf6519c9-2f1d-4b36-8e93-67c8c545a2e9"
      },
      "status": "completed",
      "subject": {
        "reference": "urn:uuid:d2f8b894-97db-459e-91cd-7a8788eb1a2e"
      },
      "context": {
        "reference": "urn:uuid:bb73ffdb-8286-44e4-b3c2-791451be1d21"
      },
      "authored": "2021-04-06T15:19:34+00:00",
      "item": [ {
        "linkId": "Tx221793",
        "text": "STRING:to'Social&information'-further'Callreason'menu",
        "answer": [ {
          "valueString": "\"present\""
        } ]
      } ]
    }
  }, {
    "fullUrl": "urn:uuid:cf6519c9-2f1d-4b36-8e93-67c8c545a2e9",
    "resource": {
      "resourceType": "Questionnaire",
      "id": "cf6519c9-2f1d-4b36-8e93-67c8c545a2e9",
      "identifier": [ {
        "value": "60319"
      } ],
      "version": "2021-04-06T15:19:34.083Z",
      "status": "active",
      "experimental": false,
      "date": "2021-04-06T15:19:34+00:00",
      "publisher": "User ID: 'HADFIELDR' User name: 'Ryan Hadfield' User skill set: 'T3'",
      "lastReviewDate": "2021-04-06",
      "contact": [ {
        "telecom": [ {
          "system": "phone",
          "value": "0111 111 1111"
        } ]
      } ],
      "subjectType": [ "Patient" ],
      "item": [ {
        "linkId": "60319",
        "prefix": "600",
        "text": "STRING:to'Social&information'-further'Callreason'menu",
        "type": "choice",
        "required": true,
        "repeats": false,
        "option": [ {
          "valueString": "\"present\", Selected: true"
        } ]
      } ]
    }
  }, {
    "fullUrl": "urn:uuid:347292c5-7a30-4064-a608-1cf031b3504b",
    "resource": {
      "resourceType": "QuestionnaireResponse",
      "id": "347292c5-7a30-4064-a608-1cf031b3504b",
      "identifier": {
        "value": "60319"
      },
      "questionnaire": {
        "reference": "urn:uuid:b7f46315-3558-4ce7-9b24-587046f4882d"
      },
      "status": "completed",
      "subject": {
        "reference": "urn:uuid:d2f8b894-97db-459e-91cd-7a8788eb1a2e"
      },
      "context": {
        "reference": "urn:uuid:bb73ffdb-8286-44e4-b3c2-791451be1d21"
      },
      "authored": "2021-04-06T15:19:34+00:00"
    }
  }, {
    "fullUrl": "urn:uuid:b7f46315-3558-4ce7-9b24-587046f4882d",
    "resource": {
      "resourceType": "Questionnaire",
      "id": "b7f46315-3558-4ce7-9b24-587046f4882d",
      "identifier": [ {
        "value": "60319"
      } ],
      "version": "2021-04-06T15:19:34.083Z",
      "status": "active",
      "experimental": false,
      "date": "2021-04-06T15:19:34+00:00",
      "publisher": "User ID: 'HADFIELDR' User name: 'Ryan Hadfield' User skill set: 'T3'",
      "lastReviewDate": "2021-04-06",
      "contact": [ {
        "telecom": [ {
          "system": "phone",
          "value": "0111 111 1111"
        } ]
      } ],
      "subjectType": [ "Patient" ]
    }
  }, {
    "fullUrl": "urn:uuid:8c79befa-9ea6-4867-81fc-97724482be9c",
    "resource": {
      "resourceType": "QuestionnaireResponse",
      "id": "8c79befa-9ea6-4867-81fc-97724482be9c",
      "identifier": {
        "value": "60319"
      },
      "questionnaire": {
        "reference": "urn:uuid:fe24e665-5e3d-4b7e-bb43-05a9e1aa337a"
      },
      "status": "completed",
      "subject": {
        "reference": "urn:uuid:d2f8b894-97db-459e-91cd-7a8788eb1a2e"
      },
      "context": {
        "reference": "urn:uuid:bb73ffdb-8286-44e4-b3c2-791451be1d21"
      },
      "authored": "2021-04-06T15:19:34+00:00",
      "item": [ {
        "linkId": "Tx221804",
        "text": "STRING:transfertofurthermenuquestionestablishedinEntryFlow",
        "answer": [ {
          "valueString": "\"present\""
        } ]
      } ]
    }
  }, {
    "fullUrl": "urn:uuid:fe24e665-5e3d-4b7e-bb43-05a9e1aa337a",
    "resource": {
      "resourceType": "Questionnaire",
      "id": "fe24e665-5e3d-4b7e-bb43-05a9e1aa337a",
      "identifier": [ {
        "value": "60319"
      } ],
      "version": "2021-04-06T15:19:34.083Z",
      "status": "active",
      "experimental": false,
      "date": "2021-04-06T15:19:34+00:00",
      "publisher": "User ID: 'HADFIELDR' User name: 'Ryan Hadfield' User skill set: 'T3'",
      "lastReviewDate": "2021-04-06",
      "contact": [ {
        "telecom": [ {
          "system": "phone",
          "value": "0111 111 1111"
        } ]
      } ],
      "subjectType": [ "Patient" ],
      "item": [ {
        "linkId": "60319",
        "prefix": "41",
        "text": "STRING:transfertofurthermenuquestionestablishedinEntryFlow",
        "type": "choice",
        "required": true,
        "repeats": false,
        "option": [ {
          "valueString": "\"present\", Selected: true"
        } ]
      } ]
    }
  }, {
    "fullUrl": "urn:uuid:e8badb11-4f8e-42f6-8a79-0e79129bf326",
    "resource": {
      "resourceType": "QuestionnaireResponse",
      "id": "e8badb11-4f8e-42f6-8a79-0e79129bf326",
      "identifier": {
        "value": "60319"
      },
      "questionnaire": {
        "reference": "urn:uuid:db4bcc52-5318-4935-80e7-f56e72c98108"
      },
      "status": "completed",
      "subject": {
        "reference": "urn:uuid:d2f8b894-97db-459e-91cd-7a8788eb1a2e"
      },
      "context": {
        "reference": "urn:uuid:bb73ffdb-8286-44e4-b3c2-791451be1d21"
      },
      "authored": "2021-04-06T15:19:34+00:00",
      "item": [ {
        "linkId": "Tx224998",
        "text": "SYSTEM_COVIDLEVEL2",
        "answer": [ {
          "valueString": "==\"covidlevel2\""
        } ]
      } ]
    }
  }, {
    "fullUrl": "urn:uuid:db4bcc52-5318-4935-80e7-f56e72c98108",
    "resource": {
      "resourceType": "Questionnaire",
      "id": "db4bcc52-5318-4935-80e7-f56e72c98108",
      "identifier": [ {
        "value": "60319"
      } ],
      "version": "2021-04-06T15:19:34.083Z",
      "status": "active",
      "experimental": false,
      "date": "2021-04-06T15:19:34+00:00",
      "publisher": "User ID: 'HADFIELDR' User name: 'Ryan Hadfield' User skill set: 'T3'",
      "lastReviewDate": "2021-04-06",
      "contact": [ {
        "telecom": [ {
          "system": "phone",
          "value": "0111 111 1111"
        } ]
      } ],
      "subjectType": [ "Patient" ],
      "item": [ {
        "linkId": "60319",
        "prefix": "5900",
        "text": "SYSTEM_COVIDLEVEL2",
        "type": "choice",
        "required": true,
        "repeats": false,
        "option": [ {
          "valueString": "==\"covidlevel2\", Selected: true"
        }, {
          "valueString": "*, Selected: false"
        } ]
      } ]
    }
  }, {
    "fullUrl": "urn:uuid:5ca08279-2d3e-4419-a8e4-e18f3e39ee37",
    "resource": {
      "resourceType": "QuestionnaireResponse",
      "id": "5ca08279-2d3e-4419-a8e4-e18f3e39ee37",
      "identifier": {
        "value": "60319"
      },
      "questionnaire": {
        "reference": "urn:uuid:62de23b3-9d20-42fd-9f09-1d7d1ec3ce74"
      },
      "status": "completed",
      "subject": {
        "reference": "urn:uuid:d2f8b894-97db-459e-91cd-7a8788eb1a2e"
      },
      "context": {
        "reference": "urn:uuid:bb73ffdb-8286-44e4-b3c2-791451be1d21"
      },
      "authored": "2021-04-06T15:19:34+00:00",
      "item": [ {
        "linkId": "Tx225069",
        "text": "What is the reason for the contact?",
        "answer": [ {
          "valueString": "a prescription request"
        } ]
      } ]
    }
  }, {
    "fullUrl": "urn:uuid:62de23b3-9d20-42fd-9f09-1d7d1ec3ce74",
    "resource": {
      "resourceType": "Questionnaire",
      "id": "62de23b3-9d20-42fd-9f09-1d7d1ec3ce74",
      "identifier": [ {
        "value": "60319"
      } ],
      "version": "2021-04-06T15:19:34.083Z",
      "status": "active",
      "experimental": false,
      "date": "2021-04-06T15:19:34+00:00",
      "publisher": "User ID: 'HADFIELDR' User name: 'Ryan Hadfield' User skill set: 'T3'",
      "lastReviewDate": "2021-04-06",
      "contact": [ {
        "telecom": [ {
          "system": "phone",
          "value": "0111 111 1111"
        } ]
      } ],
      "subjectType": [ "Patient" ],
      "item": [ {
        "linkId": "60319",
        "prefix": "6000",
        "text": "What is the reason for the contact?",
        "type": "choice",
        "required": true,
        "repeats": false,
        "option": [ {
          "valueString": "a child protection/vulnerable adult concern (specify), Selected: false"
        }, {
          "valueString": "a social or domestic emergency, Selected: false"
        }, {
          "valueString": "a prescription request, Selected: true"
        }, {
          "valueString": "an appointment request, Selected: false"
        }, {
          "valueString": "a request for health or medication information, Selected: false"
        }, {
          "valueString": "public health alert information, Selected: false"
        } ]
      } ]
    }
  }, {
    "fullUrl": "urn:uuid:cd5458a1-9bda-43d4-9aa0-1636358ef07c",
    "resource": {
      "resourceType": "QuestionnaireResponse",
      "id": "cd5458a1-9bda-43d4-9aa0-1636358ef07c",
      "identifier": {
        "value": "60319"
      },
      "questionnaire": {
        "reference": "urn:uuid:85bd9ca1-c7a4-4981-8091-a13739f38279"
      },
      "status": "completed",
      "subject": {
        "reference": "urn:uuid:d2f8b894-97db-459e-91cd-7a8788eb1a2e"
      },
      "context": {
        "reference": "urn:uuid:bb73ffdb-8286-44e4-b3c2-791451be1d21"
      },
      "authored": "2021-04-06T15:19:34+00:00",
      "item": [ {
        "linkId": "Tx220957",
        "text": "Is this contact about a new or worsening illness?",
        "answer": [ {
          "valueString": "no"
        } ]
      } ]
    }
  }, {
    "fullUrl": "urn:uuid:85bd9ca1-c7a4-4981-8091-a13739f38279",
    "resource": {
      "resourceType": "Questionnaire",
      "id": "85bd9ca1-c7a4-4981-8091-a13739f38279",
      "identifier": [ {
        "value": "60319"
      } ],
      "version": "2021-04-06T15:19:34.083Z",
      "status": "active",
      "experimental": false,
      "date": "2021-04-06T15:19:34+00:00",
      "publisher": "User ID: 'HADFIELDR' User name: 'Ryan Hadfield' User skill set: 'T3'",
      "lastReviewDate": "2021-04-06",
      "contact": [ {
        "telecom": [ {
          "system": "phone",
          "value": "0111 111 1111"
        } ]
      } ],
      "subjectType": [ "Patient" ],
      "item": [ {
        "linkId": "60319",
        "prefix": "1400",
        "text": "Is this contact about a new or worsening illness?",
        "type": "choice",
        "required": true,
        "repeats": false,
        "option": [ {
          "valueString": "yes, Selected: false"
        }, {
          "valueString": "not sure, Selected: false"
        }, {
          "valueString": "no, Selected: true"
        } ]
      } ]
    }
  }, {
    "fullUrl": "urn:uuid:56bb51aa-90fa-4f36-b5b4-e065a13c8190",
    "resource": {
      "resourceType": "QuestionnaireResponse",
      "id": "56bb51aa-90fa-4f36-b5b4-e065a13c8190",
      "identifier": {
        "value": "60319"
      },
      "questionnaire": {
        "reference": "urn:uuid:4f904b4f-1f3c-4f71-b0bd-ba955f8cbd7e"
      },
      "status": "completed",
      "subject": {
        "reference": "urn:uuid:d2f8b894-97db-459e-91cd-7a8788eb1a2e"
      },
      "context": {
        "reference": "urn:uuid:bb73ffdb-8286-44e4-b3c2-791451be1d21"
      },
      "authored": "2021-04-06T15:19:34+00:00",
      "item": [ {
        "linkId": "Tx221352",
        "text": "Have you got enough medication to last until the surgery opens?",
        "answer": [ {
          "valueString": "no"
        } ]
      } ]
    }
  }, {
    "fullUrl": "urn:uuid:4f904b4f-1f3c-4f71-b0bd-ba955f8cbd7e",
    "resource": {
      "resourceType": "Questionnaire",
      "id": "4f904b4f-1f3c-4f71-b0bd-ba955f8cbd7e",
      "identifier": [ {
        "value": "60319"
      } ],
      "version": "2021-04-06T15:19:34.083Z",
      "status": "active",
      "experimental": false,
      "date": "2021-04-06T15:19:34+00:00",
      "publisher": "User ID: 'HADFIELDR' User name: 'Ryan Hadfield' User skill set: 'T3'",
      "lastReviewDate": "2021-04-06",
      "contact": [ {
        "telecom": [ {
          "system": "phone",
          "value": "0111 111 1111"
        } ]
      } ],
      "subjectType": [ "Patient" ],
      "item": [ {
        "linkId": "60319",
        "prefix": "1500",
        "text": "Have you got enough medication to last until the surgery opens?",
        "type": "choice",
        "required": true,
        "repeats": false,
        "option": [ {
          "valueString": "yes, Selected: false"
        }, {
          "valueString": "not sure, Selected: false"
        }, {
          "valueString": "no, Selected: true"
        } ]
      } ]
    }
  }, {
    "fullUrl": "urn:uuid:0e670025-b412-4167-b994-fd10d0aea876",
    "resource": {
      "resourceType": "QuestionnaireResponse",
      "id": "0e670025-b412-4167-b994-fd10d0aea876",
      "identifier": {
        "value": "60319"
      },
      "questionnaire": {
        "reference": "urn:uuid:317e2782-c123-4b11-8f80-d85758ad04e8"
      },
      "status": "completed",
      "subject": {
        "reference": "urn:uuid:d2f8b894-97db-459e-91cd-7a8788eb1a2e"
      },
      "context": {
        "reference": "urn:uuid:bb73ffdb-8286-44e4-b3c2-791451be1d21"
      },
      "authored": "2021-04-06T15:19:34+00:00"
    }
  }, {
    "fullUrl": "urn:uuid:317e2782-c123-4b11-8f80-d85758ad04e8",
    "resource": {
      "resourceType": "Questionnaire",
      "id": "317e2782-c123-4b11-8f80-d85758ad04e8",
      "identifier": [ {
        "value": "60319"
      } ],
      "version": "2021-04-06T15:19:34.083Z",
      "status": "active",
      "experimental": false,
      "date": "2021-04-06T15:19:34+00:00",
      "publisher": "User ID: 'HADFIELDR' User name: 'Ryan Hadfield' User skill set: 'T3'",
      "lastReviewDate": "2021-04-06",
      "contact": [ {
        "telecom": [ {
          "system": "phone",
          "value": "0111 111 1111"
        } ]
      } ],
      "subjectType": [ "Patient" ]
    }
  }, {
    "fullUrl": "urn:uuid:7b44a485-75ff-45ac-877d-e3f834a8c92a",
    "resource": {
      "resourceType": "QuestionnaireResponse",
      "id": "7b44a485-75ff-45ac-877d-e3f834a8c92a",
      "identifier": {
        "value": "60319"
      },
      "questionnaire": {
        "reference": "urn:uuid:c30152ae-6459-4c2a-bb80-1e49d909b272"
      },
      "status": "completed",
      "subject": {
        "reference": "urn:uuid:d2f8b894-97db-459e-91cd-7a8788eb1a2e"
      },
      "context": {
        "reference": "urn:uuid:bb73ffdb-8286-44e4-b3c2-791451be1d21"
      },
      "authored": "2021-04-06T15:19:34+00:00",
      "item": [ {
        "linkId": "Tx224231",
        "text": "FROM WHAT YOU HAVE HEARD IS A CONSULTATION WITH A PRESCRIBER NEEDED?",
        "answer": [ {
          "valueString": "no"
        } ]
      } ]
    }
  }, {
    "fullUrl": "urn:uuid:c30152ae-6459-4c2a-bb80-1e49d909b272",
    "resource": {
      "resourceType": "Questionnaire",
      "id": "c30152ae-6459-4c2a-bb80-1e49d909b272",
      "identifier": [ {
        "value": "60319"
      } ],
      "version": "2021-04-06T15:19:34.083Z",
      "status": "active",
      "experimental": false,
      "date": "2021-04-06T15:19:34+00:00",
      "publisher": "User ID: 'HADFIELDR' User name: 'Ryan Hadfield' User skill set: 'T3'",
      "lastReviewDate": "2021-04-06",
      "contact": [ {
        "telecom": [ {
          "system": "phone",
          "value": "0111 111 1111"
        } ]
      } ],
      "subjectType": [ "Patient" ],
      "item": [ {
        "linkId": "60319",
        "prefix": "0",
        "text": "FROM WHAT YOU HAVE HEARD IS A CONSULTATION WITH A PRESCRIBER NEEDED?",
        "type": "choice",
        "required": true,
        "repeats": false,
        "option": [ {
          "valueString": "yes, Selected: false"
        }, {
          "valueString": "not sure, Selected: false"
        }, {
          "valueString": "no, Selected: true"
        } ]
      } ]
    }
  }, {
    "fullUrl": "urn:uuid:f90b89d4-9c1d-4ca4-98e6-60f7c8d7f9b2",
    "resource": {
      "resourceType": "QuestionnaireResponse",
      "id": "f90b89d4-9c1d-4ca4-98e6-60f7c8d7f9b2",
      "identifier": {
        "value": "60319"
      },
      "questionnaire": {
        "reference": "urn:uuid:9c9d927a-71de-4500-902a-f9c3682de7a8"
      },
      "status": "completed",
      "subject": {
        "reference": "urn:uuid:d2f8b894-97db-459e-91cd-7a8788eb1a2e"
      },
      "context": {
        "reference": "urn:uuid:bb73ffdb-8286-44e4-b3c2-791451be1d21"
      },
      "authored": "2021-04-06T15:19:34+00:00",
      "item": [ {
        "linkId": "Tx222687",
        "text": "Have you got any of the medication available at the moment?",
        "answer": [ {
          "valueString": "no"
        } ]
      } ]
    }
  }, {
    "fullUrl": "urn:uuid:9c9d927a-71de-4500-902a-f9c3682de7a8",
    "resource": {
      "resourceType": "Questionnaire",
      "id": "9c9d927a-71de-4500-902a-f9c3682de7a8",
      "identifier": [ {
        "value": "60319"
      } ],
      "version": "2021-04-06T15:19:34.083Z",
      "status": "active",
      "experimental": false,
      "date": "2021-04-06T15:19:34+00:00",
      "publisher": "User ID: 'HADFIELDR' User name: 'Ryan Hadfield' User skill set: 'T3'",
      "lastReviewDate": "2021-04-06",
      "contact": [ {
        "telecom": [ {
          "system": "phone",
          "value": "0111 111 1111"
        } ]
      } ],
      "subjectType": [ "Patient" ],
      "item": [ {
        "linkId": "60319",
        "prefix": "200",
        "text": "Have you got any of the medication available at the moment?",
        "type": "choice",
        "required": true,
        "repeats": false,
        "option": [ {
          "valueString": "yes, Selected: false"
        }, {
          "valueString": "not sure, Selected: false"
        }, {
          "valueString": "no, Selected: true"
        } ]
      } ]
    }
  }, {
    "fullUrl": "urn:uuid:3a3c3258-6518-4968-8c36-48c2a2280f88",
    "resource": {
      "resourceType": "QuestionnaireResponse",
      "id": "3a3c3258-6518-4968-8c36-48c2a2280f88",
      "identifier": {
        "value": "60319"
      },
      "questionnaire": {
        "reference": "urn:uuid:fb9a9adc-846e-4ceb-8678-7ebde1b765d1"
      },
      "status": "completed",
      "subject": {
        "reference": "urn:uuid:d2f8b894-97db-459e-91cd-7a8788eb1a2e"
      },
      "context": {
        "reference": "urn:uuid:bb73ffdb-8286-44e4-b3c2-791451be1d21"
      },
      "authored": "2021-04-06T15:19:34+00:00",
      "item": [ {
        "linkId": "Tx221367",
        "text": "When is the next dose due?",
        "answer": [ {
          "valueString": "over 12 hours time"
        } ]
      } ]
    }
  }, {
    "fullUrl": "urn:uuid:fb9a9adc-846e-4ceb-8678-7ebde1b765d1",
    "resource": {
      "resourceType": "Questionnaire",
      "id": "fb9a9adc-846e-4ceb-8678-7ebde1b765d1",
      "identifier": [ {
        "value": "60319"
      } ],
      "version": "2021-04-06T15:19:34.083Z",
      "status": "active",
      "experimental": false,
      "date": "2021-04-06T15:19:34+00:00",
      "publisher": "User ID: 'HADFIELDR' User name: 'Ryan Hadfield' User skill set: 'T3'",
      "lastReviewDate": "2021-04-06",
      "contact": [ {
        "telecom": [ {
          "system": "phone",
          "value": "0111 111 1111"
        } ]
      } ],
      "subjectType": [ "Patient" ],
      "item": [ {
        "linkId": "60319",
        "prefix": "100",
        "text": "When is the next dose due?",
        "type": "choice",
        "required": true,
        "repeats": false,
        "option": [ {
          "valueString": "within the next 2 hours, Selected: false"
        }, {
          "valueString": "within the next 6 hours, Selected: false"
        }, {
          "valueString": "within the next 12 hours, Selected: false"
        }, {
          "valueString": "over 12 hours time, Selected: true"
        }, {
          "valueString": "not sure, Selected: false"
        } ]
      } ]
    }
  }, {
    "fullUrl": "urn:uuid:ed40ed46-6d42-447b-8897-a4b24c745b52",
    "resource": {
      "resourceType": "QuestionnaireResponse",
      "id": "ed40ed46-6d42-447b-8897-a4b24c745b52",
      "identifier": {
        "value": "60319"
      },
      "questionnaire": {
        "reference": "urn:uuid:3bb050b1-1bd9-466f-8a19-1c9429fae5ef"
      },
      "status": "completed",
      "subject": {
        "reference": "urn:uuid:d2f8b894-97db-459e-91cd-7a8788eb1a2e"
      },
      "context": {
        "reference": "urn:uuid:bb73ffdb-8286-44e4-b3c2-791451be1d21"
      },
      "authored": "2021-04-06T15:19:34+00:00",
      "item": [ {
        "linkId": "Tx223441",
        "text": "STRING:SDPCRepeatPrescription",
        "answer": [ {
          "valueString": "\"PC repeat prescription\""
        } ]
      } ]
    }
  }, {
    "fullUrl": "urn:uuid:3bb050b1-1bd9-466f-8a19-1c9429fae5ef",
    "resource": {
      "resourceType": "Questionnaire",
      "id": "3bb050b1-1bd9-466f-8a19-1c9429fae5ef",
      "identifier": [ {
        "value": "60319"
      } ],
      "version": "2021-04-06T15:19:34.083Z",
      "status": "active",
      "experimental": false,
      "date": "2021-04-06T15:19:34+00:00",
      "publisher": "User ID: 'HADFIELDR' User name: 'Ryan Hadfield' User skill set: 'T3'",
      "lastReviewDate": "2021-04-06",
      "contact": [ {
        "telecom": [ {
          "system": "phone",
          "value": "0111 111 1111"
        } ]
      } ],
      "subjectType": [ "Patient" ],
      "item": [ {
        "linkId": "60319",
        "prefix": "1100",
        "text": "STRING:SDPCRepeatPrescription",
        "type": "choice",
        "required": true,
        "repeats": false,
        "option": [ {
          "valueString": "\"PC repeat prescription\", Selected: true"
        } ]
      } ]
    }
  }, {
    "fullUrl": "urn:uuid:d15a97c6-d606-485b-b676-acd200f5535e",
    "resource": {
      "resourceType": "QuestionnaireResponse",
      "id": "d15a97c6-d606-485b-b676-acd200f5535e",
      "identifier": {
        "value": "60319"
      },
      "questionnaire": {
        "reference": "urn:uuid:a27ffc1b-962e-4bfe-81d8-cc621a67634e"
      },
      "status": "completed",
      "subject": {
        "reference": "urn:uuid:d2f8b894-97db-459e-91cd-7a8788eb1a2e"
      },
      "context": {
        "reference": "urn:uuid:bb73ffdb-8286-44e4-b3c2-791451be1d21"
      },
      "authored": "2021-04-06T15:19:34+00:00"
    }
  }, {
    "fullUrl": "urn:uuid:a27ffc1b-962e-4bfe-81d8-cc621a67634e",
    "resource": {
      "resourceType": "Questionnaire",
      "id": "a27ffc1b-962e-4bfe-81d8-cc621a67634e",
      "identifier": [ {
        "value": "60319"
      } ],
      "version": "2021-04-06T15:19:34.083Z",
      "status": "active",
      "experimental": false,
      "date": "2021-04-06T15:19:34+00:00",
      "publisher": "User ID: 'HADFIELDR' User name: 'Ryan Hadfield' User skill set: 'T3'",
      "lastReviewDate": "2021-04-06",
      "contact": [ {
        "telecom": [ {
          "system": "phone",
          "value": "0111 111 1111"
        } ]
      } ],
      "subjectType": [ "Patient" ]
    }
  }, {
    "fullUrl": "urn:uuid:20d28ba6-ab33-48da-8ef3-6065f7555958",
    "resource": {
      "resourceType": "QuestionnaireResponse",
      "id": "20d28ba6-ab33-48da-8ef3-6065f7555958",
      "identifier": {
        "value": "60319"
      },
      "questionnaire": {
        "reference": "urn:uuid:19e6b214-a98c-47e0-b175-43e137610e32"
      },
      "status": "completed",
      "subject": {
        "reference": "urn:uuid:d2f8b894-97db-459e-91cd-7a8788eb1a2e"
      },
      "context": {
        "reference": "urn:uuid:bb73ffdb-8286-44e4-b3c2-791451be1d21"
      },
      "authored": "2021-04-06T15:19:34+00:00"
    }
  }, {
    "fullUrl": "urn:uuid:19e6b214-a98c-47e0-b175-43e137610e32",
    "resource": {
      "resourceType": "Questionnaire",
      "id": "19e6b214-a98c-47e0-b175-43e137610e32",
      "identifier": [ {
        "value": "60319"
      } ],
      "version": "2021-04-06T15:19:34.083Z",
      "status": "active",
      "experimental": false,
      "date": "2021-04-06T15:19:34+00:00",
      "publisher": "User ID: 'HADFIELDR' User name: 'Ryan Hadfield' User skill set: 'T3'",
      "lastReviewDate": "2021-04-06",
      "contact": [ {
        "telecom": [ {
          "system": "phone",
          "value": "0111 111 1111"
        } ]
      } ],
      "subjectType": [ "Patient" ]
    }
  }, {
    "fullUrl": "urn:uuid:95d847d4-8106-4641-a6c3-67ab94ef2efe",
    "resource": {
      "resourceType": "PractitionerRole",
      "id": "95d847d4-8106-4641-a6c3-67ab94ef2efe",
      "practitioner": {
        "reference": "urn:uuid:846cb0fb-694d-4d62-9a54-660ff44f9ded"
      },
      "organization": {
        "reference": "urn:uuid:45820e94-d607-49e9-8896-96fa5ddb3734"
      },
      "code": [ {
        "coding": [ {
          "system": "2.16.840.1.113883.2.1.3.2.4.17.339",
          "code": "DOCTOR",
          "display": "Doctor"
        } ]
      } ]
    }
  }, {
    "fullUrl": "urn:uuid:45820e94-d607-49e9-8896-96fa5ddb3734",
    "resource": {
      "resourceType": "Organization",
      "id": "45820e94-d607-49e9-8896-96fa5ddb3734",
      "identifier": [ {
        "value": "RYE"
      } ],
      "name": "RepresentedOrg Name"
    }
  }, {
    "fullUrl": "urn:uuid:28a6c976-0e7e-42c7-92bd-c89a9aff02ff",
    "resource": {
      "resourceType": "PractitionerRole",
      "id": "28a6c976-0e7e-42c7-92bd-c89a9aff02ff",
      "practitioner": {
        "reference": "urn:uuid:ed629747-c389-4016-a2b5-cdc074527bdd"
      },
      "organization": {
        "reference": "urn:uuid:4ed11a64-f533-46b6-b536-1e5fc20ab252"
      },
      "code": [ {
        "coding": [ {
          "system": "2.16.840.1.113883.2.1.3.2.4.17.196",
          "code": "R0010",
          "display": "Medical Director"
        } ]
      } ]
    }
  }, {
    "fullUrl": "urn:uuid:4ed11a64-f533-46b6-b536-1e5fc20ab252",
    "resource": {
      "resourceType": "Organization",
      "id": "4ed11a64-f533-46b6-b536-1e5fc20ab252",
      "identifier": [ {
        "value": "RYE"
      } ],
      "name": "RepresentedOrgNameRYE"
    }
  }, {
    "fullUrl": "urn:uuid:4ba8d114-3c23-4590-902a-641e6ac29598",
    "resource": {
      "resourceType": "RelatedPerson",
      "id": "4ba8d114-3c23-4590-902a-641e6ac29598",
      "patient": {
        "reference": "urn:uuid:d2f8b894-97db-459e-91cd-7a8788eb1a2e"
      },
      "relationship": {
        "coding": [ {
          "system": "http://hl7.org/fhir/v2/0131",
          "code": "C",
          "display": "Emergency Contact"
        } ]
      },
      "telecom": [ {
        "system": "phone",
        "value": "tel:000000000000"
      } ]
    }
  }, {
    "fullUrl": "urn:uuid:e45c8215-68c7-407f-9b7a-21dc566cef86",
    "resource": {
      "resourceType": "Device",
      "id": "e45c8215-68c7-407f-9b7a-21dc566cef86",
      "model": "111 Adaptor",
      "version": "1.0.3"
    }
  }, {
    "fullUrl": "urn:uuid:b4168ae6-3f82-419f-8fa2-2c26db4b7950",
    "resource": {
      "resourceType": "List",
      "id": "b4168ae6-3f82-419f-8fa2-2c26db4b7950",
      "status": "current",
      "mode": "working",
      "title": "111 Report List",
      "code": {
        "coding": [ {
          "system": "http://snomed.info/sct",
          "code": "225390008",
          "display": "Triage"
        } ]
      },
      "subject": {
        "reference": "urn:uuid:d2f8b894-97db-459e-91cd-7a8788eb1a2e"
      },
      "encounter": {
        "reference": "urn:uuid:bb73ffdb-8286-44e4-b3c2-791451be1d21"
      },
      "date": "2021-04-06T15:19:34+00:00",
      "source": {
        "reference": "urn:uuid:e45c8215-68c7-407f-9b7a-21dc566cef86"
      },
      "orderedBy": {
        "coding": [ {
          "system": "http://hl7.org/fhir/list-order",
          "code": "event-date",
          "display": "Sorted by Event Date"
        } ]
      },
      "entry": [ {
        "item": {
          "reference": "urn:uuid:ed629747-c389-4016-a2b5-cdc074527bdd"
        }
      }, {
        "item": {
          "reference": "urn:uuid:eedfb4b7-99eb-48b0-9821-e4bec22fcfd9"
        }
      }, {
        "item": {
          "reference": "urn:uuid:01f7bd11-e4f0-40f2-8c91-fd3656156494"
        }
      }, {
        "item": {
          "reference": "urn:uuid:4ba8d114-3c23-4590-902a-641e6ac29598"
        }
      }, {
        "item": {
          "reference": "urn:uuid:569354a4-8def-40d4-85f7-2fceb16ec480"
        }
      }, {
        "item": {
          "reference": "urn:uuid:846cb0fb-694d-4d62-9a54-660ff44f9ded"
        }
      }, {
        "item": {
          "reference": "urn:uuid:0131d09b-2c6f-4fdc-a6f1-c9a6844c21d1"
        }
      }, {
        "item": {
          "reference": "urn:uuid:45820e94-d607-49e9-8896-96fa5ddb3734"
        }
      }, {
        "item": {
          "reference": "urn:uuid:4ed11a64-f533-46b6-b536-1e5fc20ab252"
        }
      }, {
        "item": {
          "reference": "urn:uuid:ed40ed46-6d42-447b-8897-a4b24c745b52"
        }
      }, {
        "item": {
          "reference": "urn:uuid:5760bb24-8829-47f3-a4c9-aca833781dd6"
        }
      }, {
        "item": {
          "reference": "urn:uuid:8c79befa-9ea6-4867-81fc-97724482be9c"
        }
      }, {
        "item": {
          "reference": "urn:uuid:7b44a485-75ff-45ac-877d-e3f834a8c92a"
        }
      }, {
        "item": {
          "reference": "urn:uuid:f90b89d4-9c1d-4ca4-98e6-60f7c8d7f9b2"
        }
      }, {
        "item": {
          "reference": "urn:uuid:3bb050b1-1bd9-466f-8a19-1c9429fae5ef"
        }
      }, {
        "item": {
          "reference": "urn:uuid:db4bcc52-5318-4935-80e7-f56e72c98108"
        }
      }, {
        "item": {
          "reference": "urn:uuid:cd5458a1-9bda-43d4-9aa0-1636358ef07c"
        }
      }, {
        "item": {
          "reference": "urn:uuid:62de23b3-9d20-42fd-9f09-1d7d1ec3ce74"
        }
      }, {
        "item": {
          "reference": "urn:uuid:a27ffc1b-962e-4bfe-81d8-cc621a67634e"
        }
      }, {
        "item": {
          "reference": "urn:uuid:0e670025-b412-4167-b994-fd10d0aea876"
        }
      }, {
        "item": {
          "reference": "urn:uuid:fb9a9adc-846e-4ceb-8678-7ebde1b765d1"
        }
      }, {
        "item": {
          "reference": "urn:uuid:b7f46315-3558-4ce7-9b24-587046f4882d"
        }
      }, {
        "item": {
          "reference": "urn:uuid:9c9d927a-71de-4500-902a-f9c3682de7a8"
        }
      }, {
        "item": {
          "reference": "urn:uuid:4f904b4f-1f3c-4f71-b0bd-ba955f8cbd7e"
        }
      }, {
        "item": {
          "reference": "urn:uuid:5ca08279-2d3e-4419-a8e4-e18f3e39ee37"
        }
      }, {
        "item": {
          "reference": "urn:uuid:19e6b214-a98c-47e0-b175-43e137610e32"
        }
      }, {
        "item": {
          "reference": "urn:uuid:56bb51aa-90fa-4f36-b5b4-e065a13c8190"
        }
      }, {
        "item": {
          "reference": "urn:uuid:347292c5-7a30-4064-a608-1cf031b3504b"
        }
      }, {
        "item": {
          "reference": "urn:uuid:3a3c3258-6518-4968-8c36-48c2a2280f88"
        }
      }, {
        "item": {
          "reference": "urn:uuid:cf6519c9-2f1d-4b36-8e93-67c8c545a2e9"
        }
      }, {
        "item": {
          "reference": "urn:uuid:317e2782-c123-4b11-8f80-d85758ad04e8"
        }
      }, {
        "item": {
          "reference": "urn:uuid:85bd9ca1-c7a4-4981-8091-a13739f38279"
        }
      }, {
        "item": {
          "reference": "urn:uuid:d15a97c6-d606-485b-b676-acd200f5535e"
        }
      }, {
        "item": {
          "reference": "urn:uuid:20d28ba6-ab33-48da-8ef3-6065f7555958"
        }
      }, {
        "item": {
          "reference": "urn:uuid:fe24e665-5e3d-4b7e-bb43-05a9e1aa337a"
        }
      }, {
        "item": {
          "reference": "urn:uuid:b2b1c315-aa2f-4d3e-a1e3-773f4d8559c7"
        }
      }, {
        "item": {
          "reference": "urn:uuid:c30152ae-6459-4c2a-bb80-1e49d909b272"
        }
      }, {
        "item": {
          "reference": "urn:uuid:e8badb11-4f8e-42f6-8a79-0e79129bf326"
        }
      }, {
        "item": {
          "reference": "urn:uuid:aaa4edd0-b323-4828-8564-c3323e4f0baa"
        }
      }, {
        "item": {
          "reference": "urn:uuid:933352be-d884-452a-910a-2ffc46d43247"
        }
      } ]
    }
  } ]
}