{
  "resourceType": "Bundle",
  "identifier": {
    "type": {
      "text": "ClinicalDocument VersionNumber"
    },
    "value": "1"
  },
  "type": "message",
  "entry": [ {
    "fullUrl": "urn:uuid:05040617-33BA-4344-AA59-281CF2FE63CA",
    "resource": {
      "resourceType": "MessageHeader",
      "id": "05040617-33BA-4344-AA59-281CF2FE63CA",
      "event": {
        "system": "https://fhir.nhs.uk/STU3/CodeSystem/EventType-1",
        "code": "referral-1",
        "display": "Referral"
      },
      "destination": [ {
        "endpoint": "urn:nhs-uk:addressing:ods:FHR04RPX:DOSServiceID:2000038667"
      } ],
      "timestamp": "2021-04-06T15:19:34.000+00:00",
      "source": {
        "name": "NHS 111 Adaptor",
        "endpoint": "http://localhost:8080/report"
      },
      "reason": {
        "coding": [ {
          "system": "urn:nhs-itk:ns:201005:interaction",
          "code": "urn:nhs-itk:interaction:primaryOutofHourRecipientNHS111CDADocument-v2-0"
        } ]
      }
    }
  }, {
    "fullUrl": "urn:uuid:57e9ce35-2d34-41b6-814a-c8996bbbc38c",
    "resource": {
      "resourceType": "Encounter",
      "id": "57e9ce35-2d34-41b6-814a-c8996bbbc38c",
      "identifier": [ {
        "system": "2.16.840.1.113883.2.1.3.2.4.18.34",
        "value": "AdastraCaseGUID34"
      }, {
        "system": "2.16.840.1.113883.2.1.3.2.4.18.35",
        "value": "AdastraCaseID35"
      }, {
        "system": "2.16.840.1.113883.2.1.3.2.4.18.49",
        "value": "AdastraCaseGUID49"
      } ],
      "status": "finished",
      "type": [ {
        "text": "111 Encounter Referral"
      } ],
      "subject": {
        "reference": "urn:uuid:82e73d34-8dca-409b-ac32-95e5a37a7223"
      },
      "participant": [ {
        "type": [ {
          "coding": [ {
            "system": "http://hl7.org/fhir/ValueSet/encounter-participant-type",
            "code": "PPRF",
            "display": "Author"
          } ]
        } ],
        "individual": {
          "reference": "urn:uuid:bd76c642-b86c-4a97-ae1a-274614435ec3"
        }
      }, {
        "type": [ {
          "text": "Informant"
        } ],
        "individual": {
          "reference": "urn:uuid:256f08c8-2878-48d8-b6b5-3753b6286356"
        }
      }, {
        "type": [ {
          "coding": [ {
            "system": "http://hl7.org/fhir/ValueSet/encounter-participant-type",
            "code": "ATND",
            "display": "Responsible Party"
          } ]
        } ],
        "individual": {
          "reference": "urn:uuid:b3d78a0c-fdb8-4a7f-9881-cb164286165a"
        }
      } ],
      "period": {
        "start": "2021-04-06T15:19:34+00:00"
      },
      "location": [ {
        "location": {
          "reference": "urn:uuid:5be8c6ce-0108-4b76-a832-5be428d5a5ff"
        },
        "status": "completed"
      } ],
      "serviceProvider": {
        "reference": "urn:uuid:459df022-6ae1-4877-b54e-364eab4408cb"
      }
    }
  }, {
    "fullUrl": "urn:uuid:459df022-6ae1-4877-b54e-364eab4408cb",
    "resource": {
      "resourceType": "Organization",
      "id": "459df022-6ae1-4877-b54e-364eab4408cb",
      "active": true,
      "type": [ {
        "text": "CST"
      } ],
      "name": "CustodianName"
    }
  }, {
    "fullUrl": "urn:uuid:bd76c642-b86c-4a97-ae1a-274614435ec3",
    "resource": {
      "resourceType": "Practitioner",
      "id": "bd76c642-b86c-4a97-ae1a-274614435ec3",
      "active": true,
      "name": [ {
        "use": "official",
        "family": "AuthorAssignedPerson FamilyName",
        "given": [ "AuthorAssignedPerson GivenName" ]
      } ]
    }
  }, {
    "fullUrl": "urn:uuid:256f08c8-2878-48d8-b6b5-3753b6286356",
    "resource": {
      "resourceType": "RelatedPerson",
      "id": "256f08c8-2878-48d8-b6b5-3753b6286356",
      "active": true,
      "patient": {
        "reference": "urn:uuid:82e73d34-8dca-409b-ac32-95e5a37a7223"
      },
      "relationship": {
        "coding": [ {
          "system": "2.16.840.1.113883.2.1.3.2.4.16.45",
          "code": "16",
          "display": "Relative"
        } ]
      },
      "name": [ {
        "text": "RelatedPerson Name"
      } ],
      "telecom": [ {
        "system": "phone",
        "value": "tel:01111111111",
        "use": "home"
      } ],
      "gender": "unknown"
    }
  }, {
    "fullUrl": "urn:uuid:b3d78a0c-fdb8-4a7f-9881-cb164286165a",
    "resource": {
      "resourceType": "Practitioner",
      "id": "b3d78a0c-fdb8-4a7f-9881-cb164286165a",
      "active": true,
      "name": [ {
        "use": "official",
        "family": "ResponsablePartyMD FamilyName",
        "given": [ "ResponsablePartyMD GivenName" ]
      } ]
    }
  }, {
    "fullUrl": "urn:uuid:5be8c6ce-0108-4b76-a832-5be428d5a5ff",
    "resource": {
      "resourceType": "Location",
      "id": "5be8c6ce-0108-4b76-a832-5be428d5a5ff",
      "name": "Incident Location",
      "address": {
        "type": "physical",
        "line": [ "HealthCareFacility AddressLine1", "HealthCareFacility AddressLine2", "HealthCareFacility AddressLine3", "HealthCareFacility AddressLine4", "HealthCareFacility AddressLine5" ],
        "postalCode": "LOH25 4NS"
      }
    }
  }, {
    "fullUrl": "urn:uuid:82e73d34-8dca-409b-ac32-95e5a37a7223",
    "resource": {
      "resourceType": "Patient",
      "id": "82e73d34-8dca-409b-ac32-95e5a37a7223",
      "active": true,
      "name": [ {
        "use": "official",
        "family": "Patient Family Name",
        "given": [ "Patient Given Name" ]
      } ],
      "telecom": [ {
        "system": "phone",
        "value": "tel:000000000000",
        "use": "home"
      }, {
        "system": "phone",
        "value": "tel:000000000000"
      } ],
      "gender": "other",
      "birthDate": "1990-02-02",
      "address": [ {
        "use": "home",
        "line": [ "Home Address Line 1", "Home Address Line 2", "Home Address Line 3", "Home Address Line 4", "Home Address Line 5" ],
        "postalCode": "HA25 4NS"
      }, {
        "type": "physical",
        "line": [ "Home Address Line 1", "Home Address Line 2", "Home Address Line 3", "Home Address Line 4", "Home Address Line 5" ],
        "postalCode": "PH25 4NS"
      } ]
    }
  }, {
    "fullUrl": "urn:uuid:970c15e2-12b4-4b61-a321-44d08bf2addb",
    "resource": {
      "resourceType": "HealthcareService",
      "id": "970c15e2-12b4-4b61-a321-44d08bf2addb",
      "active": true,
      "providedBy": {
        "reference": "urn:uuid:5c895ac6-e4dc-4185-afb1-ecda3885b006"
      },
      "location": [ {
        "reference": "urn:uuid:893b4a30-59e9-493d-98f3-ae43caa286d7"
      } ],
      "name": "InformationRecipient IntendedRecipient Name FHR0"
    }
  }, {
    "fullUrl": "urn:uuid:893b4a30-59e9-493d-98f3-ae43caa286d7",
    "resource": {
      "resourceType": "Location",
      "id": "893b4a30-59e9-493d-98f3-ae43caa286d7",
      "managingOrganization": {
        "reference": "urn:uuid:5c895ac6-e4dc-4185-afb1-ecda3885b006"
      }
    }
  }, {
    "fullUrl": "urn:uuid:5c895ac6-e4dc-4185-afb1-ecda3885b006",
    "resource": {
      "resourceType": "Organization",
      "id": "5c895ac6-e4dc-4185-afb1-ecda3885b006",
      "identifier": [ {
        "value": "FHR04RPX"
      } ],
      "type": [ {
        "coding": [ {
          "code": "PRCP",
          "display": "InformationRecipient IntendedRecipient Name FHR0"
        } ]
      } ],
      "name": "InformationRecipient IntendedRecipient Name FHR0"
    }
  }, {
    "fullUrl": "urn:uuid:7d75d5d0-da40-46ed-96dc-f5eddbdebd08",
    "resource": {
      "resourceType": "ReferralRequest",
      "id": "7d75d5d0-da40-46ed-96dc-f5eddbdebd08",
      "status": "active",
      "intent": "plan",
      "priority": "routine",
      "subject": {
        "reference": "urn:uuid:82e73d34-8dca-409b-ac32-95e5a37a7223"
      },
      "context": {
        "reference": "urn:uuid:57e9ce35-2d34-41b6-814a-c8996bbbc38c"
      },
      "occurrencePeriod": {
        "start": "2022-05-05T07:31:37+00:00",
        "end": "2022-05-05T08:31:37+00:00"
      },
      "authoredOn": "2021-04-06T15:19:29+00:00",
      "requester": {
        "agent": {
          "reference": "urn:uuid:ff4233a4-f219-4d31-bea9-21a38f3be2e6"
        },
        "onBehalfOf": {
          "reference": "urn:uuid:459df022-6ae1-4877-b54e-364eab4408cb"
        }
      },
      "recipient": [ {
        "reference": "urn:uuid:970c15e2-12b4-4b61-a321-44d08bf2addb"
      } ],
      "reasonReference": [ {
        "reference": "urn:uuid:17f7d5e1-0bc2-4a9a-b75b-0fd6b2215959"
      } ],
      "supportingInfo": [ {
        "reference": "urn:uuid:30fe974a-f8b0-4c97-8457-0f216ca17ae6"
      } ]
    }
  }, {
    "fullUrl": "urn:uuid:30fe974a-f8b0-4c97-8457-0f216ca17ae6",
    "resource": {
      "resourceType": "ProcedureRequest",
      "id": "30fe974a-f8b0-4c97-8457-0f216ca17ae6",
      "status": "active",
      "intent": "plan",
      "priority": "routine",
      "doNotPerform": false,
      "code": {
        "coding": [ {
          "system": "2.16.840.1.113883.2.1.3.2.4.17.325",
          "code": "DispoCodeDx87",
          "display": "DispoName - Repeat Prescription required within 24 hours"
        } ]
      },
      "subject": {
        "reference": "urn:uuid:82e73d34-8dca-409b-ac32-95e5a37a7223"
      },
      "occurrencePeriod": {
        "start": "2022-05-05T07:31:37+00:00",
        "end": "2022-05-05T08:31:37+00:00"
      },
      "reasonReference": [ {
        "reference": "urn:uuid:17f7d5e1-0bc2-4a9a-b75b-0fd6b2215959"
      } ]
    }
  }, {
    "fullUrl": "urn:uuid:5f159c58-5819-4a69-82af-b89f4d9a6458",
    "resource": {
      "resourceType": "Composition",
      "id": "5f159c58-5819-4a69-82af-b89f4d9a6458",
      "identifier": {
        "use": "usual",
        "value": "E2DF04F7-95CA-40AD-808D-797C0A89E39C"
      },
      "status": "final",
      "type": {
        "coding": [ {
          "system": "http://snomed.info/sct",
          "code": "371531000",
          "display": "Report of clinical encounter (record artifact)"
        } ]
      },
      "subject": {
        "reference": "urn:uuid:82e73d34-8dca-409b-ac32-95e5a37a7223"
      },
      "encounter": {
        "reference": "urn:uuid:57e9ce35-2d34-41b6-814a-c8996bbbc38c"
      },
      "date": "2021-04-06T15:19:34+00:00",
      "author": [ {
        "reference": "urn:uuid:bd76c642-b86c-4a97-ae1a-274614435ec3"
      } ],
      "title": "111 Report",
      "confidentiality": "N",
      "section": [ {
        "section": [ {
          "title": "ComponentTitle - Patient's Reported Condition",
          "text": {
            "status": "generated",
            "div": "<div xmlns=\"http://www.w3.org/1999/xhtml\">&lt;content&gt;ComponentText - Pharmacy ITK Testing&lt;/content&gt;\n                                                    &lt;br/&gt;</div>"
          }
        }, {
          "title": "ComponentTitle - Pathways Disposition",
          "text": {
            "status": "generated",
            "div": "<div xmlns=\"http://www.w3.org/1999/xhtml\">ComponentText - Repeat Prescription required within 24 hours (Dx87)                                         &lt;br/&gt;\n                                                    &lt;br/&gt;                                         Selected service: Springvale, Fraser Road, Kings Worthy, Winchester&lt;br/&gt;</div>"
          }
        }, {
          "title": "ComponentTitle - Consultation Summary",
          "text": {
            "status": "generated",
            "div": "<div xmlns=\"http://www.w3.org/1999/xhtml\">ComponentText - Prescription request&lt;br/&gt;Not enough medication until surgery opens&lt;br/&gt;No medication available&lt;br/&gt;Next dose due in over 12 hours time&lt;br/&gt;</div>"
          }
        }, {
          "title": "ComponentTitle - Pathways Assessment",
          "text": {
            "status": "generated",
            "div": "<div xmlns=\"http://www.w3.org/1999/xhtml\">ComponentText - Reason for call menu - continued to next list.&lt;br/&gt;A prescription request was the main reason for the contact.&lt;br/&gt;The main reason for the contact was not a new or worsening illness.&lt;br/&gt;The individual did not have enough medication to last until the surgery next opened.&lt;br/&gt;The medication was suitable for repeat prescribing without further consultation.&lt;br/&gt;The individual had no medication available.&lt;br/&gt;The next dose was due in over 12 hours time.&lt;br/&gt;Instructions given were: The individual needs a repeat prescription.&lt;br/&gt;Directory of Services referral: Springvale, Fraser Road, Kings Worthy, Winchester&lt;br/&gt;</div>"
          }
        }, {
          "title": "ComponentTitle - Advice Given",
          "text": {
            "status": "generated",
            "div": "<div xmlns=\"http://www.w3.org/1999/xhtml\">ComponentText - I will arrange for a clinician or pharmacist to speak to the individual.&lt;br/&gt;IF THE RECOMMENDED TIMEFRAME FALLS OUTSIDE OPENING HOURS: I will arrange for a clinician to speak to the individual.&lt;br/&gt;\n                                                    &lt;br/&gt;</div>"
          }
        }, {
          "title": "ComponentTitle - Information And Advice Given"
        }, {
          "title": "ComponentTitle - Disposition",
          "text": {
            "status": "generated",
            "div": "<div xmlns=\"http://www.w3.org/1999/xhtml\">&lt;content&gt;ComponentText - Repeat Prescription required within 24 hours&lt;br/&gt;\n                                                    &lt;/content&gt;\n                                                    &lt;br/&gt;\n                                                    &lt;br/&gt;</div>"
          }
        } ]
      }, {
        "title": "CarePlan",
        "entry": [ {
          "reference": "urn:uuid:dcef5f05-0b14-46f8-baa4-5e51c99ef0e1"
        } ]
      }, {
        "title": "ReferralRequest",
        "entry": [ {
          "reference": "urn:uuid:7d75d5d0-da40-46ed-96dc-f5eddbdebd08"
        } ]
      }, {
        "title": "QuestionnaireResponse",
        "entry": [ {
          "reference": "urn:uuid:4f701b2a-278e-489a-97e0-69d1b6dc6478"
        } ]
      }, {
        "title": "QuestionnaireResponse",
        "entry": [ {
          "reference": "urn:uuid:9c85df8f-9b85-4ba4-a495-201c38956d73"
        } ]
      }, {
        "title": "QuestionnaireResponse",
        "entry": [ {
          "reference": "urn:uuid:7f44e700-267b-4692-b2b7-4785a0e48dd8"
        } ]
      }, {
        "title": "QuestionnaireResponse",
        "entry": [ {
          "reference": "urn:uuid:400ebc5a-867b-4732-a04c-13812591cbc9"
        } ]
      }, {
        "title": "QuestionnaireResponse",
        "entry": [ {
          "reference": "urn:uuid:431a5d23-560b-4f45-962b-b400855f95e9"
        } ]
      }, {
        "title": "QuestionnaireResponse",
        "entry": [ {
          "reference": "urn:uuid:d5b8c734-2ebe-4d78-8041-4e14970953f9"
        } ]
      }, {
        "title": "QuestionnaireResponse",
        "entry": [ {
          "reference": "urn:uuid:a44f2e99-fe17-4e3c-9fe2-d75f54e5a26a"
        } ]
      }, {
        "title": "QuestionnaireResponse",
        "entry": [ {
          "reference": "urn:uuid:4526d6fe-c4b0-4a85-a669-659d2b25bdd1"
        } ]
      }, {
        "title": "QuestionnaireResponse",
        "entry": [ {
          "reference": "urn:uuid:1e18e216-b51a-4ed6-bf59-0efb9a4f8894"
        } ]
      }, {
        "title": "QuestionnaireResponse",
        "entry": [ {
          "reference": "urn:uuid:dbbc05db-d00e-4c70-a18e-fd455913f8ef"
        } ]
      }, {
        "title": "QuestionnaireResponse",
        "entry": [ {
          "reference": "urn:uuid:e6ec904a-8ae3-4d31-bd12-67e2fa82b596"
        } ]
      }, {
        "title": "QuestionnaireResponse",
        "entry": [ {
          "reference": "urn:uuid:928afb42-2f80-4244-ad3b-5b4d39c335b5"
        } ]
      }, {
        "title": "QuestionnaireResponse",
        "entry": [ {
          "reference": "urn:uuid:11de6af8-8c1a-447b-8903-ceb9da35848a"
        } ]
      }, {
        "title": "QuestionnaireResponse",
        "entry": [ {
          "reference": "urn:uuid:ee9b9462-c482-46f2-bd25-7e760099f870"
        } ]
      }, {
        "title": "QuestionnaireResponse",
        "entry": [ {
          "reference": "urn:uuid:d99c0219-f9d9-4b47-93dc-ecf00d3ef979"
        } ]
      } ]
    }
  }, {
    "fullUrl": "urn:uuid:dcef5f05-0b14-46f8-baa4-5e51c99ef0e1",
    "resource": {
      "resourceType": "CarePlan",
      "id": "dcef5f05-0b14-46f8-baa4-5e51c99ef0e1",
      "status": "completed",
      "intent": "plan",
      "title": "ComponentTitle - Information And Advice Given",
      "subject": {
        "reference": "urn:uuid:82e73d34-8dca-409b-ac32-95e5a37a7223"
      },
      "context": {
        "reference": "urn:uuid:57e9ce35-2d34-41b6-814a-c8996bbbc38c"
      },
      "period": {
        "start": "2021-04-06T15:19:34+00:00"
      },
      "addresses": [ {
        "reference": "urn:uuid:17f7d5e1-0bc2-4a9a-b75b-0fd6b2215959"
      } ]
    }
  }, {
    "fullUrl": "urn:uuid:c8a5a619-c100-42a6-b82c-74bbc512d39c",
    "resource": {
      "resourceType": "Consent",
      "id": "c8a5a619-c100-42a6-b82c-74bbc512d39c",
      "identifier": {
        "use": "usual",
        "value": "E2DF04F7-95CA-40AD-808D-797C0A89E39C"
      },
      "status": "active",
      "patient": {
        "reference": "urn:uuid:82e73d34-8dca-409b-ac32-95e5a37a7223"
      },
      "period": {
        "start": "2021-04-06T15:19:34+00:00"
      },
      "consentingParty": [ {
        "reference": "urn:uuid:82e73d34-8dca-409b-ac32-95e5a37a7223"
      } ],
      "action": [ {
        "coding": [ {
          "system": "http://snomed.info/sct",
          "code": "425691002",
          "display": "Consent given for electronic record sharing"
        } ],
        "text": "Consent given for electronic record sharing"
      } ],
      "organization": [ {
        "reference": "urn:uuid:459df022-6ae1-4877-b54e-364eab4408cb"
      } ],
      "policyRule": "http://hl7.org/fhir/ConsentPolicy/opt-out",
      "data": [ {
        "meaning": "related",
        "reference": {
          "reference": "urn:uuid:57e9ce35-2d34-41b6-814a-c8996bbbc38c"
        }
      } ]
    }
  }, {
    "fullUrl": "urn:uuid:17f7d5e1-0bc2-4a9a-b75b-0fd6b2215959",
    "resource": {
      "resourceType": "Condition",
      "id": "17f7d5e1-0bc2-4a9a-b75b-0fd6b2215959",
      "clinicalStatus": "active",
      "verificationStatus": "unknown",
      "subject": {
        "reference": "urn:uuid:82e73d34-8dca-409b-ac32-95e5a37a7223"
      },
      "context": {
        "reference": "urn:uuid:57e9ce35-2d34-41b6-814a-c8996bbbc38c"
      },
      "evidence": [ {
        "detail": [ {
          "reference": "urn:uuid:4f701b2a-278e-489a-97e0-69d1b6dc6478"
        } ]
      }, {
        "detail": [ {
          "reference": "urn:uuid:9c85df8f-9b85-4ba4-a495-201c38956d73"
        } ]
      }, {
        "detail": [ {
          "reference": "urn:uuid:7f44e700-267b-4692-b2b7-4785a0e48dd8"
        } ]
      }, {
        "detail": [ {
          "reference": "urn:uuid:400ebc5a-867b-4732-a04c-13812591cbc9"
        } ]
      }, {
        "detail": [ {
          "reference": "urn:uuid:431a5d23-560b-4f45-962b-b400855f95e9"
        } ]
      }, {
        "detail": [ {
          "reference": "urn:uuid:d5b8c734-2ebe-4d78-8041-4e14970953f9"
        } ]
      }, {
        "detail": [ {
          "reference": "urn:uuid:a44f2e99-fe17-4e3c-9fe2-d75f54e5a26a"
        } ]
      }, {
        "detail": [ {
          "reference": "urn:uuid:4526d6fe-c4b0-4a85-a669-659d2b25bdd1"
        } ]
      }, {
        "detail": [ {
          "reference": "urn:uuid:1e18e216-b51a-4ed6-bf59-0efb9a4f8894"
        } ]
      }, {
        "detail": [ {
          "reference": "urn:uuid:dbbc05db-d00e-4c70-a18e-fd455913f8ef"
        } ]
      }, {
        "detail": [ {
          "reference": "urn:uuid:e6ec904a-8ae3-4d31-bd12-67e2fa82b596"
        } ]
      }, {
        "detail": [ {
          "reference": "urn:uuid:928afb42-2f80-4244-ad3b-5b4d39c335b5"
        } ]
      }, {
        "detail": [ {
          "reference": "urn:uuid:11de6af8-8c1a-447b-8903-ceb9da35848a"
        } ]
      }, {
        "detail": [ {
          "reference": "urn:uuid:ee9b9462-c482-46f2-bd25-7e760099f870"
        } ]
      }, {
        "detail": [ {
          "reference": "urn:uuid:d99c0219-f9d9-4b47-93dc-ecf00d3ef979"
        } ]
      } ]
    }
  }, {
    "fullUrl": "urn:uuid:4f701b2a-278e-489a-97e0-69d1b6dc6478",
    "resource": {
      "resourceType": "QuestionnaireResponse",
      "id": "4f701b2a-278e-489a-97e0-69d1b6dc6478",
      "identifier": {
        "value": "60319"
      },
      "questionnaire": {
        "reference": "urn:uuid:ec4688e6-f6be-4b8d-9a34-4a9849fa5b95"
      },
      "status": "completed",
      "subject": {
        "reference": "urn:uuid:82e73d34-8dca-409b-ac32-95e5a37a7223"
      },
      "context": {
        "reference": "urn:uuid:57e9ce35-2d34-41b6-814a-c8996bbbc38c"
      },
      "authored": "2021-04-06T15:19:34+00:00",
      "item": [ {
        "linkId": "Tx220109",
        "text": "What is the reason for the contact?",
        "answer": [ {
          "valueString": "more"
        } ]
      } ]
    }
  }, {
    "fullUrl": "urn:uuid:ec4688e6-f6be-4b8d-9a34-4a9849fa5b95",
    "resource": {
      "resourceType": "Questionnaire",
      "id": "ec4688e6-f6be-4b8d-9a34-4a9849fa5b95",
      "identifier": [ {
        "value": "60319"
      } ],
      "version": "2021-04-06T15:19:34.083Z",
      "status": "active",
      "experimental": false,
      "date": "2021-04-06T15:19:34+00:00",
      "publisher": "User ID: 'HADFIELDR' User name: 'Ryan Hadfield' User skill set: 'T3'",
      "lastReviewDate": "2021-04-06",
      "contact": [ {
        "telecom": [ {
          "system": "phone",
          "value": "0111 111 1111"
        } ]
      } ],
      "subjectType": [ "Patient" ],
      "item": [ {
        "linkId": "60319",
        "prefix": "5",
        "text": "What is the reason for the contact?",
        "type": "choice",
        "required": true,
        "repeats": false,
        "option": [ {
          "valueString": "an injury or other health problem, Selected: false"
        }, {
          "valueString": "a need to access another healthcare service, Selected: false"
        }, {
          "valueString": "a healthcare professional requesting contact with another clinician, Selected: false"
        }, {
          "valueString": "a report of results or tests, Selected: false"
        }, {
          "valueString": "more, Selected: true"
        } ]
      } ]
    }
  }, {
    "fullUrl": "urn:uuid:9c85df8f-9b85-4ba4-a495-201c38956d73",
    "resource": {
      "resourceType": "QuestionnaireResponse",
      "id": "9c85df8f-9b85-4ba4-a495-201c38956d73",
      "identifier": {
        "value": "60319"
      },
      "questionnaire": {
        "reference": "urn:uuid:f7bd4a6a-e666-4aa1-9821-9b5e0447a9af"
      },
      "status": "completed",
      "subject": {
        "reference": "urn:uuid:82e73d34-8dca-409b-ac32-95e5a37a7223"
      },
      "context": {
        "reference": "urn:uuid:57e9ce35-2d34-41b6-814a-c8996bbbc38c"
      },
      "authored": "2021-04-06T15:19:34+00:00",
      "item": [ {
        "linkId": "Tx221793",
        "text": "STRING:to'Social&information'-further'Callreason'menu",
        "answer": [ {
          "valueString": "\"present\""
        } ]
      } ]
    }
  }, {
    "fullUrl": "urn:uuid:f7bd4a6a-e666-4aa1-9821-9b5e0447a9af",
    "resource": {
      "resourceType": "Questionnaire",
      "id": "f7bd4a6a-e666-4aa1-9821-9b5e0447a9af",
      "identifier": [ {
        "value": "60319"
      } ],
      "version": "2021-04-06T15:19:34.083Z",
      "status": "active",
      "experimental": false,
      "date": "2021-04-06T15:19:34+00:00",
      "publisher": "User ID: 'HADFIELDR' User name: 'Ryan Hadfield' User skill set: 'T3'",
      "lastReviewDate": "2021-04-06",
      "contact": [ {
        "telecom": [ {
          "system": "phone",
          "value": "0111 111 1111"
        } ]
      } ],
      "subjectType": [ "Patient" ],
      "item": [ {
        "linkId": "60319",
        "prefix": "600",
        "text": "STRING:to'Social&information'-further'Callreason'menu",
        "type": "choice",
        "required": true,
        "repeats": false,
        "option": [ {
          "valueString": "\"present\", Selected: true"
        } ]
      } ]
    }
  }, {
    "fullUrl": "urn:uuid:7f44e700-267b-4692-b2b7-4785a0e48dd8",
    "resource": {
      "resourceType": "QuestionnaireResponse",
      "id": "7f44e700-267b-4692-b2b7-4785a0e48dd8",
      "identifier": {
        "value": "60319"
      },
      "questionnaire": {
        "reference": "urn:uuid:51699fc1-8113-4985-a359-ddf134aedbd5"
      },
      "status": "completed",
      "subject": {
        "reference": "urn:uuid:82e73d34-8dca-409b-ac32-95e5a37a7223"
      },
      "context": {
        "reference": "urn:uuid:57e9ce35-2d34-41b6-814a-c8996bbbc38c"
      },
      "authored": "2021-04-06T15:19:34+00:00"
    }
  }, {
    "fullUrl": "urn:uuid:51699fc1-8113-4985-a359-ddf134aedbd5",
    "resource": {
      "resourceType": "Questionnaire",
      "id": "51699fc1-8113-4985-a359-ddf134aedbd5",
      "identifier": [ {
        "value": "60319"
      } ],
      "version": "2021-04-06T15:19:34.083Z",
      "status": "active",
      "experimental": false,
      "date": "2021-04-06T15:19:34+00:00",
      "publisher": "User ID: 'HADFIELDR' User name: 'Ryan Hadfield' User skill set: 'T3'",
      "lastReviewDate": "2021-04-06",
      "contact": [ {
        "telecom": [ {
          "system": "phone",
          "value": "0111 111 1111"
        } ]
      } ],
      "subjectType": [ "Patient" ]
    }
  }, {
    "fullUrl": "urn:uuid:400ebc5a-867b-4732-a04c-13812591cbc9",
    "resource": {
      "resourceType": "QuestionnaireResponse",
      "id": "400ebc5a-867b-4732-a04c-13812591cbc9",
      "identifier": {
        "value": "60319"
      },
      "questionnaire": {
        "reference": "urn:uuid:077e11fb-874d-4b91-b250-ba6e872a7e02"
      },
      "status": "completed",
      "subject": {
        "reference": "urn:uuid:82e73d34-8dca-409b-ac32-95e5a37a7223"
      },
      "context": {
        "reference": "urn:uuid:57e9ce35-2d34-41b6-814a-c8996bbbc38c"
      },
      "authored": "2021-04-06T15:19:34+00:00",
      "item": [ {
        "linkId": "Tx221804",
        "text": "STRING:transfertofurthermenuquestionestablishedinEntryFlow",
        "answer": [ {
          "valueString": "\"present\""
        } ]
      } ]
    }
  }, {
    "fullUrl": "urn:uuid:077e11fb-874d-4b91-b250-ba6e872a7e02",
    "resource": {
      "resourceType": "Questionnaire",
      "id": "077e11fb-874d-4b91-b250-ba6e872a7e02",
      "identifier": [ {
        "value": "60319"
      } ],
      "version": "2021-04-06T15:19:34.083Z",
      "status": "active",
      "experimental": false,
      "date": "2021-04-06T15:19:34+00:00",
      "publisher": "User ID: 'HADFIELDR' User name: 'Ryan Hadfield' User skill set: 'T3'",
      "lastReviewDate": "2021-04-06",
      "contact": [ {
        "telecom": [ {
          "system": "phone",
          "value": "0111 111 1111"
        } ]
      } ],
      "subjectType": [ "Patient" ],
      "item": [ {
        "linkId": "60319",
        "prefix": "41",
        "text": "STRING:transfertofurthermenuquestionestablishedinEntryFlow",
        "type": "choice",
        "required": true,
        "repeats": false,
        "option": [ {
          "valueString": "\"present\", Selected: true"
        } ]
      } ]
    }
  }, {
    "fullUrl": "urn:uuid:431a5d23-560b-4f45-962b-b400855f95e9",
    "resource": {
      "resourceType": "QuestionnaireResponse",
      "id": "431a5d23-560b-4f45-962b-b400855f95e9",
      "identifier": {
        "value": "60319"
      },
      "questionnaire": {
        "reference": "urn:uuid:74b077ba-fae1-4617-9ecc-671c5df7eb0c"
      },
      "status": "completed",
      "subject": {
        "reference": "urn:uuid:82e73d34-8dca-409b-ac32-95e5a37a7223"
      },
      "context": {
        "reference": "urn:uuid:57e9ce35-2d34-41b6-814a-c8996bbbc38c"
      },
      "authored": "2021-04-06T15:19:34+00:00",
      "item": [ {
        "linkId": "Tx224998",
        "text": "SYSTEM_COVIDLEVEL2",
        "answer": [ {
          "valueString": "==\"covidlevel2\""
        } ]
      } ]
    }
  }, {
    "fullUrl": "urn:uuid:74b077ba-fae1-4617-9ecc-671c5df7eb0c",
    "resource": {
      "resourceType": "Questionnaire",
      "id": "74b077ba-fae1-4617-9ecc-671c5df7eb0c",
      "identifier": [ {
        "value": "60319"
      } ],
      "version": "2021-04-06T15:19:34.083Z",
      "status": "active",
      "experimental": false,
      "date": "2021-04-06T15:19:34+00:00",
      "publisher": "User ID: 'HADFIELDR' User name: 'Ryan Hadfield' User skill set: 'T3'",
      "lastReviewDate": "2021-04-06",
      "contact": [ {
        "telecom": [ {
          "system": "phone",
          "value": "0111 111 1111"
        } ]
      } ],
      "subjectType": [ "Patient" ],
      "item": [ {
        "linkId": "60319",
        "prefix": "5900",
        "text": "SYSTEM_COVIDLEVEL2",
        "type": "choice",
        "required": true,
        "repeats": false,
        "option": [ {
          "valueString": "==\"covidlevel2\", Selected: true"
        }, {
          "valueString": "*, Selected: false"
        } ]
      } ]
    }
  }, {
    "fullUrl": "urn:uuid:d5b8c734-2ebe-4d78-8041-4e14970953f9",
    "resource": {
      "resourceType": "QuestionnaireResponse",
      "id": "d5b8c734-2ebe-4d78-8041-4e14970953f9",
      "identifier": {
        "value": "60319"
      },
      "questionnaire": {
        "reference": "urn:uuid:4a33ad21-0ed9-4600-ad8e-c6d6a2ee8edc"
      },
      "status": "completed",
      "subject": {
        "reference": "urn:uuid:82e73d34-8dca-409b-ac32-95e5a37a7223"
      },
      "context": {
        "reference": "urn:uuid:57e9ce35-2d34-41b6-814a-c8996bbbc38c"
      },
      "authored": "2021-04-06T15:19:34+00:00",
      "item": [ {
        "linkId": "Tx225069",
        "text": "What is the reason for the contact?",
        "answer": [ {
          "valueString": "a prescription request"
        } ]
      } ]
    }
  }, {
    "fullUrl": "urn:uuid:4a33ad21-0ed9-4600-ad8e-c6d6a2ee8edc",
    "resource": {
      "resourceType": "Questionnaire",
      "id": "4a33ad21-0ed9-4600-ad8e-c6d6a2ee8edc",
      "identifier": [ {
        "value": "60319"
      } ],
      "version": "2021-04-06T15:19:34.083Z",
      "status": "active",
      "experimental": false,
      "date": "2021-04-06T15:19:34+00:00",
      "publisher": "User ID: 'HADFIELDR' User name: 'Ryan Hadfield' User skill set: 'T3'",
      "lastReviewDate": "2021-04-06",
      "contact": [ {
        "telecom": [ {
          "system": "phone",
          "value": "0111 111 1111"
        } ]
      } ],
      "subjectType": [ "Patient" ],
      "item": [ {
        "linkId": "60319",
        "prefix": "6000",
        "text": "What is the reason for the contact?",
        "type": "choice",
        "required": true,
        "repeats": false,
        "option": [ {
          "valueString": "a child protection/vulnerable adult concern (specify), Selected: false"
        }, {
          "valueString": "a social or domestic emergency, Selected: false"
        }, {
          "valueString": "a prescription request, Selected: true"
        }, {
          "valueString": "an appointment request, Selected: false"
        }, {
          "valueString": "a request for health or medication information, Selected: false"
        }, {
          "valueString": "public health alert information, Selected: false"
        } ]
      } ]
    }
  }, {
    "fullUrl": "urn:uuid:a44f2e99-fe17-4e3c-9fe2-d75f54e5a26a",
    "resource": {
      "resourceType": "QuestionnaireResponse",
      "id": "a44f2e99-fe17-4e3c-9fe2-d75f54e5a26a",
      "identifier": {
        "value": "60319"
      },
      "questionnaire": {
        "reference": "urn:uuid:5a11801b-8d2a-4a67-947a-ebd486ea1eca"
      },
      "status": "completed",
      "subject": {
        "reference": "urn:uuid:82e73d34-8dca-409b-ac32-95e5a37a7223"
      },
      "context": {
        "reference": "urn:uuid:57e9ce35-2d34-41b6-814a-c8996bbbc38c"
      },
      "authored": "2021-04-06T15:19:34+00:00",
      "item": [ {
        "linkId": "Tx220957",
        "text": "Is this contact about a new or worsening illness?",
        "answer": [ {
          "valueString": "no"
        } ]
      } ]
    }
  }, {
    "fullUrl": "urn:uuid:5a11801b-8d2a-4a67-947a-ebd486ea1eca",
    "resource": {
      "resourceType": "Questionnaire",
      "id": "5a11801b-8d2a-4a67-947a-ebd486ea1eca",
      "identifier": [ {
        "value": "60319"
      } ],
      "version": "2021-04-06T15:19:34.083Z",
      "status": "active",
      "experimental": false,
      "date": "2021-04-06T15:19:34+00:00",
      "publisher": "User ID: 'HADFIELDR' User name: 'Ryan Hadfield' User skill set: 'T3'",
      "lastReviewDate": "2021-04-06",
      "contact": [ {
        "telecom": [ {
          "system": "phone",
          "value": "0111 111 1111"
        } ]
      } ],
      "subjectType": [ "Patient" ],
      "item": [ {
        "linkId": "60319",
        "prefix": "1400",
        "text": "Is this contact about a new or worsening illness?",
        "type": "choice",
        "required": true,
        "repeats": false,
        "option": [ {
          "valueString": "yes, Selected: false"
        }, {
          "valueString": "not sure, Selected: false"
        }, {
          "valueString": "no, Selected: true"
        } ]
      } ]
    }
  }, {
    "fullUrl": "urn:uuid:4526d6fe-c4b0-4a85-a669-659d2b25bdd1",
    "resource": {
      "resourceType": "QuestionnaireResponse",
      "id": "4526d6fe-c4b0-4a85-a669-659d2b25bdd1",
      "identifier": {
        "value": "60319"
      },
      "questionnaire": {
        "reference": "urn:uuid:34c3a3f7-a369-4517-9b2f-aca6e000fdd1"
      },
      "status": "completed",
      "subject": {
        "reference": "urn:uuid:82e73d34-8dca-409b-ac32-95e5a37a7223"
      },
      "context": {
        "reference": "urn:uuid:57e9ce35-2d34-41b6-814a-c8996bbbc38c"
      },
      "authored": "2021-04-06T15:19:34+00:00",
      "item": [ {
        "linkId": "Tx221352",
        "text": "Have you got enough medication to last until the surgery opens?",
        "answer": [ {
          "valueString": "no"
        } ]
      } ]
    }
  }, {
    "fullUrl": "urn:uuid:34c3a3f7-a369-4517-9b2f-aca6e000fdd1",
    "resource": {
      "resourceType": "Questionnaire",
      "id": "34c3a3f7-a369-4517-9b2f-aca6e000fdd1",
      "identifier": [ {
        "value": "60319"
      } ],
      "version": "2021-04-06T15:19:34.083Z",
      "status": "active",
      "experimental": false,
      "date": "2021-04-06T15:19:34+00:00",
      "publisher": "User ID: 'HADFIELDR' User name: 'Ryan Hadfield' User skill set: 'T3'",
      "lastReviewDate": "2021-04-06",
      "contact": [ {
        "telecom": [ {
          "system": "phone",
          "value": "0111 111 1111"
        } ]
      } ],
      "subjectType": [ "Patient" ],
      "item": [ {
        "linkId": "60319",
        "prefix": "1500",
        "text": "Have you got enough medication to last until the surgery opens?",
        "type": "choice",
        "required": true,
        "repeats": false,
        "option": [ {
          "valueString": "yes, Selected: false"
        }, {
          "valueString": "not sure, Selected: false"
        }, {
          "valueString": "no, Selected: true"
        } ]
      } ]
    }
  }, {
    "fullUrl": "urn:uuid:1e18e216-b51a-4ed6-bf59-0efb9a4f8894",
    "resource": {
      "resourceType": "QuestionnaireResponse",
      "id": "1e18e216-b51a-4ed6-bf59-0efb9a4f8894",
      "identifier": {
        "value": "60319"
      },
      "questionnaire": {
        "reference": "urn:uuid:8bb3e43f-bc86-458a-9a27-0544e56f3b22"
      },
      "status": "completed",
      "subject": {
        "reference": "urn:uuid:82e73d34-8dca-409b-ac32-95e5a37a7223"
      },
      "context": {
        "reference": "urn:uuid:57e9ce35-2d34-41b6-814a-c8996bbbc38c"
      },
      "authored": "2021-04-06T15:19:34+00:00"
    }
  }, {
    "fullUrl": "urn:uuid:8bb3e43f-bc86-458a-9a27-0544e56f3b22",
    "resource": {
      "resourceType": "Questionnaire",
      "id": "8bb3e43f-bc86-458a-9a27-0544e56f3b22",
      "identifier": [ {
        "value": "60319"
      } ],
      "version": "2021-04-06T15:19:34.083Z",
      "status": "active",
      "experimental": false,
      "date": "2021-04-06T15:19:34+00:00",
      "publisher": "User ID: 'HADFIELDR' User name: 'Ryan Hadfield' User skill set: 'T3'",
      "lastReviewDate": "2021-04-06",
      "contact": [ {
        "telecom": [ {
          "system": "phone",
          "value": "0111 111 1111"
        } ]
      } ],
      "subjectType": [ "Patient" ]
    }
  }, {
    "fullUrl": "urn:uuid:dbbc05db-d00e-4c70-a18e-fd455913f8ef",
    "resource": {
      "resourceType": "QuestionnaireResponse",
      "id": "dbbc05db-d00e-4c70-a18e-fd455913f8ef",
      "identifier": {
        "value": "60319"
      },
      "questionnaire": {
        "reference": "urn:uuid:00c2de45-22b1-4939-b436-c904d83943a7"
      },
      "status": "completed",
      "subject": {
        "reference": "urn:uuid:82e73d34-8dca-409b-ac32-95e5a37a7223"
      },
      "context": {
        "reference": "urn:uuid:57e9ce35-2d34-41b6-814a-c8996bbbc38c"
      },
      "authored": "2021-04-06T15:19:34+00:00",
      "item": [ {
        "linkId": "Tx224231",
        "text": "FROM WHAT YOU HAVE HEARD IS A CONSULTATION WITH A PRESCRIBER NEEDED?",
        "answer": [ {
          "valueString": "no"
        } ]
      } ]
    }
  }, {
    "fullUrl": "urn:uuid:00c2de45-22b1-4939-b436-c904d83943a7",
    "resource": {
      "resourceType": "Questionnaire",
      "id": "00c2de45-22b1-4939-b436-c904d83943a7",
      "identifier": [ {
        "value": "60319"
      } ],
      "version": "2021-04-06T15:19:34.083Z",
      "status": "active",
      "experimental": false,
      "date": "2021-04-06T15:19:34+00:00",
      "publisher": "User ID: 'HADFIELDR' User name: 'Ryan Hadfield' User skill set: 'T3'",
      "lastReviewDate": "2021-04-06",
      "contact": [ {
        "telecom": [ {
          "system": "phone",
          "value": "0111 111 1111"
        } ]
      } ],
      "subjectType": [ "Patient" ],
      "item": [ {
        "linkId": "60319",
        "prefix": "0",
        "text": "FROM WHAT YOU HAVE HEARD IS A CONSULTATION WITH A PRESCRIBER NEEDED?",
        "type": "choice",
        "required": true,
        "repeats": false,
        "option": [ {
          "valueString": "yes, Selected: false"
        }, {
          "valueString": "not sure, Selected: false"
        }, {
          "valueString": "no, Selected: true"
        } ]
      } ]
    }
  }, {
    "fullUrl": "urn:uuid:e6ec904a-8ae3-4d31-bd12-67e2fa82b596",
    "resource": {
      "resourceType": "QuestionnaireResponse",
      "id": "e6ec904a-8ae3-4d31-bd12-67e2fa82b596",
      "identifier": {
        "value": "60319"
      },
      "questionnaire": {
        "reference": "urn:uuid:a79dc7ce-c133-4da0-a1d9-368b7c9d6907"
      },
      "status": "completed",
      "subject": {
        "reference": "urn:uuid:82e73d34-8dca-409b-ac32-95e5a37a7223"
      },
      "context": {
        "reference": "urn:uuid:57e9ce35-2d34-41b6-814a-c8996bbbc38c"
      },
      "authored": "2021-04-06T15:19:34+00:00",
      "item": [ {
        "linkId": "Tx222687",
        "text": "Have you got any of the medication available at the moment?",
        "answer": [ {
          "valueString": "no"
        } ]
      } ]
    }
  }, {
    "fullUrl": "urn:uuid:a79dc7ce-c133-4da0-a1d9-368b7c9d6907",
    "resource": {
      "resourceType": "Questionnaire",
      "id": "a79dc7ce-c133-4da0-a1d9-368b7c9d6907",
      "identifier": [ {
        "value": "60319"
      } ],
      "version": "2021-04-06T15:19:34.083Z",
      "status": "active",
      "experimental": false,
      "date": "2021-04-06T15:19:34+00:00",
      "publisher": "User ID: 'HADFIELDR' User name: 'Ryan Hadfield' User skill set: 'T3'",
      "lastReviewDate": "2021-04-06",
      "contact": [ {
        "telecom": [ {
          "system": "phone",
          "value": "0111 111 1111"
        } ]
      } ],
      "subjectType": [ "Patient" ],
      "item": [ {
        "linkId": "60319",
        "prefix": "200",
        "text": "Have you got any of the medication available at the moment?",
        "type": "choice",
        "required": true,
        "repeats": false,
        "option": [ {
          "valueString": "yes, Selected: false"
        }, {
          "valueString": "not sure, Selected: false"
        }, {
          "valueString": "no, Selected: true"
        } ]
      } ]
    }
  }, {
    "fullUrl": "urn:uuid:928afb42-2f80-4244-ad3b-5b4d39c335b5",
    "resource": {
      "resourceType": "QuestionnaireResponse",
      "id": "928afb42-2f80-4244-ad3b-5b4d39c335b5",
      "identifier": {
        "value": "60319"
      },
      "questionnaire": {
        "reference": "urn:uuid:db121fcf-6e07-419e-bc85-146412b88dae"
      },
      "status": "completed",
      "subject": {
        "reference": "urn:uuid:82e73d34-8dca-409b-ac32-95e5a37a7223"
      },
      "context": {
        "reference": "urn:uuid:57e9ce35-2d34-41b6-814a-c8996bbbc38c"
      },
      "authored": "2021-04-06T15:19:34+00:00",
      "item": [ {
        "linkId": "Tx221367",
        "text": "When is the next dose due?",
        "answer": [ {
          "valueString": "over 12 hours time"
        } ]
      } ]
    }
  }, {
    "fullUrl": "urn:uuid:db121fcf-6e07-419e-bc85-146412b88dae",
    "resource": {
      "resourceType": "Questionnaire",
      "id": "db121fcf-6e07-419e-bc85-146412b88dae",
      "identifier": [ {
        "value": "60319"
      } ],
      "version": "2021-04-06T15:19:34.083Z",
      "status": "active",
      "experimental": false,
      "date": "2021-04-06T15:19:34+00:00",
      "publisher": "User ID: 'HADFIELDR' User name: 'Ryan Hadfield' User skill set: 'T3'",
      "lastReviewDate": "2021-04-06",
      "contact": [ {
        "telecom": [ {
          "system": "phone",
          "value": "0111 111 1111"
        } ]
      } ],
      "subjectType": [ "Patient" ],
      "item": [ {
        "linkId": "60319",
        "prefix": "100",
        "text": "When is the next dose due?",
        "type": "choice",
        "required": true,
        "repeats": false,
        "option": [ {
          "valueString": "within the next 2 hours, Selected: false"
        }, {
          "valueString": "within the next 6 hours, Selected: false"
        }, {
          "valueString": "within the next 12 hours, Selected: false"
        }, {
          "valueString": "over 12 hours time, Selected: true"
        }, {
          "valueString": "not sure, Selected: false"
        } ]
      } ]
    }
  }, {
    "fullUrl": "urn:uuid:11de6af8-8c1a-447b-8903-ceb9da35848a",
    "resource": {
      "resourceType": "QuestionnaireResponse",
      "id": "11de6af8-8c1a-447b-8903-ceb9da35848a",
      "identifier": {
        "value": "60319"
      },
      "questionnaire": {
        "reference": "urn:uuid:99a3ca16-b71b-4ca9-ac8e-74ac7e38e72c"
      },
      "status": "completed",
      "subject": {
        "reference": "urn:uuid:82e73d34-8dca-409b-ac32-95e5a37a7223"
      },
      "context": {
        "reference": "urn:uuid:57e9ce35-2d34-41b6-814a-c8996bbbc38c"
      },
      "authored": "2021-04-06T15:19:34+00:00",
      "item": [ {
        "linkId": "Tx223441",
        "text": "STRING:SDPCRepeatPrescription",
        "answer": [ {
          "valueString": "\"PC repeat prescription\""
        } ]
      } ]
    }
  }, {
    "fullUrl": "urn:uuid:99a3ca16-b71b-4ca9-ac8e-74ac7e38e72c",
    "resource": {
      "resourceType": "Questionnaire",
      "id": "99a3ca16-b71b-4ca9-ac8e-74ac7e38e72c",
      "identifier": [ {
        "value": "60319"
      } ],
      "version": "2021-04-06T15:19:34.083Z",
      "status": "active",
      "experimental": false,
      "date": "2021-04-06T15:19:34+00:00",
      "publisher": "User ID: 'HADFIELDR' User name: 'Ryan Hadfield' User skill set: 'T3'",
      "lastReviewDate": "2021-04-06",
      "contact": [ {
        "telecom": [ {
          "system": "phone",
          "value": "0111 111 1111"
        } ]
      } ],
      "subjectType": [ "Patient" ],
      "item": [ {
        "linkId": "60319",
        "prefix": "1100",
        "text": "STRING:SDPCRepeatPrescription",
        "type": "choice",
        "required": true,
        "repeats": false,
        "option": [ {
          "valueString": "\"PC repeat prescription\", Selected: true"
        } ]
      } ]
    }
  }, {
    "fullUrl": "urn:uuid:ee9b9462-c482-46f2-bd25-7e760099f870",
    "resource": {
      "resourceType": "QuestionnaireResponse",
      "id": "ee9b9462-c482-46f2-bd25-7e760099f870",
      "identifier": {
        "value": "60319"
      },
      "questionnaire": {
        "reference": "urn:uuid:c5a920ca-bf6c-4f8d-8693-659f863ffd89"
      },
      "status": "completed",
      "subject": {
        "reference": "urn:uuid:82e73d34-8dca-409b-ac32-95e5a37a7223"
      },
      "context": {
        "reference": "urn:uuid:57e9ce35-2d34-41b6-814a-c8996bbbc38c"
      },
      "authored": "2021-04-06T15:19:34+00:00"
    }
  }, {
    "fullUrl": "urn:uuid:c5a920ca-bf6c-4f8d-8693-659f863ffd89",
    "resource": {
      "resourceType": "Questionnaire",
      "id": "c5a920ca-bf6c-4f8d-8693-659f863ffd89",
      "identifier": [ {
        "value": "60319"
      } ],
      "version": "2021-04-06T15:19:34.083Z",
      "status": "active",
      "experimental": false,
      "date": "2021-04-06T15:19:34+00:00",
      "publisher": "User ID: 'HADFIELDR' User name: 'Ryan Hadfield' User skill set: 'T3'",
      "lastReviewDate": "2021-04-06",
      "contact": [ {
        "telecom": [ {
          "system": "phone",
          "value": "0111 111 1111"
        } ]
      } ],
      "subjectType": [ "Patient" ]
    }
  }, {
    "fullUrl": "urn:uuid:d99c0219-f9d9-4b47-93dc-ecf00d3ef979",
    "resource": {
      "resourceType": "QuestionnaireResponse",
      "id": "d99c0219-f9d9-4b47-93dc-ecf00d3ef979",
      "identifier": {
        "value": "60319"
      },
      "questionnaire": {
        "reference": "urn:uuid:4f87e243-6cb1-4cd2-8010-02d53e5dfbbb"
      },
      "status": "completed",
      "subject": {
        "reference": "urn:uuid:82e73d34-8dca-409b-ac32-95e5a37a7223"
      },
      "context": {
        "reference": "urn:uuid:57e9ce35-2d34-41b6-814a-c8996bbbc38c"
      },
      "authored": "2021-04-06T15:19:34+00:00"
    }
  }, {
    "fullUrl": "urn:uuid:4f87e243-6cb1-4cd2-8010-02d53e5dfbbb",
    "resource": {
      "resourceType": "Questionnaire",
      "id": "4f87e243-6cb1-4cd2-8010-02d53e5dfbbb",
      "identifier": [ {
        "value": "60319"
      } ],
      "version": "2021-04-06T15:19:34.083Z",
      "status": "active",
      "experimental": false,
      "date": "2021-04-06T15:19:34+00:00",
      "publisher": "User ID: 'HADFIELDR' User name: 'Ryan Hadfield' User skill set: 'T3'",
      "lastReviewDate": "2021-04-06",
      "contact": [ {
        "telecom": [ {
          "system": "phone",
          "value": "0111 111 1111"
        } ]
      } ],
      "subjectType": [ "Patient" ]
    }
  }, {
    "fullUrl": "urn:uuid:bfa9573a-5089-4207-bae7-49a380240eb9",
    "resource": {
      "resourceType": "PractitionerRole",
      "id": "bfa9573a-5089-4207-bae7-49a380240eb9",
      "practitioner": {
        "reference": "urn:uuid:bd76c642-b86c-4a97-ae1a-274614435ec3"
      },
      "organization": {
        "reference": "urn:uuid:3f1f8e9a-bdce-4677-9dae-13c78759d36c"
      },
      "code": [ {
        "coding": [ {
          "system": "2.16.840.1.113883.2.1.3.2.4.17.339",
          "code": "DOCTOR",
          "display": "Doctor"
        } ]
      } ]
    }
  }, {
    "fullUrl": "urn:uuid:3f1f8e9a-bdce-4677-9dae-13c78759d36c",
    "resource": {
      "resourceType": "Organization",
      "id": "3f1f8e9a-bdce-4677-9dae-13c78759d36c",
      "identifier": [ {
        "value": "RYE"
      } ],
      "name": "RepresentedOrg Name"
    }
  }, {
    "fullUrl": "urn:uuid:91deaff4-8293-4c10-a06e-b93117976185",
    "resource": {
      "resourceType": "PractitionerRole",
      "id": "91deaff4-8293-4c10-a06e-b93117976185",
      "practitioner": {
        "reference": "urn:uuid:b3d78a0c-fdb8-4a7f-9881-cb164286165a"
      },
      "organization": {
        "reference": "urn:uuid:0e7bff44-2b3a-42ac-a23e-9e69626abfad"
      },
      "code": [ {
        "coding": [ {
          "system": "2.16.840.1.113883.2.1.3.2.4.17.196",
          "code": "R0010",
          "display": "Medical Director"
        } ]
      } ]
    }
  }, {
    "fullUrl": "urn:uuid:0e7bff44-2b3a-42ac-a23e-9e69626abfad",
    "resource": {
      "resourceType": "Organization",
      "id": "0e7bff44-2b3a-42ac-a23e-9e69626abfad",
      "identifier": [ {
        "value": "RYE"
      } ],
      "name": "RepresentedOrgNameRYE"
    }
  }, {
    "fullUrl": "urn:uuid:ca234fa6-a0c8-404e-a47b-15553219d162",
    "resource": {
      "resourceType": "RelatedPerson",
      "id": "ca234fa6-a0c8-404e-a47b-15553219d162",
      "patient": {
        "reference": "urn:uuid:82e73d34-8dca-409b-ac32-95e5a37a7223"
      },
      "relationship": {
        "coding": [ {
          "system": "http://hl7.org/fhir/v2/0131",
          "code": "C",
          "display": "Emergency Contact"
        } ]
      },
      "telecom": [ {
        "system": "phone",
        "value": "tel:000000000000"
      } ]
    }
  }, {
    "fullUrl": "urn:uuid:ff4233a4-f219-4d31-bea9-21a38f3be2e6",
    "resource": {
      "resourceType": "Device",
      "id": "ff4233a4-f219-4d31-bea9-21a38f3be2e6",
      "model": "111 Adaptor",
      "version": "1.0.1"
    }
  }, {
    "fullUrl": "urn:uuid:0bfe551e-761a-4634-be0f-5157b73013a5",
    "resource": {
      "resourceType": "List",
      "id": "0bfe551e-761a-4634-be0f-5157b73013a5",
      "status": "current",
      "mode": "working",
      "title": "111 Report List",
      "code": {
        "coding": [ {
          "system": "http://snomed.info/sct",
          "code": "225390008",
          "display": "Triage"
        } ]
      },
      "subject": {
        "reference": "urn:uuid:82e73d34-8dca-409b-ac32-95e5a37a7223"
      },
      "encounter": {
        "reference": "urn:uuid:57e9ce35-2d34-41b6-814a-c8996bbbc38c"
      },
      "date": "2021-04-06T15:19:34+00:00",
      "source": {
        "reference": "urn:uuid:ff4233a4-f219-4d31-bea9-21a38f3be2e6"
      },
      "orderedBy": {
        "coding": [ {
          "system": "http://hl7.org/fhir/list-order",
          "code": "event-date",
          "display": "Sorted by Event Date"
        } ]
      },
      "entry": [ {
        "item": {
          "reference": "urn:uuid:ca234fa6-a0c8-404e-a47b-15553219d162"
        }
      }, {
        "item": {
          "reference": "urn:uuid:b3d78a0c-fdb8-4a7f-9881-cb164286165a"
        }
      }, {
        "item": {
          "reference": "urn:uuid:459df022-6ae1-4877-b54e-364eab4408cb"
        }
      }, {
        "item": {
          "reference": "urn:uuid:5c895ac6-e4dc-4185-afb1-ecda3885b006"
        }
      }, {
        "item": {
          "reference": "urn:uuid:bd76c642-b86c-4a97-ae1a-274614435ec3"
        }
      }, {
        "item": {
          "reference": "urn:uuid:256f08c8-2878-48d8-b6b5-3753b6286356"
        }
      }, {
        "item": {
          "reference": "urn:uuid:3f1f8e9a-bdce-4677-9dae-13c78759d36c"
        }
      }, {
        "item": {
          "reference": "urn:uuid:0e7bff44-2b3a-42ac-a23e-9e69626abfad"
        }
      }, {
        "item": {
          "reference": "urn:uuid:17f7d5e1-0bc2-4a9a-b75b-0fd6b2215959"
        }
      }, {
        "item": {
          "reference": "urn:uuid:1e18e216-b51a-4ed6-bf59-0efb9a4f8894"
        }
      }, {
        "item": {
          "reference": "urn:uuid:4f701b2a-278e-489a-97e0-69d1b6dc6478"
        }
      }, {
        "item": {
          "reference": "urn:uuid:4f87e243-6cb1-4cd2-8010-02d53e5dfbbb"
        }
      }, {
        "item": {
          "reference": "urn:uuid:7f44e700-267b-4692-b2b7-4785a0e48dd8"
        }
      }, {
        "item": {
          "reference": "urn:uuid:5a11801b-8d2a-4a67-947a-ebd486ea1eca"
        }
      }, {
        "item": {
          "reference": "urn:uuid:8bb3e43f-bc86-458a-9a27-0544e56f3b22"
        }
      }, {
        "item": {
          "reference": "urn:uuid:4a33ad21-0ed9-4600-ad8e-c6d6a2ee8edc"
        }
      }, {
        "item": {
          "reference": "urn:uuid:077e11fb-874d-4b91-b250-ba6e872a7e02"
        }
      }, {
        "item": {
          "reference": "urn:uuid:431a5d23-560b-4f45-962b-b400855f95e9"
        }
      }, {
        "item": {
          "reference": "urn:uuid:74b077ba-fae1-4617-9ecc-671c5df7eb0c"
        }
      }, {
        "item": {
          "reference": "urn:uuid:9c85df8f-9b85-4ba4-a495-201c38956d73"
        }
      }, {
        "item": {
          "reference": "urn:uuid:ee9b9462-c482-46f2-bd25-7e760099f870"
        }
      }, {
        "item": {
          "reference": "urn:uuid:f7bd4a6a-e666-4aa1-9821-9b5e0447a9af"
        }
      }, {
        "item": {
          "reference": "urn:uuid:d5b8c734-2ebe-4d78-8041-4e14970953f9"
        }
      }, {
        "item": {
          "reference": "urn:uuid:51699fc1-8113-4985-a359-ddf134aedbd5"
        }
      }, {
        "item": {
          "reference": "urn:uuid:4526d6fe-c4b0-4a85-a669-659d2b25bdd1"
        }
      }, {
        "item": {
          "reference": "urn:uuid:ec4688e6-f6be-4b8d-9a34-4a9849fa5b95"
        }
      }, {
        "item": {
          "reference": "urn:uuid:db121fcf-6e07-419e-bc85-146412b88dae"
        }
      }, {
        "item": {
          "reference": "urn:uuid:e6ec904a-8ae3-4d31-bd12-67e2fa82b596"
        }
      }, {
        "item": {
          "reference": "urn:uuid:a79dc7ce-c133-4da0-a1d9-368b7c9d6907"
        }
      }, {
        "item": {
          "reference": "urn:uuid:a44f2e99-fe17-4e3c-9fe2-d75f54e5a26a"
        }
      }, {
        "item": {
          "reference": "urn:uuid:d99c0219-f9d9-4b47-93dc-ecf00d3ef979"
        }
      }, {
        "item": {
          "reference": "urn:uuid:400ebc5a-867b-4732-a04c-13812591cbc9"
        }
      }, {
        "item": {
          "reference": "urn:uuid:00c2de45-22b1-4939-b436-c904d83943a7"
        }
      }, {
        "item": {
          "reference": "urn:uuid:34c3a3f7-a369-4517-9b2f-aca6e000fdd1"
        }
      }, {
        "item": {
          "reference": "urn:uuid:11de6af8-8c1a-447b-8903-ceb9da35848a"
        }
      }, {
        "item": {
          "reference": "urn:uuid:c5a920ca-bf6c-4f8d-8693-659f863ffd89"
        }
      }, {
        "item": {
          "reference": "urn:uuid:928afb42-2f80-4244-ad3b-5b4d39c335b5"
        }
      }, {
        "item": {
          "reference": "urn:uuid:99a3ca16-b71b-4ca9-ac8e-74ac7e38e72c"
        }
      }, {
        "item": {
          "reference": "urn:uuid:dbbc05db-d00e-4c70-a18e-fd455913f8ef"
        }
      }, {
        "item": {
          "reference": "urn:uuid:7d75d5d0-da40-46ed-96dc-f5eddbdebd08"
        }
      } ]
    }
  } ]
}