{
  "resourceType": "Bundle",
  "identifier": {
    "type": {
      "text": "ClinicalDocument VersionNumber"
    },
    "value": "1"
  },
  "type": "message",
  "entry": [ {
    "fullUrl": "urn:uuid:05040617-33BA-4344-AA59-281CF2FE63CA",
    "resource": {
      "resourceType": "MessageHeader",
      "id": "05040617-33BA-4344-AA59-281CF2FE63CA",
      "event": {
        "system": "https://fhir.nhs.uk/STU3/CodeSystem/EventType-1",
        "code": "referral-1",
        "display": "Referral"
      },
      "destination": [ {
        "endpoint": "urn:nhs-uk:addressing:ods:FHR04RPX:DOSServiceID:2000038667"
      } ],
      "timestamp": "2021-04-06T15:19:34.000+00:00",
      "source": {
        "name": "NHS 111 Adaptor",
        "endpoint": "http://localhost:8080/report"
      },
      "reason": {
        "coding": [ {
          "system": "urn:nhs-itk:ns:201005:interaction",
          "code": "urn:nhs-itk:interaction:primaryOutofHourRecipientNHS111CDADocument-v2-0"
        } ]
      }
    },
    "response": {
      "status": "success",
      "lastModified": "2022-05-05T12:27:59.705+00:00"
    }
  }, {
    "fullUrl": "urn:uuid:79af41a2-d86c-4605-bc0d-754b471d6606",
    "resource": {
      "resourceType": "Encounter",
      "id": "79af41a2-d86c-4605-bc0d-754b471d6606",
      "identifier": [ {
        "system": "2.16.840.1.113883.2.1.3.2.4.18.34",
        "value": "AdastraCaseGUID34"
      }, {
        "system": "2.16.840.1.113883.2.1.3.2.4.18.35",
        "value": "AdastraCaseID35"
      }, {
        "system": "2.16.840.1.113883.2.1.3.2.4.18.49",
        "value": "AdastraCaseGUID49"
      } ],
      "status": "finished",
      "type": [ {
        "text": "111 Encounter Referral"
      } ],
      "subject": {
        "reference": "urn:uuid:93d211cd-ef81-4add-9259-a6d4e430f601"
      },
      "participant": [ {
        "type": [ {
          "coding": [ {
            "system": "http://hl7.org/fhir/ValueSet/encounter-participant-type",
            "code": "PPRF",
            "display": "Author"
          } ]
        } ],
        "individual": {
          "reference": "urn:uuid:fd350386-c6ce-43d2-9de1-ec0ec1f928eb"
        }
      }, {
        "type": [ {
          "text": "Informant"
        } ],
        "individual": {
          "reference": "urn:uuid:f1c67a2e-a0dc-4540-af68-7b780d7dcf64"
        }
      }, {
        "type": [ {
          "coding": [ {
            "system": "http://hl7.org/fhir/ValueSet/encounter-participant-type",
            "code": "ATND",
            "display": "Responsible Party"
          } ]
        } ],
        "individual": {
          "reference": "urn:uuid:d160b09d-ff35-4a38-b10e-ea7da575ea7d"
        }
      } ],
      "period": {
        "start": "2021-04-06T15:13:33+00:00",
        "end": "2021-04-06T15:19:29+00:00"
      },
      "location": [ {
        "location": {
          "reference": "urn:uuid:bf6ad4d8-eee4-4e4b-a445-fd38adf65a16"
        },
        "status": "completed"
      } ],
      "serviceProvider": {
        "reference": "urn:uuid:5cafcf12-a8de-41b1-99ac-fb95f064c277"
      }
    }
  }, {
    "fullUrl": "urn:uuid:5cafcf12-a8de-41b1-99ac-fb95f064c277",
    "resource": {
      "resourceType": "Organization",
      "id": "5cafcf12-a8de-41b1-99ac-fb95f064c277",
      "active": true,
      "type": [ {
        "text": "CST"
      } ],
      "name": "CustodianName"
    }
  }, {
    "fullUrl": "urn:uuid:fd350386-c6ce-43d2-9de1-ec0ec1f928eb",
    "resource": {
      "resourceType": "Practitioner",
      "id": "fd350386-c6ce-43d2-9de1-ec0ec1f928eb",
      "active": true,
      "name": [ {
        "use": "official",
        "family": "AuthorAssignedPerson FamilyName",
        "given": [ "AuthorAssignedPerson GivenName" ]
      } ]
    }
  }, {
    "fullUrl": "urn:uuid:f1c67a2e-a0dc-4540-af68-7b780d7dcf64",
    "resource": {
      "resourceType": "RelatedPerson",
      "id": "f1c67a2e-a0dc-4540-af68-7b780d7dcf64",
      "active": true,
      "patient": {
        "reference": "urn:uuid:93d211cd-ef81-4add-9259-a6d4e430f601"
      },
      "relationship": {
        "coding": [ {
          "system": "2.16.840.1.113883.2.1.3.2.4.16.45",
          "code": "16",
          "display": "Relative"
        } ]
      },
      "name": [ {
        "text": "RelatedPerson Name"
      } ],
      "telecom": [ {
        "system": "phone",
        "value": "tel:01111111111",
        "use": "home"
      } ],
      "gender": "unknown"
    }
  }, {
    "fullUrl": "urn:uuid:d160b09d-ff35-4a38-b10e-ea7da575ea7d",
    "resource": {
      "resourceType": "Practitioner",
      "id": "d160b09d-ff35-4a38-b10e-ea7da575ea7d",
      "active": true,
      "name": [ {
        "use": "official",
        "family": "ResponsablePartyMD FamilyName",
        "given": [ "ResponsablePartyMD GivenName" ]
      } ]
    }
  }, {
    "fullUrl": "urn:uuid:bf6ad4d8-eee4-4e4b-a445-fd38adf65a16",
    "resource": {
      "resourceType": "Location",
      "id": "bf6ad4d8-eee4-4e4b-a445-fd38adf65a16",
      "name": "Incident Location",
      "address": {
        "type": "physical",
        "line": [ "HealthCareFacility AddressLine1", "HealthCareFacility AddressLine2", "HealthCareFacility AddressLine3", "HealthCareFacility AddressLine4", "HealthCareFacility AddressLine5" ],
        "postalCode": "LOH25 4NS"
      }
    }
  }, {
    "fullUrl": "urn:uuid:93d211cd-ef81-4add-9259-a6d4e430f601",
    "resource": {
      "resourceType": "Patient",
      "id": "93d211cd-ef81-4add-9259-a6d4e430f601",
      "active": true,
      "name": [ {
        "use": "official",
        "family": "Patient Family Name",
        "given": [ "Patient Given Name" ]
      } ],
      "telecom": [ {
        "system": "phone",
        "value": "tel:000000000000",
        "use": "home"
      }, {
        "system": "phone",
        "value": "tel:000000000000"
      } ],
      "gender": "other",
      "birthDate": "1990-02-02",
      "address": [ {
        "use": "home",
        "line": [ "Home Address Line 1", "Home Address Line 2", "Home Address Line 3", "Home Address Line 4", "Home Address Line 5" ],
        "postalCode": "HA25 4NS"
      }, {
        "type": "physical",
        "line": [ "Home Address Line 1", "Home Address Line 2", "Home Address Line 3", "Home Address Line 4", "Home Address Line 5" ],
        "postalCode": "PH25 4NS"
      } ]
    }
  }, {
    "fullUrl": "urn:uuid:f3972830-a7fb-440d-b684-982ea2b793e1",
    "resource": {
      "resourceType": "HealthcareService",
      "id": "f3972830-a7fb-440d-b684-982ea2b793e1",
      "active": true,
      "providedBy": {
        "reference": "urn:uuid:158b9955-9d62-4fc5-af9a-40e1b225dea7"
      },
      "location": [ {
        "reference": "urn:uuid:17d9088f-7489-45b8-bb0f-a35782485215"
      } ],
      "name": "InformationRecipient IntendedRecipient Name FHR0"
    }
  }, {
    "fullUrl": "urn:uuid:17d9088f-7489-45b8-bb0f-a35782485215",
    "resource": {
      "resourceType": "Location",
      "id": "17d9088f-7489-45b8-bb0f-a35782485215",
      "managingOrganization": {
        "reference": "urn:uuid:158b9955-9d62-4fc5-af9a-40e1b225dea7"
      }
    }
  }, {
    "fullUrl": "urn:uuid:158b9955-9d62-4fc5-af9a-40e1b225dea7",
    "resource": {
      "resourceType": "Organization",
      "id": "158b9955-9d62-4fc5-af9a-40e1b225dea7",
      "identifier": [ {
        "value": "FHR04RPX"
      } ],
      "type": [ {
        "coding": [ {
          "code": "PRCP",
          "display": "InformationRecipient IntendedRecipient Name FHR0"
        } ]
      } ],
      "name": "InformationRecipient IntendedRecipient Name FHR0"
    }
  }, {
    "fullUrl": "urn:uuid:d178ff84-7b03-44d4-acaf-ba6ed75c58ad",
    "resource": {
      "resourceType": "ReferralRequest",
      "id": "d178ff84-7b03-44d4-acaf-ba6ed75c58ad",
      "status": "active",
      "intent": "plan",
      "priority": "routine",
      "subject": {
        "reference": "urn:uuid:93d211cd-ef81-4add-9259-a6d4e430f601"
      },
      "context": {
        "reference": "urn:uuid:79af41a2-d86c-4605-bc0d-754b471d6606"
      },
      "occurrencePeriod": {
        "start": "2021-04-06T15:19:34+00:00"
      },
      "authoredOn": "2021-04-06T15:19:29+00:00",
      "requester": {
        "agent": {
          "reference": "urn:uuid:ef525e32-6baa-4271-992b-ac1fd9cc9c8c"
        },
        "onBehalfOf": {
          "reference": "urn:uuid:5cafcf12-a8de-41b1-99ac-fb95f064c277"
        }
      },
      "recipient": [ {
        "reference": "urn:uuid:f3972830-a7fb-440d-b684-982ea2b793e1"
      } ],
      "reasonReference": [ {
        "reference": "urn:uuid:661b7d9d-7092-4a29-becd-116e15e00ed7"
      } ],
      "supportingInfo": [ {
        "reference": "urn:uuid:86cbc273-a2dc-4613-afb2-cdb8bdeb2646"
      } ]
    }
  }, {
    "fullUrl": "urn:uuid:86cbc273-a2dc-4613-afb2-cdb8bdeb2646",
    "resource": {
      "resourceType": "ProcedureRequest",
      "id": "86cbc273-a2dc-4613-afb2-cdb8bdeb2646",
      "status": "active",
      "intent": "plan",
      "priority": "routine",
      "doNotPerform": false,
      "code": {
        "coding": [ {
          "system": "2.16.840.1.113883.2.1.3.2.4.17.325",
          "code": "DispoCodeDx87",
          "display": "DispoName - Repeat Prescription required within 24 hours"
        } ]
      },
      "subject": {
        "reference": "urn:uuid:93d211cd-ef81-4add-9259-a6d4e430f601"
      },
      "occurrencePeriod": {
        "start": "2021-04-06T15:19:34+00:00"
      },
      "reasonReference": [ {
        "reference": "urn:uuid:661b7d9d-7092-4a29-becd-116e15e00ed7"
      } ]
    }
  }, {
    "fullUrl": "urn:uuid:b01bb674-04fa-477d-91ca-894b0e601264",
    "resource": {
      "resourceType": "Composition",
      "id": "b01bb674-04fa-477d-91ca-894b0e601264",
      "identifier": {
        "use": "usual",
        "value": "E2DF04F7-95CA-40AD-808D-797C0A89E39C"
      },
      "status": "final",
      "type": {
        "coding": [ {
          "system": "http://snomed.info/sct",
          "code": "371531000",
          "display": "Report of clinical encounter (record artifact)"
        } ]
      },
      "subject": {
        "reference": "urn:uuid:93d211cd-ef81-4add-9259-a6d4e430f601"
      },
      "encounter": {
        "reference": "urn:uuid:79af41a2-d86c-4605-bc0d-754b471d6606"
      },
      "date": "2021-04-06T15:19:34+00:00",
      "author": [ {
        "reference": "urn:uuid:fd350386-c6ce-43d2-9de1-ec0ec1f928eb"
      } ],
      "title": "111 Report",
      "confidentiality": "N",
      "section": [ {
        "section": [ {
          "title": "ComponentTitle - Patient's Reported Condition",
          "text": {
            "status": "generated",
            "div": "<div xmlns=\"http://www.w3.org/1999/xhtml\">&lt;content&gt;ComponentText - Pharmacy ITK Testing&lt;/content&gt;\n                                                    &lt;br/&gt;</div>"
          }
        }, {
          "title": "ComponentTitle - Pathways Disposition",
          "text": {
            "status": "generated",
            "div": "<div xmlns=\"http://www.w3.org/1999/xhtml\">ComponentText - Repeat Prescription required within 24 hours (Dx87)                                         &lt;br/&gt;\n                                                    &lt;br/&gt;                                         Selected service: Springvale, Fraser Road, Kings Worthy, Winchester&lt;br/&gt;</div>"
          }
        }, {
          "title": "ComponentTitle - Consultation Summary",
          "text": {
            "status": "generated",
            "div": "<div xmlns=\"http://www.w3.org/1999/xhtml\">ComponentText - Prescription request&lt;br/&gt;Not enough medication until surgery opens&lt;br/&gt;No medication available&lt;br/&gt;Next dose due in over 12 hours time&lt;br/&gt;</div>"
          }
        }, {
          "title": "ComponentTitle - Pathways Assessment",
          "text": {
            "status": "generated",
            "div": "<div xmlns=\"http://www.w3.org/1999/xhtml\">ComponentText - Reason for call menu - continued to next list.&lt;br/&gt;A prescription request was the main reason for the contact.&lt;br/&gt;The main reason for the contact was not a new or worsening illness.&lt;br/&gt;The individual did not have enough medication to last until the surgery next opened.&lt;br/&gt;The medication was suitable for repeat prescribing without further consultation.&lt;br/&gt;The individual had no medication available.&lt;br/&gt;The next dose was due in over 12 hours time.&lt;br/&gt;Instructions given were: The individual needs a repeat prescription.&lt;br/&gt;Directory of Services referral: Springvale, Fraser Road, Kings Worthy, Winchester&lt;br/&gt;</div>"
          }
        }, {
          "title": "ComponentTitle - Advice Given",
          "text": {
            "status": "generated",
            "div": "<div xmlns=\"http://www.w3.org/1999/xhtml\">ComponentText - I will arrange for a clinician or pharmacist to speak to the individual.&lt;br/&gt;IF THE RECOMMENDED TIMEFRAME FALLS OUTSIDE OPENING HOURS: I will arrange for a clinician to speak to the individual.&lt;br/&gt;\n                                                    &lt;br/&gt;</div>"
          }
        }, {
          "title": "ComponentTitle - Information And Advice Given"
        }, {
          "title": "ComponentTitle - Disposition",
          "text": {
            "status": "generated",
            "div": "<div xmlns=\"http://www.w3.org/1999/xhtml\">&lt;content&gt;ComponentText - Repeat Prescription required within 24 hours&lt;br/&gt;\n                                                    &lt;/content&gt;\n                                                    &lt;br/&gt;\n                                                    &lt;br/&gt;</div>"
          }
        } ]
      }, {
        "title": "CarePlan",
        "entry": [ {
          "reference": "urn:uuid:a1d8e7a1-d540-4f46-be90-fdef19e0e042"
        } ]
      }, {
        "title": "ReferralRequest",
        "entry": [ {
          "reference": "urn:uuid:d178ff84-7b03-44d4-acaf-ba6ed75c58ad"
        } ]
      }, {
        "title": "QuestionnaireResponse",
        "entry": [ {
          "reference": "urn:uuid:614a0647-b2f8-4185-9733-0d735d92832e"
        } ]
      }, {
        "title": "QuestionnaireResponse",
        "entry": [ {
          "reference": "urn:uuid:16a19341-2d9c-4976-816f-1d9313928792"
        } ]
      }, {
        "title": "QuestionnaireResponse",
        "entry": [ {
          "reference": "urn:uuid:457d7e18-27d2-4eea-932a-80c55d679ac7"
        } ]
      }, {
        "title": "QuestionnaireResponse",
        "entry": [ {
          "reference": "urn:uuid:15564cfa-eff4-4791-9ad6-9a54fe9d9f33"
        } ]
      }, {
        "title": "QuestionnaireResponse",
        "entry": [ {
          "reference": "urn:uuid:6f0258e7-d3be-47c4-aab9-c52789d9b71b"
        } ]
      }, {
        "title": "QuestionnaireResponse",
        "entry": [ {
          "reference": "urn:uuid:1ae2d245-1b41-4dee-b5f4-9fa274a53d92"
        } ]
      }, {
        "title": "QuestionnaireResponse",
        "entry": [ {
          "reference": "urn:uuid:b86f47fd-2f83-483c-8040-28fa0cfefc29"
        } ]
      }, {
        "title": "QuestionnaireResponse",
        "entry": [ {
          "reference": "urn:uuid:22c4af12-1c09-4ddc-adb0-f29c31d96f7b"
        } ]
      }, {
        "title": "QuestionnaireResponse",
        "entry": [ {
          "reference": "urn:uuid:5b537ec4-b51b-422d-9851-8a3cc16a1613"
        } ]
      }, {
        "title": "QuestionnaireResponse",
        "entry": [ {
          "reference": "urn:uuid:0d66107b-2139-49d3-850f-a59f91d48369"
        } ]
      }, {
        "title": "QuestionnaireResponse",
        "entry": [ {
          "reference": "urn:uuid:1bded18e-dd67-4077-ac3d-922d596a289a"
        } ]
      }, {
        "title": "QuestionnaireResponse",
        "entry": [ {
          "reference": "urn:uuid:2aa99d7b-9271-44d6-80d1-8f66126a838b"
        } ]
      }, {
        "title": "QuestionnaireResponse",
        "entry": [ {
          "reference": "urn:uuid:da75144b-7839-45e7-ac24-50f3c9e298e8"
        } ]
      }, {
        "title": "QuestionnaireResponse",
        "entry": [ {
          "reference": "urn:uuid:8cefcc98-2f63-4632-a076-c7ed08d16b53"
        } ]
      }, {
        "title": "QuestionnaireResponse",
        "entry": [ {
          "reference": "urn:uuid:e6b3e5f8-9506-4adf-871e-bac9be5f9c85"
        } ]
      } ]
    }
  }, {
    "fullUrl": "urn:uuid:a1d8e7a1-d540-4f46-be90-fdef19e0e042",
    "resource": {
      "resourceType": "CarePlan",
      "id": "a1d8e7a1-d540-4f46-be90-fdef19e0e042",
      "status": "completed",
      "intent": "plan",
      "title": "ComponentTitle - Information And Advice Given",
      "subject": {
        "reference": "urn:uuid:93d211cd-ef81-4add-9259-a6d4e430f601"
      },
      "context": {
        "reference": "urn:uuid:79af41a2-d86c-4605-bc0d-754b471d6606"
      },
      "period": {
        "start": "2021-04-06T15:13:33+00:00",
        "end": "2021-04-06T15:19:29+00:00"
      },
      "addresses": [ {
        "reference": "urn:uuid:661b7d9d-7092-4a29-becd-116e15e00ed7"
      } ]
    }
  }, {
    "fullUrl": "urn:uuid:e5335d14-2ef2-4283-8275-fbad794567ec",
    "resource": {
      "resourceType": "Consent",
      "id": "e5335d14-2ef2-4283-8275-fbad794567ec",
      "identifier": {
        "use": "usual",
        "value": "E2DF04F7-95CA-40AD-808D-797C0A89E39C"
      },
      "status": "active",
      "patient": {
        "reference": "urn:uuid:93d211cd-ef81-4add-9259-a6d4e430f601"
      },
      "period": {
        "start": "2021-04-06T15:13:33+00:00",
        "end": "2021-04-06T15:19:29+00:00"
      },
      "consentingParty": [ {
        "reference": "urn:uuid:93d211cd-ef81-4add-9259-a6d4e430f601"
      } ],
      "action": [ {
        "coding": [ {
          "system": "http://snomed.info/sct",
          "code": "425691002",
          "display": "Consent given for electronic record sharing"
        } ],
        "text": "Consent given for electronic record sharing"
      } ],
      "organization": [ {
        "reference": "urn:uuid:5cafcf12-a8de-41b1-99ac-fb95f064c277"
      } ],
      "policyRule": "http://hl7.org/fhir/ConsentPolicy/opt-out",
      "data": [ {
        "meaning": "related",
        "reference": {
          "reference": "urn:uuid:79af41a2-d86c-4605-bc0d-754b471d6606"
        }
      } ]
    }
  }, {
    "fullUrl": "urn:uuid:661b7d9d-7092-4a29-becd-116e15e00ed7",
    "resource": {
      "resourceType": "Condition",
      "id": "661b7d9d-7092-4a29-becd-116e15e00ed7",
      "clinicalStatus": "active",
      "verificationStatus": "unknown",
      "subject": {
        "reference": "urn:uuid:93d211cd-ef81-4add-9259-a6d4e430f601"
      },
      "context": {
        "reference": "urn:uuid:79af41a2-d86c-4605-bc0d-754b471d6606"
      },
      "evidence": [ {
        "detail": [ {
          "reference": "urn:uuid:614a0647-b2f8-4185-9733-0d735d92832e"
        } ]
      }, {
        "detail": [ {
          "reference": "urn:uuid:16a19341-2d9c-4976-816f-1d9313928792"
        } ]
      }, {
        "detail": [ {
          "reference": "urn:uuid:457d7e18-27d2-4eea-932a-80c55d679ac7"
        } ]
      }, {
        "detail": [ {
          "reference": "urn:uuid:15564cfa-eff4-4791-9ad6-9a54fe9d9f33"
        } ]
      }, {
        "detail": [ {
          "reference": "urn:uuid:6f0258e7-d3be-47c4-aab9-c52789d9b71b"
        } ]
      }, {
        "detail": [ {
          "reference": "urn:uuid:1ae2d245-1b41-4dee-b5f4-9fa274a53d92"
        } ]
      }, {
        "detail": [ {
          "reference": "urn:uuid:b86f47fd-2f83-483c-8040-28fa0cfefc29"
        } ]
      }, {
        "detail": [ {
          "reference": "urn:uuid:22c4af12-1c09-4ddc-adb0-f29c31d96f7b"
        } ]
      }, {
        "detail": [ {
          "reference": "urn:uuid:5b537ec4-b51b-422d-9851-8a3cc16a1613"
        } ]
      }, {
        "detail": [ {
          "reference": "urn:uuid:0d66107b-2139-49d3-850f-a59f91d48369"
        } ]
      }, {
        "detail": [ {
          "reference": "urn:uuid:1bded18e-dd67-4077-ac3d-922d596a289a"
        } ]
      }, {
        "detail": [ {
          "reference": "urn:uuid:2aa99d7b-9271-44d6-80d1-8f66126a838b"
        } ]
      }, {
        "detail": [ {
          "reference": "urn:uuid:da75144b-7839-45e7-ac24-50f3c9e298e8"
        } ]
      }, {
        "detail": [ {
          "reference": "urn:uuid:8cefcc98-2f63-4632-a076-c7ed08d16b53"
        } ]
      }, {
        "detail": [ {
          "reference": "urn:uuid:e6b3e5f8-9506-4adf-871e-bac9be5f9c85"
        } ]
      } ]
    }
  }, {
    "fullUrl": "urn:uuid:614a0647-b2f8-4185-9733-0d735d92832e",
    "resource": {
      "resourceType": "QuestionnaireResponse",
      "id": "614a0647-b2f8-4185-9733-0d735d92832e",
      "identifier": {
        "value": "60319"
      },
      "questionnaire": {
        "reference": "urn:uuid:1e98a273-e4b6-4f77-814b-bca1c89d300e"
      },
      "status": "completed",
      "subject": {
        "reference": "urn:uuid:93d211cd-ef81-4add-9259-a6d4e430f601"
      },
      "context": {
        "reference": "urn:uuid:79af41a2-d86c-4605-bc0d-754b471d6606"
      },
      "authored": "2021-04-06T15:19:34+00:00",
      "item": [ {
        "linkId": "Tx220109",
        "text": "What is the reason for the contact?",
        "answer": [ {
          "valueString": "more"
        } ]
      } ]
    }
  }, {
    "fullUrl": "urn:uuid:1e98a273-e4b6-4f77-814b-bca1c89d300e",
    "resource": {
      "resourceType": "Questionnaire",
      "id": "1e98a273-e4b6-4f77-814b-bca1c89d300e",
      "identifier": [ {
        "value": "60319"
      } ],
      "version": "2021-04-06T15:19:34.083Z",
      "status": "active",
      "experimental": false,
      "date": "2021-04-06T15:19:34+00:00",
      "publisher": "User ID: 'HADFIELDR' User name: 'Ryan Hadfield' User skill set: 'T3'",
      "lastReviewDate": "2021-04-06",
      "contact": [ {
        "telecom": [ {
          "system": "phone",
          "value": "0111 111 1111"
        } ]
      } ],
      "subjectType": [ "Patient" ],
      "item": [ {
        "linkId": "60319",
        "prefix": "5",
        "text": "What is the reason for the contact?",
        "type": "choice",
        "required": true,
        "repeats": false,
        "option": [ {
          "valueString": "an injury or other health problem, Selected: false"
        }, {
          "valueString": "a need to access another healthcare service, Selected: false"
        }, {
          "valueString": "a healthcare professional requesting contact with another clinician, Selected: false"
        }, {
          "valueString": "a report of results or tests, Selected: false"
        }, {
          "valueString": "more, Selected: true"
        } ]
      } ]
    }
  }, {
    "fullUrl": "urn:uuid:16a19341-2d9c-4976-816f-1d9313928792",
    "resource": {
      "resourceType": "QuestionnaireResponse",
      "id": "16a19341-2d9c-4976-816f-1d9313928792",
      "identifier": {
        "value": "60319"
      },
      "questionnaire": {
        "reference": "urn:uuid:c885c0a8-02b9-42e7-91bb-f95b3a01309b"
      },
      "status": "completed",
      "subject": {
        "reference": "urn:uuid:93d211cd-ef81-4add-9259-a6d4e430f601"
      },
      "context": {
        "reference": "urn:uuid:79af41a2-d86c-4605-bc0d-754b471d6606"
      },
      "authored": "2021-04-06T15:19:34+00:00",
      "item": [ {
        "linkId": "Tx221793",
        "text": "STRING:to'Social&information'-further'Callreason'menu",
        "answer": [ {
          "valueString": "\"present\""
        } ]
      } ]
    }
  }, {
    "fullUrl": "urn:uuid:c885c0a8-02b9-42e7-91bb-f95b3a01309b",
    "resource": {
      "resourceType": "Questionnaire",
      "id": "c885c0a8-02b9-42e7-91bb-f95b3a01309b",
      "identifier": [ {
        "value": "60319"
      } ],
      "version": "2021-04-06T15:19:34.083Z",
      "status": "active",
      "experimental": false,
      "date": "2021-04-06T15:19:34+00:00",
      "publisher": "User ID: 'HADFIELDR' User name: 'Ryan Hadfield' User skill set: 'T3'",
      "lastReviewDate": "2021-04-06",
      "contact": [ {
        "telecom": [ {
          "system": "phone",
          "value": "0111 111 1111"
        } ]
      } ],
      "subjectType": [ "Patient" ],
      "item": [ {
        "linkId": "60319",
        "prefix": "600",
        "text": "STRING:to'Social&information'-further'Callreason'menu",
        "type": "choice",
        "required": true,
        "repeats": false,
        "option": [ {
          "valueString": "\"present\", Selected: true"
        } ]
      } ]
    }
  }, {
    "fullUrl": "urn:uuid:457d7e18-27d2-4eea-932a-80c55d679ac7",
    "resource": {
      "resourceType": "QuestionnaireResponse",
      "id": "457d7e18-27d2-4eea-932a-80c55d679ac7",
      "identifier": {
        "value": "60319"
      },
      "questionnaire": {
        "reference": "urn:uuid:e09a1874-5306-4d18-bb9a-5e5a76c653a3"
      },
      "status": "completed",
      "subject": {
        "reference": "urn:uuid:93d211cd-ef81-4add-9259-a6d4e430f601"
      },
      "context": {
        "reference": "urn:uuid:79af41a2-d86c-4605-bc0d-754b471d6606"
      },
      "authored": "2021-04-06T15:19:34+00:00"
    }
  }, {
    "fullUrl": "urn:uuid:e09a1874-5306-4d18-bb9a-5e5a76c653a3",
    "resource": {
      "resourceType": "Questionnaire",
      "id": "e09a1874-5306-4d18-bb9a-5e5a76c653a3",
      "identifier": [ {
        "value": "60319"
      } ],
      "version": "2021-04-06T15:19:34.083Z",
      "status": "active",
      "experimental": false,
      "date": "2021-04-06T15:19:34+00:00",
      "publisher": "User ID: 'HADFIELDR' User name: 'Ryan Hadfield' User skill set: 'T3'",
      "lastReviewDate": "2021-04-06",
      "contact": [ {
        "telecom": [ {
          "system": "phone",
          "value": "0111 111 1111"
        } ]
      } ],
      "subjectType": [ "Patient" ]
    }
  }, {
    "fullUrl": "urn:uuid:15564cfa-eff4-4791-9ad6-9a54fe9d9f33",
    "resource": {
      "resourceType": "QuestionnaireResponse",
      "id": "15564cfa-eff4-4791-9ad6-9a54fe9d9f33",
      "identifier": {
        "value": "60319"
      },
      "questionnaire": {
        "reference": "urn:uuid:d43d1a13-1894-46fc-9ff6-4a5826a7352b"
      },
      "status": "completed",
      "subject": {
        "reference": "urn:uuid:93d211cd-ef81-4add-9259-a6d4e430f601"
      },
      "context": {
        "reference": "urn:uuid:79af41a2-d86c-4605-bc0d-754b471d6606"
      },
      "authored": "2021-04-06T15:19:34+00:00",
      "item": [ {
        "linkId": "Tx221804",
        "text": "STRING:transfertofurthermenuquestionestablishedinEntryFlow",
        "answer": [ {
          "valueString": "\"present\""
        } ]
      } ]
    }
  }, {
    "fullUrl": "urn:uuid:d43d1a13-1894-46fc-9ff6-4a5826a7352b",
    "resource": {
      "resourceType": "Questionnaire",
      "id": "d43d1a13-1894-46fc-9ff6-4a5826a7352b",
      "identifier": [ {
        "value": "60319"
      } ],
      "version": "2021-04-06T15:19:34.083Z",
      "status": "active",
      "experimental": false,
      "date": "2021-04-06T15:19:34+00:00",
      "publisher": "User ID: 'HADFIELDR' User name: 'Ryan Hadfield' User skill set: 'T3'",
      "lastReviewDate": "2021-04-06",
      "contact": [ {
        "telecom": [ {
          "system": "phone",
          "value": "0111 111 1111"
        } ]
      } ],
      "subjectType": [ "Patient" ],
      "item": [ {
        "linkId": "60319",
        "prefix": "41",
        "text": "STRING:transfertofurthermenuquestionestablishedinEntryFlow",
        "type": "choice",
        "required": true,
        "repeats": false,
        "option": [ {
          "valueString": "\"present\", Selected: true"
        } ]
      } ]
    }
  }, {
    "fullUrl": "urn:uuid:6f0258e7-d3be-47c4-aab9-c52789d9b71b",
    "resource": {
      "resourceType": "QuestionnaireResponse",
      "id": "6f0258e7-d3be-47c4-aab9-c52789d9b71b",
      "identifier": {
        "value": "60319"
      },
      "questionnaire": {
        "reference": "urn:uuid:d35aa512-2bbb-4811-98a0-85e3f9df5857"
      },
      "status": "completed",
      "subject": {
        "reference": "urn:uuid:93d211cd-ef81-4add-9259-a6d4e430f601"
      },
      "context": {
        "reference": "urn:uuid:79af41a2-d86c-4605-bc0d-754b471d6606"
      },
      "authored": "2021-04-06T15:19:34+00:00",
      "item": [ {
        "linkId": "Tx224998",
        "text": "SYSTEM_COVIDLEVEL2",
        "answer": [ {
          "valueString": "==\"covidlevel2\""
        } ]
      } ]
    }
  }, {
    "fullUrl": "urn:uuid:d35aa512-2bbb-4811-98a0-85e3f9df5857",
    "resource": {
      "resourceType": "Questionnaire",
      "id": "d35aa512-2bbb-4811-98a0-85e3f9df5857",
      "identifier": [ {
        "value": "60319"
      } ],
      "version": "2021-04-06T15:19:34.083Z",
      "status": "active",
      "experimental": false,
      "date": "2021-04-06T15:19:34+00:00",
      "publisher": "User ID: 'HADFIELDR' User name: 'Ryan Hadfield' User skill set: 'T3'",
      "lastReviewDate": "2021-04-06",
      "contact": [ {
        "telecom": [ {
          "system": "phone",
          "value": "0111 111 1111"
        } ]
      } ],
      "subjectType": [ "Patient" ],
      "item": [ {
        "linkId": "60319",
        "prefix": "5900",
        "text": "SYSTEM_COVIDLEVEL2",
        "type": "choice",
        "required": true,
        "repeats": false,
        "option": [ {
          "valueString": "==\"covidlevel2\", Selected: true"
        }, {
          "valueString": "*, Selected: false"
        } ]
      } ]
    }
  }, {
    "fullUrl": "urn:uuid:1ae2d245-1b41-4dee-b5f4-9fa274a53d92",
    "resource": {
      "resourceType": "QuestionnaireResponse",
      "id": "1ae2d245-1b41-4dee-b5f4-9fa274a53d92",
      "identifier": {
        "value": "60319"
      },
      "questionnaire": {
        "reference": "urn:uuid:065ce510-34ee-4320-9743-36b137b0176b"
      },
      "status": "completed",
      "subject": {
        "reference": "urn:uuid:93d211cd-ef81-4add-9259-a6d4e430f601"
      },
      "context": {
        "reference": "urn:uuid:79af41a2-d86c-4605-bc0d-754b471d6606"
      },
      "authored": "2021-04-06T15:19:34+00:00",
      "item": [ {
        "linkId": "Tx225069",
        "text": "What is the reason for the contact?",
        "answer": [ {
          "valueString": "a prescription request"
        } ]
      } ]
    }
  }, {
    "fullUrl": "urn:uuid:065ce510-34ee-4320-9743-36b137b0176b",
    "resource": {
      "resourceType": "Questionnaire",
      "id": "065ce510-34ee-4320-9743-36b137b0176b",
      "identifier": [ {
        "value": "60319"
      } ],
      "version": "2021-04-06T15:19:34.083Z",
      "status": "active",
      "experimental": false,
      "date": "2021-04-06T15:19:34+00:00",
      "publisher": "User ID: 'HADFIELDR' User name: 'Ryan Hadfield' User skill set: 'T3'",
      "lastReviewDate": "2021-04-06",
      "contact": [ {
        "telecom": [ {
          "system": "phone",
          "value": "0111 111 1111"
        } ]
      } ],
      "subjectType": [ "Patient" ],
      "item": [ {
        "linkId": "60319",
        "prefix": "6000",
        "text": "What is the reason for the contact?",
        "type": "choice",
        "required": true,
        "repeats": false,
        "option": [ {
          "valueString": "a child protection/vulnerable adult concern (specify), Selected: false"
        }, {
          "valueString": "a social or domestic emergency, Selected: false"
        }, {
          "valueString": "a prescription request, Selected: true"
        }, {
          "valueString": "an appointment request, Selected: false"
        }, {
          "valueString": "a request for health or medication information, Selected: false"
        }, {
          "valueString": "public health alert information, Selected: false"
        } ]
      } ]
    }
  }, {
    "fullUrl": "urn:uuid:b86f47fd-2f83-483c-8040-28fa0cfefc29",
    "resource": {
      "resourceType": "QuestionnaireResponse",
      "id": "b86f47fd-2f83-483c-8040-28fa0cfefc29",
      "identifier": {
        "value": "60319"
      },
      "questionnaire": {
        "reference": "urn:uuid:cd6bc054-0d74-4a31-a912-7450cdbfb97c"
      },
      "status": "completed",
      "subject": {
        "reference": "urn:uuid:93d211cd-ef81-4add-9259-a6d4e430f601"
      },
      "context": {
        "reference": "urn:uuid:79af41a2-d86c-4605-bc0d-754b471d6606"
      },
      "authored": "2021-04-06T15:19:34+00:00",
      "item": [ {
        "linkId": "Tx220957",
        "text": "Is this contact about a new or worsening illness?",
        "answer": [ {
          "valueString": "no"
        } ]
      } ]
    }
  }, {
    "fullUrl": "urn:uuid:cd6bc054-0d74-4a31-a912-7450cdbfb97c",
    "resource": {
      "resourceType": "Questionnaire",
      "id": "cd6bc054-0d74-4a31-a912-7450cdbfb97c",
      "identifier": [ {
        "value": "60319"
      } ],
      "version": "2021-04-06T15:19:34.083Z",
      "status": "active",
      "experimental": false,
      "date": "2021-04-06T15:19:34+00:00",
      "publisher": "User ID: 'HADFIELDR' User name: 'Ryan Hadfield' User skill set: 'T3'",
      "lastReviewDate": "2021-04-06",
      "contact": [ {
        "telecom": [ {
          "system": "phone",
          "value": "0111 111 1111"
        } ]
      } ],
      "subjectType": [ "Patient" ],
      "item": [ {
        "linkId": "60319",
        "prefix": "1400",
        "text": "Is this contact about a new or worsening illness?",
        "type": "choice",
        "required": true,
        "repeats": false,
        "option": [ {
          "valueString": "yes, Selected: false"
        }, {
          "valueString": "not sure, Selected: false"
        }, {
          "valueString": "no, Selected: true"
        } ]
      } ]
    }
  }, {
    "fullUrl": "urn:uuid:22c4af12-1c09-4ddc-adb0-f29c31d96f7b",
    "resource": {
      "resourceType": "QuestionnaireResponse",
      "id": "22c4af12-1c09-4ddc-adb0-f29c31d96f7b",
      "identifier": {
        "value": "60319"
      },
      "questionnaire": {
        "reference": "urn:uuid:0963c8f7-01fc-478d-b472-564b00173fb8"
      },
      "status": "completed",
      "subject": {
        "reference": "urn:uuid:93d211cd-ef81-4add-9259-a6d4e430f601"
      },
      "context": {
        "reference": "urn:uuid:79af41a2-d86c-4605-bc0d-754b471d6606"
      },
      "authored": "2021-04-06T15:19:34+00:00",
      "item": [ {
        "linkId": "Tx221352",
        "text": "Have you got enough medication to last until the surgery opens?",
        "answer": [ {
          "valueString": "no"
        } ]
      } ]
    }
  }, {
    "fullUrl": "urn:uuid:0963c8f7-01fc-478d-b472-564b00173fb8",
    "resource": {
      "resourceType": "Questionnaire",
      "id": "0963c8f7-01fc-478d-b472-564b00173fb8",
      "identifier": [ {
        "value": "60319"
      } ],
      "version": "2021-04-06T15:19:34.083Z",
      "status": "active",
      "experimental": false,
      "date": "2021-04-06T15:19:34+00:00",
      "publisher": "User ID: 'HADFIELDR' User name: 'Ryan Hadfield' User skill set: 'T3'",
      "lastReviewDate": "2021-04-06",
      "contact": [ {
        "telecom": [ {
          "system": "phone",
          "value": "0111 111 1111"
        } ]
      } ],
      "subjectType": [ "Patient" ],
      "item": [ {
        "linkId": "60319",
        "prefix": "1500",
        "text": "Have you got enough medication to last until the surgery opens?",
        "type": "choice",
        "required": true,
        "repeats": false,
        "option": [ {
          "valueString": "yes, Selected: false"
        }, {
          "valueString": "not sure, Selected: false"
        }, {
          "valueString": "no, Selected: true"
        } ]
      } ]
    }
  }, {
    "fullUrl": "urn:uuid:5b537ec4-b51b-422d-9851-8a3cc16a1613",
    "resource": {
      "resourceType": "QuestionnaireResponse",
      "id": "5b537ec4-b51b-422d-9851-8a3cc16a1613",
      "identifier": {
        "value": "60319"
      },
      "questionnaire": {
        "reference": "urn:uuid:2524df88-ad5c-4044-a2c5-4ae8402cc750"
      },
      "status": "completed",
      "subject": {
        "reference": "urn:uuid:93d211cd-ef81-4add-9259-a6d4e430f601"
      },
      "context": {
        "reference": "urn:uuid:79af41a2-d86c-4605-bc0d-754b471d6606"
      },
      "authored": "2021-04-06T15:19:34+00:00"
    }
  }, {
    "fullUrl": "urn:uuid:2524df88-ad5c-4044-a2c5-4ae8402cc750",
    "resource": {
      "resourceType": "Questionnaire",
      "id": "2524df88-ad5c-4044-a2c5-4ae8402cc750",
      "identifier": [ {
        "value": "60319"
      } ],
      "version": "2021-04-06T15:19:34.083Z",
      "status": "active",
      "experimental": false,
      "date": "2021-04-06T15:19:34+00:00",
      "publisher": "User ID: 'HADFIELDR' User name: 'Ryan Hadfield' User skill set: 'T3'",
      "lastReviewDate": "2021-04-06",
      "contact": [ {
        "telecom": [ {
          "system": "phone",
          "value": "0111 111 1111"
        } ]
      } ],
      "subjectType": [ "Patient" ]
    }
  }, {
    "fullUrl": "urn:uuid:0d66107b-2139-49d3-850f-a59f91d48369",
    "resource": {
      "resourceType": "QuestionnaireResponse",
      "id": "0d66107b-2139-49d3-850f-a59f91d48369",
      "identifier": {
        "value": "60319"
      },
      "questionnaire": {
        "reference": "urn:uuid:44e0d681-a8ca-46fe-be50-d61b6762d0f5"
      },
      "status": "completed",
      "subject": {
        "reference": "urn:uuid:93d211cd-ef81-4add-9259-a6d4e430f601"
      },
      "context": {
        "reference": "urn:uuid:79af41a2-d86c-4605-bc0d-754b471d6606"
      },
      "authored": "2021-04-06T15:19:34+00:00",
      "item": [ {
        "linkId": "Tx224231",
        "text": "FROM WHAT YOU HAVE HEARD IS A CONSULTATION WITH A PRESCRIBER NEEDED?",
        "answer": [ {
          "valueString": "no"
        } ]
      } ]
    }
  }, {
    "fullUrl": "urn:uuid:44e0d681-a8ca-46fe-be50-d61b6762d0f5",
    "resource": {
      "resourceType": "Questionnaire",
      "id": "44e0d681-a8ca-46fe-be50-d61b6762d0f5",
      "identifier": [ {
        "value": "60319"
      } ],
      "version": "2021-04-06T15:19:34.083Z",
      "status": "active",
      "experimental": false,
      "date": "2021-04-06T15:19:34+00:00",
      "publisher": "User ID: 'HADFIELDR' User name: 'Ryan Hadfield' User skill set: 'T3'",
      "lastReviewDate": "2021-04-06",
      "contact": [ {
        "telecom": [ {
          "system": "phone",
          "value": "0111 111 1111"
        } ]
      } ],
      "subjectType": [ "Patient" ],
      "item": [ {
        "linkId": "60319",
        "prefix": "0",
        "text": "FROM WHAT YOU HAVE HEARD IS A CONSULTATION WITH A PRESCRIBER NEEDED?",
        "type": "choice",
        "required": true,
        "repeats": false,
        "option": [ {
          "valueString": "yes, Selected: false"
        }, {
          "valueString": "not sure, Selected: false"
        }, {
          "valueString": "no, Selected: true"
        } ]
      } ]
    }
  }, {
    "fullUrl": "urn:uuid:1bded18e-dd67-4077-ac3d-922d596a289a",
    "resource": {
      "resourceType": "QuestionnaireResponse",
      "id": "1bded18e-dd67-4077-ac3d-922d596a289a",
      "identifier": {
        "value": "60319"
      },
      "questionnaire": {
        "reference": "urn:uuid:b8907d7a-0804-49f1-b5d6-3043e11eaee2"
      },
      "status": "completed",
      "subject": {
        "reference": "urn:uuid:93d211cd-ef81-4add-9259-a6d4e430f601"
      },
      "context": {
        "reference": "urn:uuid:79af41a2-d86c-4605-bc0d-754b471d6606"
      },
      "authored": "2021-04-06T15:19:34+00:00",
      "item": [ {
        "linkId": "Tx222687",
        "text": "Have you got any of the medication available at the moment?",
        "answer": [ {
          "valueString": "no"
        } ]
      } ]
    }
  }, {
    "fullUrl": "urn:uuid:b8907d7a-0804-49f1-b5d6-3043e11eaee2",
    "resource": {
      "resourceType": "Questionnaire",
      "id": "b8907d7a-0804-49f1-b5d6-3043e11eaee2",
      "identifier": [ {
        "value": "60319"
      } ],
      "version": "2021-04-06T15:19:34.083Z",
      "status": "active",
      "experimental": false,
      "date": "2021-04-06T15:19:34+00:00",
      "publisher": "User ID: 'HADFIELDR' User name: 'Ryan Hadfield' User skill set: 'T3'",
      "lastReviewDate": "2021-04-06",
      "contact": [ {
        "telecom": [ {
          "system": "phone",
          "value": "0111 111 1111"
        } ]
      } ],
      "subjectType": [ "Patient" ],
      "item": [ {
        "linkId": "60319",
        "prefix": "200",
        "text": "Have you got any of the medication available at the moment?",
        "type": "choice",
        "required": true,
        "repeats": false,
        "option": [ {
          "valueString": "yes, Selected: false"
        }, {
          "valueString": "not sure, Selected: false"
        }, {
          "valueString": "no, Selected: true"
        } ]
      } ]
    }
  }, {
    "fullUrl": "urn:uuid:2aa99d7b-9271-44d6-80d1-8f66126a838b",
    "resource": {
      "resourceType": "QuestionnaireResponse",
      "id": "2aa99d7b-9271-44d6-80d1-8f66126a838b",
      "identifier": {
        "value": "60319"
      },
      "questionnaire": {
        "reference": "urn:uuid:571c6fae-5565-40ec-8d28-2ba9d97dce53"
      },
      "status": "completed",
      "subject": {
        "reference": "urn:uuid:93d211cd-ef81-4add-9259-a6d4e430f601"
      },
      "context": {
        "reference": "urn:uuid:79af41a2-d86c-4605-bc0d-754b471d6606"
      },
      "authored": "2021-04-06T15:19:34+00:00",
      "item": [ {
        "linkId": "Tx221367",
        "text": "When is the next dose due?",
        "answer": [ {
          "valueString": "over 12 hours time"
        } ]
      } ]
    }
  }, {
    "fullUrl": "urn:uuid:571c6fae-5565-40ec-8d28-2ba9d97dce53",
    "resource": {
      "resourceType": "Questionnaire",
      "id": "571c6fae-5565-40ec-8d28-2ba9d97dce53",
      "identifier": [ {
        "value": "60319"
      } ],
      "version": "2021-04-06T15:19:34.083Z",
      "status": "active",
      "experimental": false,
      "date": "2021-04-06T15:19:34+00:00",
      "publisher": "User ID: 'HADFIELDR' User name: 'Ryan Hadfield' User skill set: 'T3'",
      "lastReviewDate": "2021-04-06",
      "contact": [ {
        "telecom": [ {
          "system": "phone",
          "value": "0111 111 1111"
        } ]
      } ],
      "subjectType": [ "Patient" ],
      "item": [ {
        "linkId": "60319",
        "prefix": "100",
        "text": "When is the next dose due?",
        "type": "choice",
        "required": true,
        "repeats": false,
        "option": [ {
          "valueString": "within the next 2 hours, Selected: false"
        }, {
          "valueString": "within the next 6 hours, Selected: false"
        }, {
          "valueString": "within the next 12 hours, Selected: false"
        }, {
          "valueString": "over 12 hours time, Selected: true"
        }, {
          "valueString": "not sure, Selected: false"
        } ]
      } ]
    }
  }, {
    "fullUrl": "urn:uuid:da75144b-7839-45e7-ac24-50f3c9e298e8",
    "resource": {
      "resourceType": "QuestionnaireResponse",
      "id": "da75144b-7839-45e7-ac24-50f3c9e298e8",
      "identifier": {
        "value": "60319"
      },
      "questionnaire": {
        "reference": "urn:uuid:3f728311-587d-4e4e-84f5-3383cf040e26"
      },
      "status": "completed",
      "subject": {
        "reference": "urn:uuid:93d211cd-ef81-4add-9259-a6d4e430f601"
      },
      "context": {
        "reference": "urn:uuid:79af41a2-d86c-4605-bc0d-754b471d6606"
      },
      "authored": "2021-04-06T15:19:34+00:00",
      "item": [ {
        "linkId": "Tx223441",
        "text": "STRING:SDPCRepeatPrescription",
        "answer": [ {
          "valueString": "\"PC repeat prescription\""
        } ]
      } ]
    }
  }, {
    "fullUrl": "urn:uuid:3f728311-587d-4e4e-84f5-3383cf040e26",
    "resource": {
      "resourceType": "Questionnaire",
      "id": "3f728311-587d-4e4e-84f5-3383cf040e26",
      "identifier": [ {
        "value": "60319"
      } ],
      "version": "2021-04-06T15:19:34.083Z",
      "status": "active",
      "experimental": false,
      "date": "2021-04-06T15:19:34+00:00",
      "publisher": "User ID: 'HADFIELDR' User name: 'Ryan Hadfield' User skill set: 'T3'",
      "lastReviewDate": "2021-04-06",
      "contact": [ {
        "telecom": [ {
          "system": "phone",
          "value": "0111 111 1111"
        } ]
      } ],
      "subjectType": [ "Patient" ],
      "item": [ {
        "linkId": "60319",
        "prefix": "1100",
        "text": "STRING:SDPCRepeatPrescription",
        "type": "choice",
        "required": true,
        "repeats": false,
        "option": [ {
          "valueString": "\"PC repeat prescription\", Selected: true"
        } ]
      } ]
    }
  }, {
    "fullUrl": "urn:uuid:8cefcc98-2f63-4632-a076-c7ed08d16b53",
    "resource": {
      "resourceType": "QuestionnaireResponse",
      "id": "8cefcc98-2f63-4632-a076-c7ed08d16b53",
      "identifier": {
        "value": "60319"
      },
      "questionnaire": {
        "reference": "urn:uuid:b3b02438-030a-4d28-9b92-9b209ff94f26"
      },
      "status": "completed",
      "subject": {
        "reference": "urn:uuid:93d211cd-ef81-4add-9259-a6d4e430f601"
      },
      "context": {
        "reference": "urn:uuid:79af41a2-d86c-4605-bc0d-754b471d6606"
      },
      "authored": "2021-04-06T15:19:34+00:00"
    }
  }, {
    "fullUrl": "urn:uuid:b3b02438-030a-4d28-9b92-9b209ff94f26",
    "resource": {
      "resourceType": "Questionnaire",
      "id": "b3b02438-030a-4d28-9b92-9b209ff94f26",
      "identifier": [ {
        "value": "60319"
      } ],
      "version": "2021-04-06T15:19:34.083Z",
      "status": "active",
      "experimental": false,
      "date": "2021-04-06T15:19:34+00:00",
      "publisher": "User ID: 'HADFIELDR' User name: 'Ryan Hadfield' User skill set: 'T3'",
      "lastReviewDate": "2021-04-06",
      "contact": [ {
        "telecom": [ {
          "system": "phone",
          "value": "0111 111 1111"
        } ]
      } ],
      "subjectType": [ "Patient" ]
    }
  }, {
    "fullUrl": "urn:uuid:e6b3e5f8-9506-4adf-871e-bac9be5f9c85",
    "resource": {
      "resourceType": "QuestionnaireResponse",
      "id": "e6b3e5f8-9506-4adf-871e-bac9be5f9c85",
      "identifier": {
        "value": "60319"
      },
      "questionnaire": {
        "reference": "urn:uuid:c72f0107-0804-4163-b8b4-8a6b02ded0f9"
      },
      "status": "completed",
      "subject": {
        "reference": "urn:uuid:93d211cd-ef81-4add-9259-a6d4e430f601"
      },
      "context": {
        "reference": "urn:uuid:79af41a2-d86c-4605-bc0d-754b471d6606"
      },
      "authored": "2021-04-06T15:19:34+00:00"
    }
  }, {
    "fullUrl": "urn:uuid:c72f0107-0804-4163-b8b4-8a6b02ded0f9",
    "resource": {
      "resourceType": "Questionnaire",
      "id": "c72f0107-0804-4163-b8b4-8a6b02ded0f9",
      "identifier": [ {
        "value": "60319"
      } ],
      "version": "2021-04-06T15:19:34.083Z",
      "status": "active",
      "experimental": false,
      "date": "2021-04-06T15:19:34+00:00",
      "publisher": "User ID: 'HADFIELDR' User name: 'Ryan Hadfield' User skill set: 'T3'",
      "lastReviewDate": "2021-04-06",
      "contact": [ {
        "telecom": [ {
          "system": "phone",
          "value": "0111 111 1111"
        } ]
      } ],
      "subjectType": [ "Patient" ]
    }
  }, {
    "fullUrl": "urn:uuid:ce7b0030-17dc-4e36-a0a7-af9e187b7bea",
    "resource": {
      "resourceType": "PractitionerRole",
      "id": "ce7b0030-17dc-4e36-a0a7-af9e187b7bea",
      "practitioner": {
        "reference": "urn:uuid:fd350386-c6ce-43d2-9de1-ec0ec1f928eb"
      },
      "organization": {
        "reference": "urn:uuid:e7c0a816-fff3-45c9-96fe-7cee8e0a1b66"
      },
      "code": [ {
        "coding": [ {
          "system": "2.16.840.1.113883.2.1.3.2.4.17.339",
          "code": "DOCTOR",
          "display": "Doctor"
        } ]
      } ]
    }
  }, {
    "fullUrl": "urn:uuid:e7c0a816-fff3-45c9-96fe-7cee8e0a1b66",
    "resource": {
      "resourceType": "Organization",
      "id": "e7c0a816-fff3-45c9-96fe-7cee8e0a1b66",
      "identifier": [ {
        "value": "RYE"
      } ],
      "name": "RepresentedOrg Name"
    }
  }, {
    "fullUrl": "urn:uuid:7ee59f21-41f2-4acc-8cdf-48c6e77379ed",
    "resource": {
      "resourceType": "PractitionerRole",
      "id": "7ee59f21-41f2-4acc-8cdf-48c6e77379ed",
      "practitioner": {
        "reference": "urn:uuid:d160b09d-ff35-4a38-b10e-ea7da575ea7d"
      },
      "organization": {
        "reference": "urn:uuid:dbb714a8-1915-45f9-a672-16e63a41d23e"
      },
      "code": [ {
        "coding": [ {
          "system": "2.16.840.1.113883.2.1.3.2.4.17.196",
          "code": "R0010",
          "display": "Medical Director"
        } ]
      } ]
    }
  }, {
    "fullUrl": "urn:uuid:dbb714a8-1915-45f9-a672-16e63a41d23e",
    "resource": {
      "resourceType": "Organization",
      "id": "dbb714a8-1915-45f9-a672-16e63a41d23e",
      "identifier": [ {
        "value": "RYE"
      } ],
      "name": "RepresentedOrgNameRYE"
    }
  }, {
    "fullUrl": "urn:uuid:f394306d-5b23-4b45-9ecd-0030b45f2fd2",
    "resource": {
      "resourceType": "RelatedPerson",
      "id": "f394306d-5b23-4b45-9ecd-0030b45f2fd2",
      "patient": {
        "reference": "urn:uuid:93d211cd-ef81-4add-9259-a6d4e430f601"
      },
      "relationship": {
        "coding": [ {
          "system": "http://hl7.org/fhir/v2/0131",
          "code": "C",
          "display": "Emergency Contact"
        } ]
      },
      "telecom": [ {
        "system": "phone",
        "value": "tel:000000000000"
      } ]
    }
  }, {
    "fullUrl": "urn:uuid:ef525e32-6baa-4271-992b-ac1fd9cc9c8c",
    "resource": {
      "resourceType": "Device",
      "id": "ef525e32-6baa-4271-992b-ac1fd9cc9c8c",
      "model": "111 Adaptor",
      "version": "1.0.1"
    }
  }, {
    "fullUrl": "urn:uuid:720b5c1b-6822-4950-9c0c-09e34f056a64",
    "resource": {
      "resourceType": "List",
      "id": "720b5c1b-6822-4950-9c0c-09e34f056a64",
      "status": "current",
      "mode": "working",
      "title": "111 Report List",
      "code": {
        "coding": [ {
          "system": "http://snomed.info/sct",
          "code": "225390008",
          "display": "Triage"
        } ]
      },
      "subject": {
        "reference": "urn:uuid:93d211cd-ef81-4add-9259-a6d4e430f601"
      },
      "encounter": {
        "reference": "urn:uuid:79af41a2-d86c-4605-bc0d-754b471d6606"
      },
      "date": "2021-04-06T15:19:34+00:00",
      "source": {
        "reference": "urn:uuid:ef525e32-6baa-4271-992b-ac1fd9cc9c8c"
      },
      "orderedBy": {
        "coding": [ {
          "system": "http://hl7.org/fhir/list-order",
          "code": "event-date",
          "display": "Sorted by Event Date"
        } ]
      },
      "entry": [ {
        "item": {
          "reference": "urn:uuid:fd350386-c6ce-43d2-9de1-ec0ec1f928eb"
        }
      }, {
        "item": {
          "reference": "urn:uuid:661b7d9d-7092-4a29-becd-116e15e00ed7"
        }
      }, {
        "item": {
          "reference": "urn:uuid:5cafcf12-a8de-41b1-99ac-fb95f064c277"
        }
      }, {
        "item": {
          "reference": "urn:uuid:e7c0a816-fff3-45c9-96fe-7cee8e0a1b66"
        }
      }, {
        "item": {
          "reference": "urn:uuid:f394306d-5b23-4b45-9ecd-0030b45f2fd2"
        }
      }, {
        "item": {
          "reference": "urn:uuid:f1c67a2e-a0dc-4540-af68-7b780d7dcf64"
        }
      }, {
        "item": {
          "reference": "urn:uuid:158b9955-9d62-4fc5-af9a-40e1b225dea7"
        }
      }, {
        "item": {
          "reference": "urn:uuid:d160b09d-ff35-4a38-b10e-ea7da575ea7d"
        }
      }, {
        "item": {
          "reference": "urn:uuid:dbb714a8-1915-45f9-a672-16e63a41d23e"
        }
      }, {
        "item": {
          "reference": "urn:uuid:065ce510-34ee-4320-9743-36b137b0176b"
        }
      }, {
        "item": {
          "reference": "urn:uuid:3f728311-587d-4e4e-84f5-3383cf040e26"
        }
      }, {
        "item": {
          "reference": "urn:uuid:1e98a273-e4b6-4f77-814b-bca1c89d300e"
        }
      }, {
        "item": {
          "reference": "urn:uuid:457d7e18-27d2-4eea-932a-80c55d679ac7"
        }
      }, {
        "item": {
          "reference": "urn:uuid:44e0d681-a8ca-46fe-be50-d61b6762d0f5"
        }
      }, {
        "item": {
          "reference": "urn:uuid:1ae2d245-1b41-4dee-b5f4-9fa274a53d92"
        }
      }, {
        "item": {
          "reference": "urn:uuid:e6b3e5f8-9506-4adf-871e-bac9be5f9c85"
        }
      }, {
        "item": {
          "reference": "urn:uuid:8cefcc98-2f63-4632-a076-c7ed08d16b53"
        }
      }, {
        "item": {
          "reference": "urn:uuid:0d66107b-2139-49d3-850f-a59f91d48369"
        }
      }, {
        "item": {
          "reference": "urn:uuid:2524df88-ad5c-4044-a2c5-4ae8402cc750"
        }
      }, {
        "item": {
          "reference": "urn:uuid:0963c8f7-01fc-478d-b472-564b00173fb8"
        }
      }, {
        "item": {
          "reference": "urn:uuid:b8907d7a-0804-49f1-b5d6-3043e11eaee2"
        }
      }, {
        "item": {
          "reference": "urn:uuid:c72f0107-0804-4163-b8b4-8a6b02ded0f9"
        }
      }, {
        "item": {
          "reference": "urn:uuid:15564cfa-eff4-4791-9ad6-9a54fe9d9f33"
        }
      }, {
        "item": {
          "reference": "urn:uuid:2aa99d7b-9271-44d6-80d1-8f66126a838b"
        }
      }, {
        "item": {
          "reference": "urn:uuid:da75144b-7839-45e7-ac24-50f3c9e298e8"
        }
      }, {
        "item": {
          "reference": "urn:uuid:16a19341-2d9c-4976-816f-1d9313928792"
        }
      }, {
        "item": {
          "reference": "urn:uuid:d43d1a13-1894-46fc-9ff6-4a5826a7352b"
        }
      }, {
        "item": {
          "reference": "urn:uuid:e09a1874-5306-4d18-bb9a-5e5a76c653a3"
        }
      }, {
        "item": {
          "reference": "urn:uuid:5b537ec4-b51b-422d-9851-8a3cc16a1613"
        }
      }, {
        "item": {
          "reference": "urn:uuid:22c4af12-1c09-4ddc-adb0-f29c31d96f7b"
        }
      }, {
        "item": {
          "reference": "urn:uuid:571c6fae-5565-40ec-8d28-2ba9d97dce53"
        }
      }, {
        "item": {
          "reference": "urn:uuid:d35aa512-2bbb-4811-98a0-85e3f9df5857"
        }
      }, {
        "item": {
          "reference": "urn:uuid:1bded18e-dd67-4077-ac3d-922d596a289a"
        }
      }, {
        "item": {
          "reference": "urn:uuid:6f0258e7-d3be-47c4-aab9-c52789d9b71b"
        }
      }, {
        "item": {
          "reference": "urn:uuid:cd6bc054-0d74-4a31-a912-7450cdbfb97c"
        }
      }, {
        "item": {
          "reference": "urn:uuid:614a0647-b2f8-4185-9733-0d735d92832e"
        }
      }, {
        "item": {
          "reference": "urn:uuid:b3b02438-030a-4d28-9b92-9b209ff94f26"
        }
      }, {
        "item": {
          "reference": "urn:uuid:b86f47fd-2f83-483c-8040-28fa0cfefc29"
        }
      }, {
        "item": {
          "reference": "urn:uuid:c885c0a8-02b9-42e7-91bb-f95b3a01309b"
        }
      }, {
        "item": {
          "reference": "urn:uuid:d178ff84-7b03-44d4-acaf-ba6ed75c58ad"
        }
      } ]
    }
  } ]
}