{
  "resourceType": "Bundle",
  "meta": {
    "lastUpdated": "2022-05-12T07:25:18.665+00:00"
  },
  "identifier": {
    "type": {
      "text": "ClinicalDocument VersionNumber"
    },
    "value": "1"
  },
  "type": "message",
  "entry": [ {
    "fullUrl": "urn:uuid:4A4DE551-F585-49BB-A1D3-12DCC764AF52",
    "resource": {
      "resourceType": "MessageHeader",
      "id": "4A4DE551-F585-49BB-A1D3-12DCC764AF52",
      "event": {
        "system": "https://fhir.nhs.uk/STU3/CodeSystem/EventType-1",
        "code": "referral-1",
        "display": "Referral"
      },
      "destination": [ {
        "endpoint": "urn:nhs-uk:addressing:ods:NVE06:DOSServiceID:1335970392"
      } ],
      "timestamp": "2021-05-11T08:58:52.000+00:00",
      "source": {
        "name": "NHS 111 Adaptor",
        "endpoint": "http://localhost:8080/report"
      },
      "reason": {
        "coding": [ {
          "system": "urn:nhs-itk:ns:201005:interaction",
          "code": "urn:nhs-itk:interaction:primaryOutofHourRecipientNHS111CDADocument-v2-0"
        } ]
      }
    }
  }, {
    "fullUrl": "urn:uuid:e61c9737-a645-44f8-b706-6100777f26e7",
    "resource": {
      "resourceType": "Encounter",
      "id": "e61c9737-a645-44f8-b706-6100777f26e7",
      "identifier": [ {
        "system": "2.16.840.1.113883.2.1.3.2.4.18.34",
        "value": "D21E3785-658E-4B35-A8B2-2E59906B8983"
      }, {
        "system": "2.16.840.1.113883.2.1.3.2.4.18.35",
        "value": "2100310384"
      } ],
      "status": "finished",
      "type": [ {
        "text": "111 Encounter Referral"
      } ],
      "subject": {
        "reference": "urn:uuid:1a8464d6-7a92-4383-a239-9f480be8dfcc"
      },
      "participant": [ {
        "type": [ {
          "coding": [ {
            "system": "http://hl7.org/fhir/ValueSet/encounter-participant-type",
            "code": "PPRF",
            "display": "Author"
          } ]
        } ],
        "individual": {
          "reference": "urn:uuid:a29dd740-9d0f-4f4e-8e08-602c3847fd0f"
        }
      }, {
        "type": [ {
          "text": "Informant"
        } ],
        "individual": {
          "reference": "urn:uuid:597c05d0-ede8-41d5-b167-22a754f9250e"
        }
      } ],
      "period": {
        "start": "2021-05-11T08:54:54+00:00",
        "end": "2021-05-11T08:58:52+00:00"
      },
      "location": [ {
        "location": {
          "reference": "urn:uuid:e8477e7f-e673-47f5-8ef3-175c559cf4b0"
        },
        "status": "active"
      }, {
        "location": {
          "reference": "urn:uuid:165c8a58-572a-4a07-9ada-d0fc446d2200"
        },
        "status": "completed"
      } ],
      "serviceProvider": {
        "reference": "urn:uuid:d1869382-895c-44d7-b954-c31ffd4c04b0"
      }
    }
  }, {
    "fullUrl": "urn:uuid:d1869382-895c-44d7-b954-c31ffd4c04b0",
    "resource": {
      "resourceType": "Organization",
      "id": "d1869382-895c-44d7-b954-c31ffd4c04b0",
      "active": true,
      "type": [ {
        "text": "CST"
      } ],
      "name": "Norfolk and Wisbech 111"
    }
  }, {
    "fullUrl": "urn:uuid:a29dd740-9d0f-4f4e-8e08-602c3847fd0f",
    "resource": {
      "resourceType": "Practitioner",
      "id": "a29dd740-9d0f-4f4e-8e08-602c3847fd0f",
      "active": true,
      "name": [ {
        "text": "Ben Smythson"
      } ]
    }
  }, {
    "fullUrl": "urn:uuid:597c05d0-ede8-41d5-b167-22a754f9250e",
    "resource": {
      "resourceType": "RelatedPerson",
      "id": "597c05d0-ede8-41d5-b167-22a754f9250e",
      "active": true,
      "patient": {
        "reference": "urn:uuid:1a8464d6-7a92-4383-a239-9f480be8dfcc"
      },
      "relationship": {
        "coding": [ {
          "system": "2.16.840.1.113883.2.1.3.2.4.16.45",
          "code": "21",
          "display": "Self"
        }, {
          "system": "http://hl7.org/fhir/v2/0131",
          "code": "C",
          "display": "Emergency Contact"
        } ]
      },
      "name": [ {
        "text": "Test Call TEST CALL DX07"
      } ],
      "telecom": [ {
        "system": "phone",
        "value": "tel:01233123123"
      } ],
      "gender": "unknown"
    }
  }, {
    "fullUrl": "urn:uuid:e8477e7f-e673-47f5-8ef3-175c559cf4b0",
    "resource": {
      "resourceType": "Location",
      "id": "e8477e7f-e673-47f5-8ef3-175c559cf4b0",
      "managingOrganization": {
        "reference": "urn:uuid:0a1060b4-b54c-480d-964d-c92d38dfa60b"
      }
    }
  }, {
    "fullUrl": "urn:uuid:0a1060b4-b54c-480d-964d-c92d38dfa60b",
    "resource": {
      "resourceType": "Organization",
      "id": "0a1060b4-b54c-480d-964d-c92d38dfa60b",
      "identifier": [ {
        "value": "Z10000"
      } ],
      "type": [ {
        "text": "GP Practice"
      } ],
      "name": "UNKNOWN"
    }
  }, {
    "fullUrl": "urn:uuid:165c8a58-572a-4a07-9ada-d0fc446d2200",
    "resource": {
      "resourceType": "Location",
      "id": "165c8a58-572a-4a07-9ada-d0fc446d2200",
      "address": {
        "type": "physical",
        "line": [ "313 VICTORIA ROAD", "LOWESTOFT" ],
        "postalCode": "NR33 9LS"
      }
    }
  }, {
    "fullUrl": "urn:uuid:1a8464d6-7a92-4383-a239-9f480be8dfcc",
    "resource": {
      "resourceType": "Patient",
      "id": "1a8464d6-7a92-4383-a239-9f480be8dfcc",
      "language": "en",
      "active": true,
      "name": [ {
        "use": "official",
        "family": "TEST CALL DX07",
        "given": [ "Test Call" ]
      } ],
      "telecom": [ {
        "system": "phone",
        "value": "tel:01233123123"
      } ],
      "gender": "male",
      "birthDate": "1996-03-25",
      "address": [ {
        "use": "home",
        "line": [ "313 VICTORIA ROAD", "LOWESTOFT" ],
        "postalCode": "NR33 9LS"
      }, {
        "type": "physical",
        "line": [ "313 VICTORIA ROAD", "LOWESTOFT" ],
        "postalCode": "NR33 9LS"
      } ],
      "generalPractitioner": [ {
        "reference": "urn:uuid:0f30a4ea-cbe7-4f28-9a7a-6d1adaa09502"
      } ]
    }
  }, {
    "fullUrl": "urn:uuid:0f30a4ea-cbe7-4f28-9a7a-6d1adaa09502",
    "resource": {
      "resourceType": "Organization",
      "id": "0f30a4ea-cbe7-4f28-9a7a-6d1adaa09502",
      "identifier": [ {
        "value": "Z10000"
      } ],
      "type": [ {
        "text": "GP Practice"
      } ],
      "name": "UNKNOWN"
    }
  }, {
    "fullUrl": "urn:uuid:579eb6be-342f-4833-8e62-171a0ceb2f5f",
    "resource": {
      "resourceType": "HealthcareService",
      "id": "579eb6be-342f-4833-8e62-171a0ceb2f5f",
      "active": true,
      "providedBy": {
        "reference": "urn:uuid:a62cff62-4cff-4c53-a91c-047a3c31b0f2"
      },
      "location": [ {
        "reference": "urn:uuid:de78cedb-a42f-44bd-97de-e249480f8892"
      } ],
      "name": "Out of Hours GP Service (Waveney) - Kirkley Mill Health Centre, Lowestoft"
    }
  }, {
    "fullUrl": "urn:uuid:de78cedb-a42f-44bd-97de-e249480f8892",
    "resource": {
      "resourceType": "Location",
      "id": "de78cedb-a42f-44bd-97de-e249480f8892",
      "managingOrganization": {
        "reference": "urn:uuid:a62cff62-4cff-4c53-a91c-047a3c31b0f2"
      }
    }
  }, {
    "fullUrl": "urn:uuid:a62cff62-4cff-4c53-a91c-047a3c31b0f2",
    "resource": {
      "resourceType": "Organization",
      "id": "a62cff62-4cff-4c53-a91c-047a3c31b0f2",
      "identifier": [ {
        "value": "NVE06"
      } ],
      "type": [ {
        "coding": [ {
          "code": "PRCP",
          "display": "Out of Hours GP Service (Waveney) - Kirkley Mill Health Centre, Lowestoft"
        } ]
      } ],
      "name": "Out of Hours GP Service (Waveney) - Kirkley Mill Health Centre, Lowestoft"
    }
  }, {
    "fullUrl": "urn:uuid:f1b2a467-15a3-4163-80ed-779097727710",
    "resource": {
      "resourceType": "ReferralRequest",
      "id": "f1b2a467-15a3-4163-80ed-779097727710",
      "status": "active",
      "intent": "plan",
      "priority": "routine",
      "subject": {
        "reference": "urn:uuid:1a8464d6-7a92-4383-a239-9f480be8dfcc"
      },
      "context": {
        "reference": "urn:uuid:e61c9737-a645-44f8-b706-6100777f26e7"
      },
      "occurrencePeriod": {
        "start": "2021-05-11T08:58:52+00:00"
      },
      "authoredOn": "2021-05-11T08:58:52+00:00",
      "requester": {
        "agent": {
          "reference": "urn:uuid:63112ef2-bebb-4e46-9df2-0a74fc7dd539"
        },
        "onBehalfOf": {
          "reference": "urn:uuid:d1869382-895c-44d7-b954-c31ffd4c04b0"
        }
      },
      "recipient": [ {
        "reference": "urn:uuid:32948151-00bb-4b8b-bb11-946ccf58318d"
      }, {
        "reference": "urn:uuid:579eb6be-342f-4833-8e62-171a0ceb2f5f"
      } ],
      "reasonReference": [ {
        "reference": "urn:uuid:74d6ae9f-e1f4-4399-9c84-30e626f5229f"
      } ],
      "supportingInfo": [ {
        "reference": "urn:uuid:182d8014-214d-4348-abbd-d3725b79bc7d"
      } ]
    }
  }, {
    "fullUrl": "urn:uuid:182d8014-214d-4348-abbd-d3725b79bc7d",
    "resource": {
      "resourceType": "ProcedureRequest",
      "id": "182d8014-214d-4348-abbd-d3725b79bc7d",
      "status": "active",
      "intent": "plan",
      "priority": "routine",
      "doNotPerform": false,
      "code": {
        "coding": [ {
          "system": "2.16.840.1.113883.2.1.3.2.4.17.325",
          "code": "Dx07",
          "display": "To contact a local service within 12 hours"
        } ]
      },
      "subject": {
        "reference": "urn:uuid:1a8464d6-7a92-4383-a239-9f480be8dfcc"
      },
      "occurrencePeriod": {
        "start": "2021-05-11T08:58:52+00:00"
      },
      "reasonReference": [ {
        "reference": "urn:uuid:74d6ae9f-e1f4-4399-9c84-30e626f5229f"
      } ]
    }
  }, {
    "fullUrl": "urn:uuid:32948151-00bb-4b8b-bb11-946ccf58318d",
    "resource": {
      "resourceType": "Practitioner",
      "id": "32948151-00bb-4b8b-bb11-946ccf58318d",
      "active": true,
      "telecom": [ {
        "system": "phone",
        "value": "tel:01233505450"
      } ],
      "address": [ {
        "type": "physical",
        "line": [ "Kingston House", "The Long Barrow", "Orbital Park", "Ashford", "Kent" ],
        "postalCode": "TN24 0GP"
      } ]
    }
  }, {
    "fullUrl": "urn:uuid:3e2bcb56-06bb-4f78-b5c5-3f90c739f068",
    "resource": {
      "resourceType": "Composition",
      "id": "3e2bcb56-06bb-4f78-b5c5-3f90c739f068",
      "identifier": {
        "use": "usual",
        "value": "B172BCF7-DD1C-4508-B781-6BE68ABD1F79"
      },
      "status": "final",
      "type": {
        "coding": [ {
          "system": "http://snomed.info/sct",
          "code": "371531000",
          "display": "Report of clinical encounter (record artifact)"
        } ]
      },
      "subject": {
        "reference": "urn:uuid:1a8464d6-7a92-4383-a239-9f480be8dfcc"
      },
      "encounter": {
        "reference": "urn:uuid:e61c9737-a645-44f8-b706-6100777f26e7"
      },
      "date": "2021-05-11T08:58:52+00:00",
      "author": [ {
        "reference": "urn:uuid:a29dd740-9d0f-4f4e-8e08-602c3847fd0f"
      } ],
      "title": "111 Report",
      "confidentiality": "R",
      "section": [ {
        "section": [ {
          "title": "Patient's Reported Condition",
          "text": {
            "status": "generated",
            "div": "<div xmlns=\"http://www.w3.org/1999/xhtml\">&lt;content&gt;&amp;lt;CLEO Ref: 2100310384&amp;gt; Test Call for Dx07.\n                                                        &lt;br/&gt;\n                                                    &lt;/content&gt;</div>"
          }
        }, {
          "title": "Pathways Disposition",
          "text": {
            "status": "generated",
            "div": "<div xmlns=\"http://www.w3.org/1999/xhtml\">&lt;content&gt;The individual needs to contact a local service within 12 hours. (Dx07)&lt;/content&gt;\n                                                    &lt;br/&gt;\n                                                    &lt;br/&gt;\n                                                    &lt;content&gt;Selected Service: 1335970392, Out of Hours GP Service (Waveney) - Kirkley Mill Health Centre, Lowestoft, 111&lt;/content&gt;\n                                                    &lt;br/&gt;</div>"
          }
        }, {
          "title": "Consultation Summary",
          "text": {
            "status": "generated",
            "div": "<div xmlns=\"http://www.w3.org/1999/xhtml\">&lt;content&gt;\n                                                        &lt;content&gt;Excessive thirst in last 4 weeks&lt;/content&gt;\n                                                        &lt;br/&gt;\n                                                        &lt;content&gt;Warm to touch&lt;/content&gt;\n                                                        &lt;br/&gt;\n                                                        &lt;content&gt;Illness - Test&lt;/content&gt;\n                                                        &lt;br/&gt;\n                                                    &lt;/content&gt;</div>"
          }
        }, {
          "title": "Pathways Assessment",
          "text": {
            "status": "generated",
            "div": "<div xmlns=\"http://www.w3.org/1999/xhtml\">&lt;content&gt;An injury or health problem was the reason for the contact.&lt;/content&gt;\n                                                    &lt;br/&gt;\n                                                    &lt;content&gt;Heavy bleeding had not occurred in the previous 2 hours.&lt;/content&gt;\n                                                    &lt;br/&gt;\n                                                    &lt;content&gt;An illness or health problem was the main problem. - Test&lt;/content&gt;\n                                                    &lt;br/&gt;\n                                                    &lt;content&gt;The individual was not fighting for breath.&lt;/content&gt;\n                                                    &lt;br/&gt;\n                                                    &lt;content&gt;The main reason for the assessment was not an allergic reaction, heart attack, chest/upper back pain, probable stroke, recent fit/seizure or suicide attempt.&lt;/content&gt;\n                                                    &lt;br/&gt;\n                                                    &lt;content&gt;The main reason for contact was not new confusion, declared diabetic hypo/hyperglycaemia, or ICD shock.&lt;/content&gt;\n                                                    &lt;br/&gt;\n                                                    &lt;content&gt;The skin on the torso felt normal, warm or hot.&lt;/content&gt;\n                                                    &lt;br/&gt;\n                                                    &lt;content&gt;There was no vomiting, diarrhoea, rectal bleeding, groin pain or groin swelling.&lt;/content&gt;\n                                                    &lt;br/&gt;\n                                                    &lt;content&gt;There was no new genital pain or swelling.&lt;/content&gt;\n                                                    &lt;br/&gt;\n                                                    &lt;content&gt;The individual was able to carry out most or all normal activities.&lt;/content&gt;\n                                                    &lt;br/&gt;\n                                                    &lt;content&gt;There was no crushing or severe aching chest, upper back or upper abdominal pain, or pain going to the arm, neck, jaw or shoulder.&lt;/content&gt;\n                                                    &lt;br/&gt;\n                                                    &lt;content&gt;The individual had not ingested a harmful or toxic substance.&lt;/content&gt;\n                                                    &lt;br/&gt;\n                                                    &lt;content&gt;There had been no black and tarry or red/maroon bowel motions.&lt;/content&gt;\n                                                    &lt;br/&gt;\n                                                    &lt;content&gt;There was no new or worsening confusion.&lt;/content&gt;\n                                                    &lt;br/&gt;\n                                                    &lt;content&gt;Breathing harder or faster when doing nothing was not described.&lt;/content&gt;\n                                                    &lt;br/&gt;\n                                                    &lt;content&gt;There was no new shoulder tip pain or pain in the lower right abdomen.&lt;/content&gt;\n                                                    &lt;br/&gt;\n                                                    &lt;content&gt;The individual did not use anticoagulant medication or have a bleeding/clotting disorder.&lt;/content&gt;\n                                                    &lt;br/&gt;\n                                                    &lt;content&gt;The individual had not been in constant pain for 4 hours or more.&lt;/content&gt;\n                                                    &lt;br/&gt;\n                                                    &lt;content&gt;The individual was not jaundiced.&lt;/content&gt;\n                                                    &lt;br/&gt;\n                                                    &lt;content&gt;The individual had experienced extreme thirst during the previous 4 weeks.&lt;/content&gt;\n                                                    &lt;br/&gt;</div>"
          }
        }, {
          "title": "Advice Given",
          "text": {
            "status": "generated",
            "div": "<div xmlns=\"http://www.w3.org/1999/xhtml\">&lt;content&gt;Unless advised not to, paracetamol may be used to relieve pain or fever. Follow the instructions in the pack. If in doubt ask a pharmacist.&lt;/content&gt;\n                                                    &lt;br/&gt;\n                                                    &lt;content&gt;Don't use ibuprofen or any other anti-inflammatory medication until you have spoken to a healthcare professional.&lt;/content&gt;\n                                                    &lt;br/&gt;\n                                                    &lt;content&gt;If there are any new symptoms, or if the condition gets worse, changes or you have any other concerns, call us back.&lt;/content&gt;\n                                                    &lt;br/&gt;\n                                                    &lt;content&gt;Remember to take a list of any current medications if you go to the out of hours surgery.&lt;/content&gt;\n                                                    &lt;br/&gt;</div>"
          }
        }, {
          "title": "SCR Consent",
          "text": {
            "status": "generated",
            "div": "<div xmlns=\"http://www.w3.org/1999/xhtml\">&lt;content&gt;Consent given for SCR sharing\n                                                        &lt;br/&gt;\n                                                        &lt;br/&gt;\n                                                    &lt;/content&gt;</div>"
          }
        } ]
      }, {
        "title": "ReferralRequest",
        "entry": [ {
          "reference": "urn:uuid:f1b2a467-15a3-4163-80ed-779097727710"
        } ]
      } ]
    }
  }, {
    "fullUrl": "urn:uuid:afc919be-1964-4ac5-80c1-ca21ef827b3c",
    "resource": {
      "resourceType": "Consent",
      "id": "afc919be-1964-4ac5-80c1-ca21ef827b3c",
      "identifier": {
        "use": "usual",
        "value": "B172BCF7-DD1C-4508-B781-6BE68ABD1F79"
      },
      "status": "active",
      "patient": {
        "reference": "urn:uuid:1a8464d6-7a92-4383-a239-9f480be8dfcc"
      },
      "period": {
        "start": "2021-05-11T08:54:54+00:00",
        "end": "2021-05-11T08:58:52+00:00"
      },
      "consentingParty": [ {
        "reference": "urn:uuid:1a8464d6-7a92-4383-a239-9f480be8dfcc"
      } ],
      "action": [ {
        "coding": [ {
          "system": "http://snomed.info/sct",
          "code": "425691002",
          "display": "Consent given for electronic record sharing"
        } ],
        "text": "Consent given for electronic record sharing"
      } ],
      "organization": [ {
        "reference": "urn:uuid:d1869382-895c-44d7-b954-c31ffd4c04b0"
      } ],
      "policyRule": "http://hl7.org/fhir/ConsentPolicy/opt-out",
      "data": [ {
        "meaning": "related",
        "reference": {
          "reference": "urn:uuid:e61c9737-a645-44f8-b706-6100777f26e7"
        }
      } ]
    }
  }, {
    "fullUrl": "urn:uuid:74d6ae9f-e1f4-4399-9c84-30e626f5229f",
    "resource": {
      "resourceType": "Condition",
      "id": "74d6ae9f-e1f4-4399-9c84-30e626f5229f",
      "clinicalStatus": "active",
      "verificationStatus": "unknown",
      "subject": {
        "reference": "urn:uuid:1a8464d6-7a92-4383-a239-9f480be8dfcc"
      },
      "context": {
        "reference": "urn:uuid:e61c9737-a645-44f8-b706-6100777f26e7"
      }
    }
  }, {
    "fullUrl": "urn:uuid:6a5c501f-de38-497c-a2d0-5e917c6ba924",
    "resource": {
      "resourceType": "Observation",
      "id": "6a5c501f-de38-497c-a2d0-5e917c6ba924",
      "status": "final",
      "code": {
        "coding": [ {
          "system": "http://snomed.info/sct",
          "code": "33962009",
          "display": "Presenting complaint"
        } ]
      },
      "subject": {
        "reference": "urn:uuid:1a8464d6-7a92-4383-a239-9f480be8dfcc"
      },
      "context": {
        "reference": "urn:uuid:e61c9737-a645-44f8-b706-6100777f26e7"
      },
      "valueString": "<CLEO Ref: 2100310384> Test Call for Dx07.\n                                                        "
    }
  }, {
    "fullUrl": "urn:uuid:30640979-d402-445b-a758-6637d795190d",
    "resource": {
      "resourceType": "PractitionerRole",
      "id": "30640979-d402-445b-a758-6637d795190d",
      "practitioner": {
        "reference": "urn:uuid:a29dd740-9d0f-4f4e-8e08-602c3847fd0f"
      },
      "organization": {
        "reference": "urn:uuid:185a22ed-19de-4db2-84a1-3257b8226dae"
      },
      "code": [ {
        "coding": [ {
          "system": "2.16.840.1.113883.2.1.3.2.4.17.196",
          "code": "NR1690",
          "display": "Call Operator"
        } ]
      } ]
    }
  }, {
    "fullUrl": "urn:uuid:185a22ed-19de-4db2-84a1-3257b8226dae",
    "resource": {
      "resourceType": "Organization",
      "id": "185a22ed-19de-4db2-84a1-3257b8226dae",
      "identifier": [ {
        "value": "NTN08"
      } ],
      "name": "Norfolk and Wisbech 111"
    }
  }, {
    "fullUrl": "urn:uuid:1a099f6a-1ff2-45de-96df-751b64e0b428",
    "resource": {
      "resourceType": "RelatedPerson",
      "id": "1a099f6a-1ff2-45de-96df-751b64e0b428",
      "patient": {
        "reference": "urn:uuid:1a8464d6-7a92-4383-a239-9f480be8dfcc"
      },
      "relationship": {
        "coding": [ {
          "system": "http://hl7.org/fhir/v2/0131",
          "code": "C",
          "display": "Emergency Contact"
        } ]
      },
      "telecom": [ {
        "system": "phone",
        "value": "tel:01233123123"
      } ]
    }
  }, {
    "fullUrl": "urn:uuid:63112ef2-bebb-4e46-9df2-0a74fc7dd539",
    "resource": {
      "resourceType": "Device",
      "id": "63112ef2-bebb-4e46-9df2-0a74fc7dd539",
      "model": "111 Adaptor",
      "version": "1.0.3"
    }
  }, {
    "fullUrl": "urn:uuid:0e9d89aa-241d-48fe-bb1d-b37b38c97547",
    "resource": {
      "resourceType": "List",
      "id": "0e9d89aa-241d-48fe-bb1d-b37b38c97547",
      "status": "current",
      "mode": "working",
      "title": "111 Report List",
      "code": {
        "coding": [ {
          "system": "http://snomed.info/sct",
          "code": "225390008",
          "display": "Triage"
        } ]
      },
      "subject": {
        "reference": "urn:uuid:1a8464d6-7a92-4383-a239-9f480be8dfcc"
      },
      "encounter": {
        "reference": "urn:uuid:e61c9737-a645-44f8-b706-6100777f26e7"
      },
      "date": "2021-05-11T08:58:52+00:00",
      "source": {
        "reference": "urn:uuid:63112ef2-bebb-4e46-9df2-0a74fc7dd539"
      },
      "orderedBy": {
        "coding": [ {
          "system": "http://hl7.org/fhir/list-order",
          "code": "event-date",
          "display": "Sorted by Event Date"
        } ]
      },
      "entry": [ {
        "item": {
          "reference": "urn:uuid:185a22ed-19de-4db2-84a1-3257b8226dae"
        }
      }, {
        "item": {
          "reference": "urn:uuid:32948151-00bb-4b8b-bb11-946ccf58318d"
        }
      }, {
        "item": {
          "reference": "urn:uuid:74d6ae9f-e1f4-4399-9c84-30e626f5229f"
        }
      }, {
        "item": {
          "reference": "urn:uuid:d1869382-895c-44d7-b954-c31ffd4c04b0"
        }
      }, {
        "item": {
          "reference": "urn:uuid:6a5c501f-de38-497c-a2d0-5e917c6ba924"
        }
      }, {
        "item": {
          "reference": "urn:uuid:0a1060b4-b54c-480d-964d-c92d38dfa60b"
        }
      }, {
        "item": {
          "reference": "urn:uuid:597c05d0-ede8-41d5-b167-22a754f9250e"
        }
      }, {
        "item": {
          "reference": "urn:uuid:1a099f6a-1ff2-45de-96df-751b64e0b428"
        }
      }, {
        "item": {
          "reference": "urn:uuid:0f30a4ea-cbe7-4f28-9a7a-6d1adaa09502"
        }
      }, {
        "item": {
          "reference": "urn:uuid:a29dd740-9d0f-4f4e-8e08-602c3847fd0f"
        }
      }, {
        "item": {
          "reference": "urn:uuid:a62cff62-4cff-4c53-a91c-047a3c31b0f2"
        }
      }, {
        "item": {
          "reference": "urn:uuid:f1b2a467-15a3-4163-80ed-779097727710"
        }
      } ]
    }
  } ]
}