{
  "resourceType": "Bundle",
  "identifier": {
    "type": {
      "text": "ClinicalDocument VersionNumber"
    },
    "value": "1"
  },
  "type": "message",
  "entry": [ {
    "fullUrl": "urn:uuid:4A4DE551-F585-49BB-A1D3-12DCC764AF52",
    "resource": {
      "resourceType": "MessageHeader",
      "id": "4A4DE551-F585-49BB-A1D3-12DCC764AF52",
      "event": {
        "system": "https://fhir.nhs.uk/STU3/CodeSystem/EventType-1",
        "code": "referral-1",
        "display": "Referral"
      },
      "destination": [ {
        "endpoint": "urn:nhs-uk:addressing:ods:NVE06:DOSServiceID:1335970392"
      } ],
      "timestamp": "2021-05-11T08:58:52.000+00:00",
      "source": {
        "name": "NHS 111 Adaptor",
        "endpoint": "http://localhost:8080/report"
      },
      "reason": {
        "coding": [ {
          "system": "urn:nhs-itk:ns:201005:interaction",
          "code": "urn:nhs-itk:interaction:primaryOutofHourRecipientNHS111CDADocument-v2-0"
        } ]
      }
    }
  }, {
    "fullUrl": "urn:uuid:cd1e5391-0e91-4a36-93e9-00a86ea64cbd",
    "resource": {
      "resourceType": "Encounter",
      "id": "cd1e5391-0e91-4a36-93e9-00a86ea64cbd",
      "identifier": [ {
        "system": "2.16.840.1.113883.2.1.3.2.4.18.34",
        "value": "D21E3785-658E-4B35-A8B2-2E59906B8983"
      }, {
        "system": "2.16.840.1.113883.2.1.3.2.4.18.35",
        "value": "2100310384"
      } ],
      "status": "finished",
      "type": [ {
        "text": "111 Encounter Referral"
      } ],
      "subject": {
        "reference": "urn:uuid:3d4be193-fee3-4978-908d-fe7603547a4c"
      },
      "participant": [ {
        "type": [ {
          "coding": [ {
            "system": "http://hl7.org/fhir/ValueSet/encounter-participant-type",
            "code": "PPRF",
            "display": "Author"
          } ]
        } ],
        "individual": {
          "reference": "urn:uuid:6fa0f31a-bed9-4396-b2ee-35fcb28b3f28"
        }
      }, {
        "type": [ {
          "text": "Informant"
        } ],
        "individual": {
          "reference": "urn:uuid:83c14ab0-50cb-4174-9a15-5b02e3fd1354"
        }
      } ],
      "period": {
        "start": "2021-05-11T08:58:52+00:00"
      },
      "location": [ {
        "location": {
          "reference": "urn:uuid:19f4571d-e80e-4e42-8505-1da4320fa6e1"
        },
        "status": "active"
      }, {
        "location": {
          "reference": "urn:uuid:790b49d2-ad3c-4d2f-9210-323e1e85978c"
        },
        "status": "completed"
      } ],
      "serviceProvider": {
        "reference": "urn:uuid:dee6bced-3934-48e5-997f-98b4e3c2eada"
      }
    }
  }, {
    "fullUrl": "urn:uuid:dee6bced-3934-48e5-997f-98b4e3c2eada",
    "resource": {
      "resourceType": "Organization",
      "id": "dee6bced-3934-48e5-997f-98b4e3c2eada",
      "active": true,
      "type": [ {
        "text": "CST"
      } ],
      "name": "Norfolk and Wisbech 111"
    }
  }, {
    "fullUrl": "urn:uuid:6fa0f31a-bed9-4396-b2ee-35fcb28b3f28",
    "resource": {
      "resourceType": "Practitioner",
      "id": "6fa0f31a-bed9-4396-b2ee-35fcb28b3f28",
      "active": true,
      "name": [ {
        "text": "Ben Smythson"
      } ]
    }
  }, {
    "fullUrl": "urn:uuid:83c14ab0-50cb-4174-9a15-5b02e3fd1354",
    "resource": {
      "resourceType": "RelatedPerson",
      "id": "83c14ab0-50cb-4174-9a15-5b02e3fd1354",
      "active": true,
      "patient": {
        "reference": "urn:uuid:3d4be193-fee3-4978-908d-fe7603547a4c"
      },
      "relationship": {
        "coding": [ {
          "system": "2.16.840.1.113883.2.1.3.2.4.16.45",
          "code": "21",
          "display": "Self"
        }, {
          "system": "http://hl7.org/fhir/v2/0131",
          "code": "C",
          "display": "Emergency Contact"
        } ]
      },
      "name": [ {
        "text": "Test Call TEST CALL DX07"
      } ],
      "telecom": [ {
        "system": "phone",
        "value": "tel:01233123123"
      } ],
      "gender": "unknown"
    }
  }, {
    "fullUrl": "urn:uuid:19f4571d-e80e-4e42-8505-1da4320fa6e1",
    "resource": {
      "resourceType": "Location",
      "id": "19f4571d-e80e-4e42-8505-1da4320fa6e1",
      "managingOrganization": {
        "reference": "urn:uuid:507fc6db-ba18-436b-a3bd-fc9ff1b6deb8"
      }
    }
  }, {
    "fullUrl": "urn:uuid:507fc6db-ba18-436b-a3bd-fc9ff1b6deb8",
    "resource": {
      "resourceType": "Organization",
      "id": "507fc6db-ba18-436b-a3bd-fc9ff1b6deb8",
      "identifier": [ {
        "value": "Z10000"
      } ],
      "type": [ {
        "text": "GP Practice"
      } ],
      "name": "UNKNOWN"
    }
  }, {
    "fullUrl": "urn:uuid:790b49d2-ad3c-4d2f-9210-323e1e85978c",
    "resource": {
      "resourceType": "Location",
      "id": "790b49d2-ad3c-4d2f-9210-323e1e85978c",
      "address": {
        "type": "physical",
        "line": [ "313 VICTORIA ROAD", "LOWESTOFT" ],
        "postalCode": "NR33 9LS"
      }
    }
  }, {
    "fullUrl": "urn:uuid:3d4be193-fee3-4978-908d-fe7603547a4c",
    "resource": {
      "resourceType": "Patient",
      "id": "3d4be193-fee3-4978-908d-fe7603547a4c",
      "language": "en",
      "active": true,
      "name": [ {
        "use": "official",
        "family": "TEST CALL DX07",
        "given": [ "Test Call" ]
      } ],
      "telecom": [ {
        "system": "phone",
        "value": "tel:01233123123"
      } ],
      "gender": "male",
      "birthDate": "1996-03-25",
      "address": [ {
        "use": "home",
        "line": [ "313 VICTORIA ROAD", "LOWESTOFT" ],
        "postalCode": "NR33 9LS"
      }, {
        "type": "physical",
        "line": [ "313 VICTORIA ROAD", "LOWESTOFT" ],
        "postalCode": "NR33 9LS"
      } ],
      "generalPractitioner": [ {
        "reference": "urn:uuid:b8a9a6b5-d6c5-4688-ba86-bbc26ad12ce3"
      } ]
    }
  }, {
    "fullUrl": "urn:uuid:b8a9a6b5-d6c5-4688-ba86-bbc26ad12ce3",
    "resource": {
      "resourceType": "Organization",
      "id": "b8a9a6b5-d6c5-4688-ba86-bbc26ad12ce3",
      "identifier": [ {
        "value": "Z10000"
      } ],
      "type": [ {
        "text": "GP Practice"
      } ],
      "name": "UNKNOWN"
    }
  }, {
    "fullUrl": "urn:uuid:7a6fd16a-ffe0-4626-9fe6-cc55becdcb7e",
    "resource": {
      "resourceType": "HealthcareService",
      "id": "7a6fd16a-ffe0-4626-9fe6-cc55becdcb7e",
      "active": true,
      "providedBy": {
        "reference": "urn:uuid:ccca99bd-3176-4a73-bcc6-9c1988a29768"
      },
      "location": [ {
        "reference": "urn:uuid:e0536478-200a-4bfc-919a-8e152b62f0ee"
      } ],
      "name": "Out of Hours GP Service (Waveney) - Kirkley Mill Health Centre, Lowestoft"
    }
  }, {
    "fullUrl": "urn:uuid:e0536478-200a-4bfc-919a-8e152b62f0ee",
    "resource": {
      "resourceType": "Location",
      "id": "e0536478-200a-4bfc-919a-8e152b62f0ee",
      "managingOrganization": {
        "reference": "urn:uuid:ccca99bd-3176-4a73-bcc6-9c1988a29768"
      }
    }
  }, {
    "fullUrl": "urn:uuid:ccca99bd-3176-4a73-bcc6-9c1988a29768",
    "resource": {
      "resourceType": "Organization",
      "id": "ccca99bd-3176-4a73-bcc6-9c1988a29768",
      "identifier": [ {
        "value": "NVE06"
      } ],
      "type": [ {
        "coding": [ {
          "code": "PRCP",
          "display": "Out of Hours GP Service (Waveney) - Kirkley Mill Health Centre, Lowestoft"
        } ]
      } ],
      "name": "Out of Hours GP Service (Waveney) - Kirkley Mill Health Centre, Lowestoft"
    }
  }, {
    "fullUrl": "urn:uuid:0039202f-b2a9-4656-af61-f49e863b4239",
    "resource": {
      "resourceType": "ReferralRequest",
      "id": "0039202f-b2a9-4656-af61-f49e863b4239",
      "status": "active",
      "intent": "plan",
      "priority": "routine",
      "subject": {
        "reference": "urn:uuid:3d4be193-fee3-4978-908d-fe7603547a4c"
      },
      "context": {
        "reference": "urn:uuid:cd1e5391-0e91-4a36-93e9-00a86ea64cbd"
      },
      "occurrencePeriod": {
        "start": "2022-04-07T07:52:15+00:00",
        "end": "2022-04-07T08:52:15+00:00"
      },
      "authoredOn": "2021-05-11T08:58:52+00:00",
      "requester": {
        "agent": {
          "reference": "urn:uuid:db4e75d6-d4b5-456f-bf4b-8a2e0f197b0f"
        },
        "onBehalfOf": {
          "reference": "urn:uuid:dee6bced-3934-48e5-997f-98b4e3c2eada"
        }
      },
      "recipient": [ {
        "reference": "urn:uuid:2f851f5a-e4ab-4538-a383-28496eeb9cab"
      }, {
        "reference": "urn:uuid:7a6fd16a-ffe0-4626-9fe6-cc55becdcb7e"
      } ],
      "reasonReference": [ {
        "reference": "urn:uuid:d5e18a39-94d0-4773-b219-f55b98b02bf7"
      } ],
      "supportingInfo": [ {
        "reference": "urn:uuid:a8e3f890-7ffd-4942-bd7d-497a5f1b76b8"
      } ]
    }
  }, {
    "fullUrl": "urn:uuid:a8e3f890-7ffd-4942-bd7d-497a5f1b76b8",
    "resource": {
      "resourceType": "ProcedureRequest",
      "id": "a8e3f890-7ffd-4942-bd7d-497a5f1b76b8",
      "status": "active",
      "intent": "plan",
      "priority": "routine",
      "doNotPerform": false,
      "code": {
        "coding": [ {
          "system": "2.16.840.1.113883.2.1.3.2.4.17.325",
          "code": "Dx07",
          "display": "To contact a local service within 12 hours"
        } ]
      },
      "subject": {
        "reference": "urn:uuid:3d4be193-fee3-4978-908d-fe7603547a4c"
      },
      "occurrencePeriod": {
        "start": "2022-04-07T07:52:15+00:00",
        "end": "2022-04-07T08:52:15+00:00"
      },
      "reasonReference": [ {
        "reference": "urn:uuid:d5e18a39-94d0-4773-b219-f55b98b02bf7"
      } ]
    }
  }, {
    "fullUrl": "urn:uuid:2f851f5a-e4ab-4538-a383-28496eeb9cab",
    "resource": {
      "resourceType": "Practitioner",
      "id": "2f851f5a-e4ab-4538-a383-28496eeb9cab",
      "active": true,
      "telecom": [ {
        "system": "phone",
        "value": "tel:01233505450"
      } ],
      "address": [ {
        "type": "physical",
        "line": [ "Kingston House", "The Long Barrow", "Orbital Park", "Ashford", "Kent" ],
        "postalCode": "TN24 0GP"
      } ]
    }
  }, {
    "fullUrl": "urn:uuid:93392018-886c-4a32-a18a-0d1d76b0a7cc",
    "resource": {
      "resourceType": "Composition",
      "id": "93392018-886c-4a32-a18a-0d1d76b0a7cc",
      "identifier": {
        "use": "usual",
        "value": "B172BCF7-DD1C-4508-B781-6BE68ABD1F79"
      },
      "status": "final",
      "type": {
        "coding": [ {
          "system": "http://snomed.info/sct",
          "code": "371531000",
          "display": "Report of clinical encounter (record artifact)"
        } ]
      },
      "subject": {
        "reference": "urn:uuid:3d4be193-fee3-4978-908d-fe7603547a4c"
      },
      "encounter": {
        "reference": "urn:uuid:cd1e5391-0e91-4a36-93e9-00a86ea64cbd"
      },
      "date": "2022-04-07T07:52:15+00:00",
      "author": [ {
        "reference": "urn:uuid:6fa0f31a-bed9-4396-b2ee-35fcb28b3f28"
      } ],
      "title": "111 Report",
      "confidentiality": "R",
      "section": [ {
        "section": [ {
          "title": "Patient's Reported Condition",
          "text": {
            "status": "generated",
            "div": "<div xmlns=\"http://www.w3.org/1999/xhtml\">&lt;content&gt;&amp;lt;CLEO Ref: 2100310384&amp;gt; Test Call for Dx07.\n                                                        &lt;br/&gt;\n                                                    &lt;/content&gt;</div>"
          }
        }, {
          "title": "Pathways Disposition",
          "text": {
            "status": "generated",
            "div": "<div xmlns=\"http://www.w3.org/1999/xhtml\">&lt;content&gt;The individual needs to contact a local service within 12 hours. (Dx07)&lt;/content&gt;\n                                                    &lt;br/&gt;\n                                                    &lt;br/&gt;\n                                                    &lt;content&gt;Selected Service: 1335970392, Out of Hours GP Service (Waveney) - Kirkley Mill Health Centre, Lowestoft, 111&lt;/content&gt;\n                                                    &lt;br/&gt;</div>"
          }
        }, {
          "title": "Consultation Summary",
          "text": {
            "status": "generated",
            "div": "<div xmlns=\"http://www.w3.org/1999/xhtml\">&lt;content&gt;\n                                                        &lt;content&gt;Excessive thirst in last 4 weeks&lt;/content&gt;\n                                                        &lt;br/&gt;\n                                                        &lt;content&gt;Warm to touch&lt;/content&gt;\n                                                        &lt;br/&gt;\n                                                        &lt;content&gt;Illness - Test&lt;/content&gt;\n                                                        &lt;br/&gt;\n                                                    &lt;/content&gt;</div>"
          }
        }, {
          "title": "Pathways Assessment",
          "text": {
            "status": "generated",
            "div": "<div xmlns=\"http://www.w3.org/1999/xhtml\">&lt;content&gt;An injury or health problem was the reason for the contact.&lt;/content&gt;\n                                                    &lt;br/&gt;\n                                                    &lt;content&gt;Heavy bleeding had not occurred in the previous 2 hours.&lt;/content&gt;\n                                                    &lt;br/&gt;\n                                                    &lt;content&gt;An illness or health problem was the main problem. - Test&lt;/content&gt;\n                                                    &lt;br/&gt;\n                                                    &lt;content&gt;The individual was not fighting for breath.&lt;/content&gt;\n                                                    &lt;br/&gt;\n                                                    &lt;content&gt;The main reason for the assessment was not an allergic reaction, heart attack, chest/upper back pain, probable stroke, recent fit/seizure or suicide attempt.&lt;/content&gt;\n                                                    &lt;br/&gt;\n                                                    &lt;content&gt;The main reason for contact was not new confusion, declared diabetic hypo/hyperglycaemia, or ICD shock.&lt;/content&gt;\n                                                    &lt;br/&gt;\n                                                    &lt;content&gt;The skin on the torso felt normal, warm or hot.&lt;/content&gt;\n                                                    &lt;br/&gt;\n                                                    &lt;content&gt;There was no vomiting, diarrhoea, rectal bleeding, groin pain or groin swelling.&lt;/content&gt;\n                                                    &lt;br/&gt;\n                                                    &lt;content&gt;There was no new genital pain or swelling.&lt;/content&gt;\n                                                    &lt;br/&gt;\n                                                    &lt;content&gt;The individual was able to carry out most or all normal activities.&lt;/content&gt;\n                                                    &lt;br/&gt;\n                                                    &lt;content&gt;There was no crushing or severe aching chest, upper back or upper abdominal pain, or pain going to the arm, neck, jaw or shoulder.&lt;/content&gt;\n                                                    &lt;br/&gt;\n                                                    &lt;content&gt;The individual had not ingested a harmful or toxic substance.&lt;/content&gt;\n                                                    &lt;br/&gt;\n                                                    &lt;content&gt;There had been no black and tarry or red/maroon bowel motions.&lt;/content&gt;\n                                                    &lt;br/&gt;\n                                                    &lt;content&gt;There was no new or worsening confusion.&lt;/content&gt;\n                                                    &lt;br/&gt;\n                                                    &lt;content&gt;Breathing harder or faster when doing nothing was not described.&lt;/content&gt;\n                                                    &lt;br/&gt;\n                                                    &lt;content&gt;There was no new shoulder tip pain or pain in the lower right abdomen.&lt;/content&gt;\n                                                    &lt;br/&gt;\n                                                    &lt;content&gt;The individual did not use anticoagulant medication or have a bleeding/clotting disorder.&lt;/content&gt;\n                                                    &lt;br/&gt;\n                                                    &lt;content&gt;The individual had not been in constant pain for 4 hours or more.&lt;/content&gt;\n                                                    &lt;br/&gt;\n                                                    &lt;content&gt;The individual was not jaundiced.&lt;/content&gt;\n                                                    &lt;br/&gt;\n                                                    &lt;content&gt;The individual had experienced extreme thirst during the previous 4 weeks.&lt;/content&gt;\n                                                    &lt;br/&gt;</div>"
          }
        }, {
          "title": "Advice Given",
          "text": {
            "status": "generated",
            "div": "<div xmlns=\"http://www.w3.org/1999/xhtml\">&lt;content&gt;Unless advised not to, paracetamol may be used to relieve pain or fever. Follow the instructions in the pack. If in doubt ask a pharmacist.&lt;/content&gt;\n                                                    &lt;br/&gt;\n                                                    &lt;content&gt;Don't use ibuprofen or any other anti-inflammatory medication until you have spoken to a healthcare professional.&lt;/content&gt;\n                                                    &lt;br/&gt;\n                                                    &lt;content&gt;If there are any new symptoms, or if the condition gets worse, changes or you have any other concerns, call us back.&lt;/content&gt;\n                                                    &lt;br/&gt;\n                                                    &lt;content&gt;Remember to take a list of any current medications if you go to the out of hours surgery.&lt;/content&gt;\n                                                    &lt;br/&gt;</div>"
          }
        }, {
          "title": "SCR Consent",
          "text": {
            "status": "generated",
            "div": "<div xmlns=\"http://www.w3.org/1999/xhtml\">&lt;content&gt;Consent given for SCR sharing\n                                                        &lt;br/&gt;\n                                                        &lt;br/&gt;\n                                                    &lt;/content&gt;</div>"
          }
        } ]
      }, {
        "title": "ReferralRequest",
        "entry": [ {
          "reference": "urn:uuid:0039202f-b2a9-4656-af61-f49e863b4239"
        } ]
      } ]
    }
  }, {
    "fullUrl": "urn:uuid:8736ab2b-c510-4297-9c96-38148b5143fc",
    "resource": {
      "resourceType": "Consent",
      "id": "8736ab2b-c510-4297-9c96-38148b5143fc",
      "identifier": {
        "use": "usual",
        "value": "B172BCF7-DD1C-4508-B781-6BE68ABD1F79"
      },
      "status": "active",
      "patient": {
        "reference": "urn:uuid:3d4be193-fee3-4978-908d-fe7603547a4c"
      },
      "period": {
        "start": "2021-05-11T08:58:52+00:00"
      },
      "consentingParty": [ {
        "reference": "urn:uuid:3d4be193-fee3-4978-908d-fe7603547a4c"
      } ],
      "action": [ {
        "coding": [ {
          "system": "http://snomed.info/sct",
          "code": "425691002",
          "display": "Consent given for electronic record sharing"
        } ],
        "text": "Consent given for electronic record sharing"
      } ],
      "organization": [ {
        "reference": "urn:uuid:dee6bced-3934-48e5-997f-98b4e3c2eada"
      } ],
      "policyRule": "http://hl7.org/fhir/ConsentPolicy/opt-out",
      "data": [ {
        "meaning": "related",
        "reference": {
          "reference": "urn:uuid:cd1e5391-0e91-4a36-93e9-00a86ea64cbd"
        }
      } ]
    }
  }, {
    "fullUrl": "urn:uuid:d5e18a39-94d0-4773-b219-f55b98b02bf7",
    "resource": {
      "resourceType": "Condition",
      "id": "d5e18a39-94d0-4773-b219-f55b98b02bf7",
      "clinicalStatus": "active",
      "verificationStatus": "unknown",
      "subject": {
        "reference": "urn:uuid:3d4be193-fee3-4978-908d-fe7603547a4c"
      },
      "context": {
        "reference": "urn:uuid:cd1e5391-0e91-4a36-93e9-00a86ea64cbd"
      }
    }
  }, {
    "fullUrl": "urn:uuid:e63e3769-23ad-489a-8230-1ca43d2a0812",
    "resource": {
      "resourceType": "Observation",
      "id": "e63e3769-23ad-489a-8230-1ca43d2a0812",
      "status": "final",
      "code": {
        "coding": [ {
          "system": "http://snomed.info/sct",
          "code": "33962009",
          "display": "Presenting complaint"
        } ]
      },
      "subject": {
        "reference": "urn:uuid:3d4be193-fee3-4978-908d-fe7603547a4c"
      },
      "context": {
        "reference": "urn:uuid:cd1e5391-0e91-4a36-93e9-00a86ea64cbd"
      },
      "valueString": "<CLEO Ref: 2100310384> Test Call for Dx07.\n                                                        "
    }
  }, {
    "fullUrl": "urn:uuid:5bb5dc3a-3421-447c-a451-dccc479ae11d",
    "resource": {
      "resourceType": "PractitionerRole",
      "id": "5bb5dc3a-3421-447c-a451-dccc479ae11d",
      "practitioner": {
        "reference": "urn:uuid:6fa0f31a-bed9-4396-b2ee-35fcb28b3f28"
      },
      "organization": {
        "reference": "urn:uuid:1e1466d4-9c4e-476a-8e9f-221869ee3c29"
      },
      "code": [ {
        "coding": [ {
          "system": "2.16.840.1.113883.2.1.3.2.4.17.196",
          "code": "NR1690",
          "display": "Call Operator"
        } ]
      } ]
    }
  }, {
    "fullUrl": "urn:uuid:1e1466d4-9c4e-476a-8e9f-221869ee3c29",
    "resource": {
      "resourceType": "Organization",
      "id": "1e1466d4-9c4e-476a-8e9f-221869ee3c29",
      "identifier": [ {
        "value": "NTN08"
      } ],
      "name": "Norfolk and Wisbech 111"
    }
  }, {
    "fullUrl": "urn:uuid:7ca8f8b9-b225-4c2f-8d10-91c18af11306",
    "resource": {
      "resourceType": "RelatedPerson",
      "id": "7ca8f8b9-b225-4c2f-8d10-91c18af11306",
      "patient": {
        "reference": "urn:uuid:3d4be193-fee3-4978-908d-fe7603547a4c"
      },
      "relationship": {
        "coding": [ {
          "system": "http://hl7.org/fhir/v2/0131",
          "code": "C",
          "display": "Emergency Contact"
        } ]
      },
      "telecom": [ {
        "system": "phone",
        "value": "tel:01233123123"
      } ]
    }
  }, {
    "fullUrl": "urn:uuid:db4e75d6-d4b5-456f-bf4b-8a2e0f197b0f",
    "resource": {
      "resourceType": "Device",
      "id": "db4e75d6-d4b5-456f-bf4b-8a2e0f197b0f",
      "model": "111 Adaptor",
      "version": "1.0.1"
    }
  }, {
    "fullUrl": "urn:uuid:13d98112-15f9-4af8-b4be-8c0e4ea4d02b",
    "resource": {
      "resourceType": "List",
      "id": "13d98112-15f9-4af8-b4be-8c0e4ea4d02b",
      "status": "current",
      "mode": "working",
      "title": "111 Report List",
      "code": {
        "coding": [ {
          "system": "http://snomed.info/sct",
          "code": "225390008",
          "display": "Triage"
        } ]
      },
      "subject": {
        "reference": "urn:uuid:3d4be193-fee3-4978-908d-fe7603547a4c"
      },
      "encounter": {
        "reference": "urn:uuid:cd1e5391-0e91-4a36-93e9-00a86ea64cbd"
      },
      "date": "2022-04-07T07:52:15+00:00",
      "source": {
        "reference": "urn:uuid:db4e75d6-d4b5-456f-bf4b-8a2e0f197b0f"
      },
      "orderedBy": {
        "coding": [ {
          "system": "http://hl7.org/fhir/list-order",
          "code": "event-date",
          "display": "Sorted by Event Date"
        } ]
      },
      "entry": [ {
        "item": {
          "reference": "urn:uuid:2f851f5a-e4ab-4538-a383-28496eeb9cab"
        }
      }, {
        "item": {
          "reference": "urn:uuid:e63e3769-23ad-489a-8230-1ca43d2a0812"
        }
      }, {
        "item": {
          "reference": "urn:uuid:d5e18a39-94d0-4773-b219-f55b98b02bf7"
        }
      }, {
        "item": {
          "reference": "urn:uuid:b8a9a6b5-d6c5-4688-ba86-bbc26ad12ce3"
        }
      }, {
        "item": {
          "reference": "urn:uuid:7ca8f8b9-b225-4c2f-8d10-91c18af11306"
        }
      }, {
        "item": {
          "reference": "urn:uuid:ccca99bd-3176-4a73-bcc6-9c1988a29768"
        }
      }, {
        "item": {
          "reference": "urn:uuid:dee6bced-3934-48e5-997f-98b4e3c2eada"
        }
      }, {
        "item": {
          "reference": "urn:uuid:507fc6db-ba18-436b-a3bd-fc9ff1b6deb8"
        }
      }, {
        "item": {
          "reference": "urn:uuid:83c14ab0-50cb-4174-9a15-5b02e3fd1354"
        }
      }, {
        "item": {
          "reference": "urn:uuid:1e1466d4-9c4e-476a-8e9f-221869ee3c29"
        }
      }, {
        "item": {
          "reference": "urn:uuid:6fa0f31a-bed9-4396-b2ee-35fcb28b3f28"
        }
      }, {
        "item": {
          "reference": "urn:uuid:0039202f-b2a9-4656-af61-f49e863b4239"
        }
      } ]
    }
  } ]
}