{
  "resourceType": "Bundle",
  "identifier": {
    "type": {
      "text": "ClinicalDocument VersionNumber"
    },
    "value": "1"
  },
  "type": "message",
  "entry": [ {
    "fullUrl": "urn:uuid:4A4DE551-F585-49BB-A1D3-12DCC764AF52",
    "resource": {
      "resourceType": "MessageHeader",
      "id": "4A4DE551-F585-49BB-A1D3-12DCC764AF52",
      "event": {
        "system": "https://fhir.nhs.uk/STU3/CodeSystem/EventType-1",
        "code": "referral-1",
        "display": "Referral"
      },
      "destination": [ {
        "endpoint": "urn:nhs-uk:addressing:ods:NVE06:DOSServiceID:1335970392"
      } ],
      "timestamp": "2021-05-11T08:58:52.000+00:00",
      "source": {
        "name": "NHS 111 Adaptor",
        "endpoint": "http://localhost:8080/report"
      },
      "reason": {
        "coding": [ {
          "system": "urn:nhs-itk:ns:201005:interaction",
          "code": "urn:nhs-itk:interaction:primaryOutofHourRecipientNHS111CDADocument-v2-0"
        } ]
      }
    }
  }, {
    "fullUrl": "urn:uuid:e59bff45-75c1-4382-925a-de962d98c4c1",
    "resource": {
      "resourceType": "Encounter",
      "id": "e59bff45-75c1-4382-925a-de962d98c4c1",
      "identifier": [ {
        "system": "2.16.840.1.113883.2.1.3.2.4.18.34",
        "value": "D21E3785-658E-4B35-A8B2-2E59906B8983"
      }, {
        "system": "2.16.840.1.113883.2.1.3.2.4.18.35",
        "value": "2100310384"
      } ],
      "status": "finished",
      "type": [ {
        "text": "111 Encounter Referral"
      } ],
      "subject": {
        "reference": "urn:uuid:38e0e808-c95c-4261-aa4a-8d48dd0e07c7"
      },
      "participant": [ {
        "type": [ {
          "coding": [ {
            "system": "http://hl7.org/fhir/ValueSet/encounter-participant-type",
            "code": "PPRF",
            "display": "Author"
          } ]
        } ],
        "individual": {
          "reference": "urn:uuid:4e575779-072b-462d-852e-fa8b7814fd99"
        }
      }, {
        "type": [ {
          "text": "Informant"
        } ],
        "individual": {
          "reference": "urn:uuid:ce7be81d-edf3-4b18-ad85-08e48c90347b"
        }
      } ],
      "period": {
        "start": "2021-05-11T08:58:52+00:00"
      },
      "location": [ {
        "location": {
          "reference": "urn:uuid:dd57247e-0aa8-4f61-a25d-4349ec914586"
        },
        "status": "active"
      }, {
        "location": {
          "reference": "urn:uuid:e2e01fc0-e07e-4c93-8868-46b09ff8099d"
        },
        "status": "completed"
      } ],
      "serviceProvider": {
        "reference": "urn:uuid:03e390d7-b495-45f7-84bd-3e9993d8e498"
      }
    }
  }, {
    "fullUrl": "urn:uuid:03e390d7-b495-45f7-84bd-3e9993d8e498",
    "resource": {
      "resourceType": "Organization",
      "id": "03e390d7-b495-45f7-84bd-3e9993d8e498",
      "active": true,
      "type": [ {
        "text": "CST"
      } ],
      "name": "Norfolk and Wisbech 111"
    }
  }, {
    "fullUrl": "urn:uuid:4e575779-072b-462d-852e-fa8b7814fd99",
    "resource": {
      "resourceType": "Practitioner",
      "id": "4e575779-072b-462d-852e-fa8b7814fd99",
      "active": true,
      "name": [ {
        "text": "Ben Smythson"
      } ]
    }
  }, {
    "fullUrl": "urn:uuid:ce7be81d-edf3-4b18-ad85-08e48c90347b",
    "resource": {
      "resourceType": "RelatedPerson",
      "id": "ce7be81d-edf3-4b18-ad85-08e48c90347b",
      "active": true,
      "patient": {
        "reference": "urn:uuid:38e0e808-c95c-4261-aa4a-8d48dd0e07c7"
      },
      "relationship": {
        "coding": [ {
          "system": "2.16.840.1.113883.2.1.3.2.4.16.45",
          "code": "21",
          "display": "Self"
        }, {
          "system": "http://hl7.org/fhir/v2/0131",
          "code": "C",
          "display": "Emergency Contact"
        } ]
      },
      "name": [ {
        "text": "Test Call TEST CALL DX07"
      } ],
      "telecom": [ {
        "system": "phone",
        "value": "tel:01233123123"
      } ],
      "gender": "unknown"
    }
  }, {
    "fullUrl": "urn:uuid:dd57247e-0aa8-4f61-a25d-4349ec914586",
    "resource": {
      "resourceType": "Location",
      "id": "dd57247e-0aa8-4f61-a25d-4349ec914586",
      "managingOrganization": {
        "reference": "urn:uuid:2d44753a-da3b-4c07-91c8-b3b0e4c69069"
      }
    }
  }, {
    "fullUrl": "urn:uuid:2d44753a-da3b-4c07-91c8-b3b0e4c69069",
    "resource": {
      "resourceType": "Organization",
      "id": "2d44753a-da3b-4c07-91c8-b3b0e4c69069",
      "identifier": [ {
        "value": "Z10000"
      } ],
      "type": [ {
        "text": "GP Practice"
      } ],
      "name": "UNKNOWN"
    }
  }, {
    "fullUrl": "urn:uuid:e2e01fc0-e07e-4c93-8868-46b09ff8099d",
    "resource": {
      "resourceType": "Location",
      "id": "e2e01fc0-e07e-4c93-8868-46b09ff8099d",
      "address": {
        "type": "physical",
        "line": [ "313 VICTORIA ROAD", "LOWESTOFT" ],
        "postalCode": "NR33 9LS"
      }
    }
  }, {
    "fullUrl": "urn:uuid:38e0e808-c95c-4261-aa4a-8d48dd0e07c7",
    "resource": {
      "resourceType": "Patient",
      "id": "38e0e808-c95c-4261-aa4a-8d48dd0e07c7",
      "language": "en",
      "active": true,
      "name": [ {
        "use": "official",
        "family": "TEST CALL DX07",
        "given": [ "Test Call" ]
      } ],
      "telecom": [ {
        "system": "phone",
        "value": "tel:01233123123"
      } ],
      "gender": "male",
      "birthDate": "1996-03-25",
      "address": [ {
        "use": "home",
        "line": [ "313 VICTORIA ROAD", "LOWESTOFT" ],
        "postalCode": "NR33 9LS"
      }, {
        "type": "physical",
        "line": [ "313 VICTORIA ROAD", "LOWESTOFT" ],
        "postalCode": "NR33 9LS"
      } ],
      "generalPractitioner": [ {
        "reference": "urn:uuid:ad8fec94-47c4-4495-a539-910be137fc18"
      } ]
    }
  }, {
    "fullUrl": "urn:uuid:ad8fec94-47c4-4495-a539-910be137fc18",
    "resource": {
      "resourceType": "Organization",
      "id": "ad8fec94-47c4-4495-a539-910be137fc18",
      "identifier": [ {
        "value": "Z10000"
      } ],
      "type": [ {
        "text": "GP Practice"
      } ],
      "name": "UNKNOWN"
    }
  }, {
    "fullUrl": "urn:uuid:6bcff7ea-626f-4878-8a5f-01d3cb166fff",
    "resource": {
      "resourceType": "HealthcareService",
      "id": "6bcff7ea-626f-4878-8a5f-01d3cb166fff",
      "active": true,
      "providedBy": {
        "reference": "urn:uuid:0cc58306-e03f-426e-b8e8-d87a45f78945"
      },
      "location": [ {
        "reference": "urn:uuid:09c0cf0c-999b-4c27-b432-3b74449f0c09"
      } ],
      "name": "Out of Hours GP Service (Waveney) - Kirkley Mill Health Centre, Lowestoft"
    }
  }, {
    "fullUrl": "urn:uuid:09c0cf0c-999b-4c27-b432-3b74449f0c09",
    "resource": {
      "resourceType": "Location",
      "id": "09c0cf0c-999b-4c27-b432-3b74449f0c09",
      "managingOrganization": {
        "reference": "urn:uuid:0cc58306-e03f-426e-b8e8-d87a45f78945"
      }
    }
  }, {
    "fullUrl": "urn:uuid:0cc58306-e03f-426e-b8e8-d87a45f78945",
    "resource": {
      "resourceType": "Organization",
      "id": "0cc58306-e03f-426e-b8e8-d87a45f78945",
      "identifier": [ {
        "value": "NVE06"
      } ],
      "type": [ {
        "coding": [ {
          "code": "PRCP",
          "display": "Out of Hours GP Service (Waveney) - Kirkley Mill Health Centre, Lowestoft"
        } ]
      } ],
      "name": "Out of Hours GP Service (Waveney) - Kirkley Mill Health Centre, Lowestoft"
    }
  }, {
    "fullUrl": "urn:uuid:cae5f167-5334-4d27-ba45-9cb04d908036",
    "resource": {
      "resourceType": "ReferralRequest",
      "id": "cae5f167-5334-4d27-ba45-9cb04d908036",
      "status": "active",
      "intent": "plan",
      "priority": "routine",
      "subject": {
        "reference": "urn:uuid:38e0e808-c95c-4261-aa4a-8d48dd0e07c7"
      },
      "context": {
        "reference": "urn:uuid:e59bff45-75c1-4382-925a-de962d98c4c1"
      },
      "occurrencePeriod": {
        "start": "2022-05-05T07:31:37+00:00",
        "end": "2022-05-05T08:31:37+00:00"
      },
      "authoredOn": "2021-05-11T08:58:52+00:00",
      "requester": {
        "agent": {
          "reference": "urn:uuid:eac78bc5-4b67-44f5-bdaa-6ee239a62369"
        },
        "onBehalfOf": {
          "reference": "urn:uuid:03e390d7-b495-45f7-84bd-3e9993d8e498"
        }
      },
      "recipient": [ {
        "reference": "urn:uuid:2ca269b6-b41d-4ad6-9d21-0b8629a66887"
      }, {
        "reference": "urn:uuid:6bcff7ea-626f-4878-8a5f-01d3cb166fff"
      } ],
      "reasonReference": [ {
        "reference": "urn:uuid:35acda74-b183-47a7-91b4-ee621d1cf0bf"
      } ],
      "supportingInfo": [ {
        "reference": "urn:uuid:9ca23600-3f34-4fe8-8aeb-3d33f1b6b5cd"
      } ]
    }
  }, {
    "fullUrl": "urn:uuid:9ca23600-3f34-4fe8-8aeb-3d33f1b6b5cd",
    "resource": {
      "resourceType": "ProcedureRequest",
      "id": "9ca23600-3f34-4fe8-8aeb-3d33f1b6b5cd",
      "status": "active",
      "intent": "plan",
      "priority": "routine",
      "doNotPerform": false,
      "code": {
        "coding": [ {
          "system": "2.16.840.1.113883.2.1.3.2.4.17.325",
          "code": "Dx07",
          "display": "To contact a local service within 12 hours"
        } ]
      },
      "subject": {
        "reference": "urn:uuid:38e0e808-c95c-4261-aa4a-8d48dd0e07c7"
      },
      "occurrencePeriod": {
        "start": "2022-05-05T07:31:37+00:00",
        "end": "2022-05-05T08:31:37+00:00"
      },
      "reasonReference": [ {
        "reference": "urn:uuid:35acda74-b183-47a7-91b4-ee621d1cf0bf"
      } ]
    }
  }, {
    "fullUrl": "urn:uuid:2ca269b6-b41d-4ad6-9d21-0b8629a66887",
    "resource": {
      "resourceType": "Practitioner",
      "id": "2ca269b6-b41d-4ad6-9d21-0b8629a66887",
      "active": true,
      "telecom": [ {
        "system": "phone",
        "value": "tel:01233505450"
      } ],
      "address": [ {
        "type": "physical",
        "line": [ "Kingston House", "The Long Barrow", "Orbital Park", "Ashford", "Kent" ],
        "postalCode": "TN24 0GP"
      } ]
    }
  }, {
    "fullUrl": "urn:uuid:82c1147d-261e-42f9-b0e0-665ea6228e90",
    "resource": {
      "resourceType": "Composition",
      "id": "82c1147d-261e-42f9-b0e0-665ea6228e90",
      "identifier": {
        "use": "usual",
        "value": "B172BCF7-DD1C-4508-B781-6BE68ABD1F79"
      },
      "status": "final",
      "type": {
        "coding": [ {
          "system": "http://snomed.info/sct",
          "code": "371531000",
          "display": "Report of clinical encounter (record artifact)"
        } ]
      },
      "subject": {
        "reference": "urn:uuid:38e0e808-c95c-4261-aa4a-8d48dd0e07c7"
      },
      "encounter": {
        "reference": "urn:uuid:e59bff45-75c1-4382-925a-de962d98c4c1"
      },
      "date": "2021-05-11T08:58:52+00:00",
      "author": [ {
        "reference": "urn:uuid:4e575779-072b-462d-852e-fa8b7814fd99"
      } ],
      "title": "111 Report",
      "confidentiality": "R",
      "section": [ {
        "section": [ {
          "title": "Patient's Reported Condition",
          "text": {
            "status": "generated",
            "div": "<div xmlns=\"http://www.w3.org/1999/xhtml\">&lt;content&gt;&amp;lt;CLEO Ref: 2100310384&amp;gt; Test Call for Dx07.\n                                                        &lt;br/&gt;\n                                                    &lt;/content&gt;</div>"
          }
        }, {
          "title": "Pathways Disposition",
          "text": {
            "status": "generated",
            "div": "<div xmlns=\"http://www.w3.org/1999/xhtml\">&lt;content&gt;The individual needs to contact a local service within 12 hours. (Dx07)&lt;/content&gt;\n                                                    &lt;br/&gt;\n                                                    &lt;br/&gt;\n                                                    &lt;content&gt;Selected Service: 1335970392, Out of Hours GP Service (Waveney) - Kirkley Mill Health Centre, Lowestoft, 111&lt;/content&gt;\n                                                    &lt;br/&gt;</div>"
          }
        }, {
          "title": "Consultation Summary",
          "text": {
            "status": "generated",
            "div": "<div xmlns=\"http://www.w3.org/1999/xhtml\">&lt;content&gt;\n                                                        &lt;content&gt;Excessive thirst in last 4 weeks&lt;/content&gt;\n                                                        &lt;br/&gt;\n                                                        &lt;content&gt;Warm to touch&lt;/content&gt;\n                                                        &lt;br/&gt;\n                                                        &lt;content&gt;Illness - Test&lt;/content&gt;\n                                                        &lt;br/&gt;\n                                                    &lt;/content&gt;</div>"
          }
        }, {
          "title": "Pathways Assessment",
          "text": {
            "status": "generated",
            "div": "<div xmlns=\"http://www.w3.org/1999/xhtml\">&lt;content&gt;An injury or health problem was the reason for the contact.&lt;/content&gt;\n                                                    &lt;br/&gt;\n                                                    &lt;content&gt;Heavy bleeding had not occurred in the previous 2 hours.&lt;/content&gt;\n                                                    &lt;br/&gt;\n                                                    &lt;content&gt;An illness or health problem was the main problem. - Test&lt;/content&gt;\n                                                    &lt;br/&gt;\n                                                    &lt;content&gt;The individual was not fighting for breath.&lt;/content&gt;\n                                                    &lt;br/&gt;\n                                                    &lt;content&gt;The main reason for the assessment was not an allergic reaction, heart attack, chest/upper back pain, probable stroke, recent fit/seizure or suicide attempt.&lt;/content&gt;\n                                                    &lt;br/&gt;\n                                                    &lt;content&gt;The main reason for contact was not new confusion, declared diabetic hypo/hyperglycaemia, or ICD shock.&lt;/content&gt;\n                                                    &lt;br/&gt;\n                                                    &lt;content&gt;The skin on the torso felt normal, warm or hot.&lt;/content&gt;\n                                                    &lt;br/&gt;\n                                                    &lt;content&gt;There was no vomiting, diarrhoea, rectal bleeding, groin pain or groin swelling.&lt;/content&gt;\n                                                    &lt;br/&gt;\n                                                    &lt;content&gt;There was no new genital pain or swelling.&lt;/content&gt;\n                                                    &lt;br/&gt;\n                                                    &lt;content&gt;The individual was able to carry out most or all normal activities.&lt;/content&gt;\n                                                    &lt;br/&gt;\n                                                    &lt;content&gt;There was no crushing or severe aching chest, upper back or upper abdominal pain, or pain going to the arm, neck, jaw or shoulder.&lt;/content&gt;\n                                                    &lt;br/&gt;\n                                                    &lt;content&gt;The individual had not ingested a harmful or toxic substance.&lt;/content&gt;\n                                                    &lt;br/&gt;\n                                                    &lt;content&gt;There had been no black and tarry or red/maroon bowel motions.&lt;/content&gt;\n                                                    &lt;br/&gt;\n                                                    &lt;content&gt;There was no new or worsening confusion.&lt;/content&gt;\n                                                    &lt;br/&gt;\n                                                    &lt;content&gt;Breathing harder or faster when doing nothing was not described.&lt;/content&gt;\n                                                    &lt;br/&gt;\n                                                    &lt;content&gt;There was no new shoulder tip pain or pain in the lower right abdomen.&lt;/content&gt;\n                                                    &lt;br/&gt;\n                                                    &lt;content&gt;The individual did not use anticoagulant medication or have a bleeding/clotting disorder.&lt;/content&gt;\n                                                    &lt;br/&gt;\n                                                    &lt;content&gt;The individual had not been in constant pain for 4 hours or more.&lt;/content&gt;\n                                                    &lt;br/&gt;\n                                                    &lt;content&gt;The individual was not jaundiced.&lt;/content&gt;\n                                                    &lt;br/&gt;\n                                                    &lt;content&gt;The individual had experienced extreme thirst during the previous 4 weeks.&lt;/content&gt;\n                                                    &lt;br/&gt;</div>"
          }
        }, {
          "title": "Advice Given",
          "text": {
            "status": "generated",
            "div": "<div xmlns=\"http://www.w3.org/1999/xhtml\">&lt;content&gt;Unless advised not to, paracetamol may be used to relieve pain or fever. Follow the instructions in the pack. If in doubt ask a pharmacist.&lt;/content&gt;\n                                                    &lt;br/&gt;\n                                                    &lt;content&gt;Don't use ibuprofen or any other anti-inflammatory medication until you have spoken to a healthcare professional.&lt;/content&gt;\n                                                    &lt;br/&gt;\n                                                    &lt;content&gt;If there are any new symptoms, or if the condition gets worse, changes or you have any other concerns, call us back.&lt;/content&gt;\n                                                    &lt;br/&gt;\n                                                    &lt;content&gt;Remember to take a list of any current medications if you go to the out of hours surgery.&lt;/content&gt;\n                                                    &lt;br/&gt;</div>"
          }
        }, {
          "title": "SCR Consent",
          "text": {
            "status": "generated",
            "div": "<div xmlns=\"http://www.w3.org/1999/xhtml\">&lt;content&gt;Consent given for SCR sharing\n                                                        &lt;br/&gt;\n                                                        &lt;br/&gt;\n                                                    &lt;/content&gt;</div>"
          }
        } ]
      }, {
        "title": "ReferralRequest",
        "entry": [ {
          "reference": "urn:uuid:cae5f167-5334-4d27-ba45-9cb04d908036"
        } ]
      } ]
    }
  }, {
    "fullUrl": "urn:uuid:14c411c8-2141-4979-85fb-4b9035d82b4a",
    "resource": {
      "resourceType": "Consent",
      "id": "14c411c8-2141-4979-85fb-4b9035d82b4a",
      "identifier": {
        "use": "usual",
        "value": "B172BCF7-DD1C-4508-B781-6BE68ABD1F79"
      },
      "status": "active",
      "patient": {
        "reference": "urn:uuid:38e0e808-c95c-4261-aa4a-8d48dd0e07c7"
      },
      "period": {
        "start": "2021-05-11T08:58:52+00:00"
      },
      "consentingParty": [ {
        "reference": "urn:uuid:38e0e808-c95c-4261-aa4a-8d48dd0e07c7"
      } ],
      "action": [ {
        "coding": [ {
          "system": "http://snomed.info/sct",
          "code": "425691002",
          "display": "Consent given for electronic record sharing"
        } ],
        "text": "Consent given for electronic record sharing"
      } ],
      "organization": [ {
        "reference": "urn:uuid:03e390d7-b495-45f7-84bd-3e9993d8e498"
      } ],
      "policyRule": "http://hl7.org/fhir/ConsentPolicy/opt-out",
      "data": [ {
        "meaning": "related",
        "reference": {
          "reference": "urn:uuid:e59bff45-75c1-4382-925a-de962d98c4c1"
        }
      } ]
    }
  }, {
    "fullUrl": "urn:uuid:35acda74-b183-47a7-91b4-ee621d1cf0bf",
    "resource": {
      "resourceType": "Condition",
      "id": "35acda74-b183-47a7-91b4-ee621d1cf0bf",
      "clinicalStatus": "active",
      "verificationStatus": "unknown",
      "subject": {
        "reference": "urn:uuid:38e0e808-c95c-4261-aa4a-8d48dd0e07c7"
      },
      "context": {
        "reference": "urn:uuid:e59bff45-75c1-4382-925a-de962d98c4c1"
      }
    }
  }, {
    "fullUrl": "urn:uuid:65d989f5-eae8-419c-b7f7-a9a3855e36fe",
    "resource": {
      "resourceType": "Observation",
      "id": "65d989f5-eae8-419c-b7f7-a9a3855e36fe",
      "status": "final",
      "code": {
        "coding": [ {
          "system": "http://snomed.info/sct",
          "code": "33962009",
          "display": "Presenting complaint"
        } ]
      },
      "subject": {
        "reference": "urn:uuid:38e0e808-c95c-4261-aa4a-8d48dd0e07c7"
      },
      "context": {
        "reference": "urn:uuid:e59bff45-75c1-4382-925a-de962d98c4c1"
      },
      "valueString": "<CLEO Ref: 2100310384> Test Call for Dx07.\n                                                        "
    }
  }, {
    "fullUrl": "urn:uuid:d2474ae6-a725-440b-aa9c-41ee50e50d66",
    "resource": {
      "resourceType": "PractitionerRole",
      "id": "d2474ae6-a725-440b-aa9c-41ee50e50d66",
      "practitioner": {
        "reference": "urn:uuid:4e575779-072b-462d-852e-fa8b7814fd99"
      },
      "organization": {
        "reference": "urn:uuid:02b368b7-a0e8-4dc2-807b-834bec1f4736"
      },
      "code": [ {
        "coding": [ {
          "system": "2.16.840.1.113883.2.1.3.2.4.17.196",
          "code": "NR1690",
          "display": "Call Operator"
        } ]
      } ]
    }
  }, {
    "fullUrl": "urn:uuid:02b368b7-a0e8-4dc2-807b-834bec1f4736",
    "resource": {
      "resourceType": "Organization",
      "id": "02b368b7-a0e8-4dc2-807b-834bec1f4736",
      "identifier": [ {
        "value": "NTN08"
      } ],
      "name": "Norfolk and Wisbech 111"
    }
  }, {
    "fullUrl": "urn:uuid:a5952c57-7155-4e3c-822f-b84ce1a56b13",
    "resource": {
      "resourceType": "RelatedPerson",
      "id": "a5952c57-7155-4e3c-822f-b84ce1a56b13",
      "patient": {
        "reference": "urn:uuid:38e0e808-c95c-4261-aa4a-8d48dd0e07c7"
      },
      "relationship": {
        "coding": [ {
          "system": "http://hl7.org/fhir/v2/0131",
          "code": "C",
          "display": "Emergency Contact"
        } ]
      },
      "telecom": [ {
        "system": "phone",
        "value": "tel:01233123123"
      } ]
    }
  }, {
    "fullUrl": "urn:uuid:eac78bc5-4b67-44f5-bdaa-6ee239a62369",
    "resource": {
      "resourceType": "Device",
      "id": "eac78bc5-4b67-44f5-bdaa-6ee239a62369",
      "model": "111 Adaptor",
      "version": "1.0.1"
    }
  }, {
    "fullUrl": "urn:uuid:b96975ee-7ced-42e6-b3ba-d5adea5d8227",
    "resource": {
      "resourceType": "List",
      "id": "b96975ee-7ced-42e6-b3ba-d5adea5d8227",
      "status": "current",
      "mode": "working",
      "title": "111 Report List",
      "code": {
        "coding": [ {
          "system": "http://snomed.info/sct",
          "code": "225390008",
          "display": "Triage"
        } ]
      },
      "subject": {
        "reference": "urn:uuid:38e0e808-c95c-4261-aa4a-8d48dd0e07c7"
      },
      "encounter": {
        "reference": "urn:uuid:e59bff45-75c1-4382-925a-de962d98c4c1"
      },
      "date": "2021-05-11T08:58:52+00:00",
      "source": {
        "reference": "urn:uuid:eac78bc5-4b67-44f5-bdaa-6ee239a62369"
      },
      "orderedBy": {
        "coding": [ {
          "system": "http://hl7.org/fhir/list-order",
          "code": "event-date",
          "display": "Sorted by Event Date"
        } ]
      },
      "entry": [ {
        "item": {
          "reference": "urn:uuid:2ca269b6-b41d-4ad6-9d21-0b8629a66887"
        }
      }, {
        "item": {
          "reference": "urn:uuid:4e575779-072b-462d-852e-fa8b7814fd99"
        }
      }, {
        "item": {
          "reference": "urn:uuid:ad8fec94-47c4-4495-a539-910be137fc18"
        }
      }, {
        "item": {
          "reference": "urn:uuid:02b368b7-a0e8-4dc2-807b-834bec1f4736"
        }
      }, {
        "item": {
          "reference": "urn:uuid:2d44753a-da3b-4c07-91c8-b3b0e4c69069"
        }
      }, {
        "item": {
          "reference": "urn:uuid:03e390d7-b495-45f7-84bd-3e9993d8e498"
        }
      }, {
        "item": {
          "reference": "urn:uuid:35acda74-b183-47a7-91b4-ee621d1cf0bf"
        }
      }, {
        "item": {
          "reference": "urn:uuid:0cc58306-e03f-426e-b8e8-d87a45f78945"
        }
      }, {
        "item": {
          "reference": "urn:uuid:65d989f5-eae8-419c-b7f7-a9a3855e36fe"
        }
      }, {
        "item": {
          "reference": "urn:uuid:ce7be81d-edf3-4b18-ad85-08e48c90347b"
        }
      }, {
        "item": {
          "reference": "urn:uuid:a5952c57-7155-4e3c-822f-b84ce1a56b13"
        }
      }, {
        "item": {
          "reference": "urn:uuid:cae5f167-5334-4d27-ba45-9cb04d908036"
        }
      } ]
    }
  } ]
}