{
  "resourceType": "Bundle",
  "identifier": {
    "type": {
      "text": "ClinicalDocument VersionNumber"
    },
    "value": "1"
  },
  "type": "message",
  "entry": [ {
    "fullUrl": "urn:uuid:D78E4686-5082-4E76-9359-6A84AE0C9C10",
    "resource": {
      "resourceType": "MessageHeader",
      "id": "D78E4686-5082-4E76-9359-6A84AE0C9C10",
      "event": {
        "system": "https://fhir.nhs.uk/STU3/CodeSystem/EventType-1",
        "code": "referral-1",
        "display": "Referral"
      },
      "destination": [ {
        "endpoint": "urn:nhs-uk:addressing:ods:NVE06:DOSServiceID:1335970392"
      } ],
      "timestamp": "2021-05-11T08:53:28.000+00:00",
      "source": {
        "name": "NHS 111 Adaptor",
        "endpoint": "http://localhost:8080/report"
      },
      "reason": {
        "coding": [ {
          "system": "urn:nhs-itk:ns:201005:interaction",
          "code": "urn:nhs-itk:interaction:primaryOutofHourRecipientNHS111CDADocument-v2-0"
        } ]
      }
    }
  }, {
    "fullUrl": "urn:uuid:af466107-b342-4908-b353-5e15c9a72866",
    "resource": {
      "resourceType": "Encounter",
      "id": "af466107-b342-4908-b353-5e15c9a72866",
      "identifier": [ {
        "system": "2.16.840.1.113883.2.1.3.2.4.18.34",
        "value": "0060E06D-C899-440E-B58E-B5522662EC28"
      }, {
        "system": "2.16.840.1.113883.2.1.3.2.4.18.35",
        "value": "2100310382"
      } ],
      "status": "finished",
      "type": [ {
        "text": "111 Encounter Referral"
      } ],
      "subject": {
        "reference": "urn:uuid:511a98a3-cafe-43c9-8243-1059b28d9fbe"
      },
      "participant": [ {
        "type": [ {
          "coding": [ {
            "system": "http://hl7.org/fhir/ValueSet/encounter-participant-type",
            "code": "PPRF",
            "display": "Author"
          } ]
        } ],
        "individual": {
          "reference": "urn:uuid:532f6744-b8df-4f50-9599-1663a2ca1cfb"
        }
      }, {
        "type": [ {
          "text": "Informant"
        } ],
        "individual": {
          "reference": "urn:uuid:f1644afb-d572-4d08-a78c-74d79d75c033"
        }
      } ],
      "period": {
        "start": "2021-05-11T08:53:28+00:00"
      },
      "location": [ {
        "location": {
          "reference": "urn:uuid:88ef35e8-c754-4f17-8786-3ec2310c704e"
        },
        "status": "active"
      }, {
        "location": {
          "reference": "urn:uuid:c98ffb07-7c93-4431-9ca6-f0c7917e148c"
        },
        "status": "completed"
      } ],
      "serviceProvider": {
        "reference": "urn:uuid:72b10a89-9670-4638-9822-1d6338736991"
      }
    }
  }, {
    "fullUrl": "urn:uuid:72b10a89-9670-4638-9822-1d6338736991",
    "resource": {
      "resourceType": "Organization",
      "id": "72b10a89-9670-4638-9822-1d6338736991",
      "active": true,
      "type": [ {
        "text": "CST"
      } ],
      "name": "Norfolk and Wisbech 111"
    }
  }, {
    "fullUrl": "urn:uuid:532f6744-b8df-4f50-9599-1663a2ca1cfb",
    "resource": {
      "resourceType": "Practitioner",
      "id": "532f6744-b8df-4f50-9599-1663a2ca1cfb",
      "active": true,
      "name": [ {
        "text": "Ben Smythson"
      } ]
    }
  }, {
    "fullUrl": "urn:uuid:f1644afb-d572-4d08-a78c-74d79d75c033",
    "resource": {
      "resourceType": "RelatedPerson",
      "id": "f1644afb-d572-4d08-a78c-74d79d75c033",
      "active": true,
      "patient": {
        "reference": "urn:uuid:511a98a3-cafe-43c9-8243-1059b28d9fbe"
      },
      "relationship": {
        "coding": [ {
          "system": "2.16.840.1.113883.2.1.3.2.4.16.45",
          "code": "21",
          "display": "Self"
        }, {
          "system": "http://hl7.org/fhir/v2/0131",
          "code": "C",
          "display": "Emergency Contact"
        } ]
      },
      "name": [ {
        "text": "Test Call TEST CALL DX06"
      } ],
      "telecom": [ {
        "system": "phone",
        "value": "tel:01233123123"
      } ],
      "gender": "unknown"
    }
  }, {
    "fullUrl": "urn:uuid:88ef35e8-c754-4f17-8786-3ec2310c704e",
    "resource": {
      "resourceType": "Location",
      "id": "88ef35e8-c754-4f17-8786-3ec2310c704e",
      "managingOrganization": {
        "reference": "urn:uuid:30c43da2-11f0-4188-84da-28833dc34032"
      }
    }
  }, {
    "fullUrl": "urn:uuid:30c43da2-11f0-4188-84da-28833dc34032",
    "resource": {
      "resourceType": "Organization",
      "id": "30c43da2-11f0-4188-84da-28833dc34032",
      "identifier": [ {
        "value": "Z10000"
      } ],
      "type": [ {
        "text": "GP Practice"
      } ],
      "name": "UNKNOWN"
    }
  }, {
    "fullUrl": "urn:uuid:c98ffb07-7c93-4431-9ca6-f0c7917e148c",
    "resource": {
      "resourceType": "Location",
      "id": "c98ffb07-7c93-4431-9ca6-f0c7917e148c",
      "address": {
        "type": "physical",
        "line": [ "313 VICTORIA ROAD", "LOWESTOFT" ],
        "postalCode": "NR33 9LS"
      }
    }
  }, {
    "fullUrl": "urn:uuid:511a98a3-cafe-43c9-8243-1059b28d9fbe",
    "resource": {
      "resourceType": "Patient",
      "id": "511a98a3-cafe-43c9-8243-1059b28d9fbe",
      "language": "en",
      "active": true,
      "name": [ {
        "use": "official",
        "family": "TEST CALL DX06",
        "given": [ "Test Call" ]
      } ],
      "telecom": [ {
        "system": "phone",
        "value": "tel:01233123123"
      } ],
      "gender": "male",
      "birthDate": "1996-03-25",
      "address": [ {
        "use": "home",
        "line": [ "313 VICTORIA ROAD", "LOWESTOFT" ],
        "postalCode": "NR33 9LS"
      }, {
        "type": "physical",
        "line": [ "313 VICTORIA ROAD", "LOWESTOFT" ],
        "postalCode": "NR33 9LS"
      } ],
      "generalPractitioner": [ {
        "reference": "urn:uuid:b9c37932-2274-4f85-86e5-990ea2e00569"
      } ]
    }
  }, {
    "fullUrl": "urn:uuid:b9c37932-2274-4f85-86e5-990ea2e00569",
    "resource": {
      "resourceType": "Organization",
      "id": "b9c37932-2274-4f85-86e5-990ea2e00569",
      "identifier": [ {
        "value": "Z10000"
      } ],
      "type": [ {
        "text": "GP Practice"
      } ],
      "name": "UNKNOWN"
    }
  }, {
    "fullUrl": "urn:uuid:563b2692-55a4-42f2-a216-ca0023ed7a34",
    "resource": {
      "resourceType": "HealthcareService",
      "id": "563b2692-55a4-42f2-a216-ca0023ed7a34",
      "active": true,
      "providedBy": {
        "reference": "urn:uuid:3934594f-8efa-429c-9a5a-77cc6a3f638a"
      },
      "location": [ {
        "reference": "urn:uuid:3c31fdfb-92a0-4e40-99a3-35e56ad6941f"
      } ],
      "name": "Out of Hours GP Service (Waveney) - Kirkley Mill Health Centre, Lowestoft"
    }
  }, {
    "fullUrl": "urn:uuid:3c31fdfb-92a0-4e40-99a3-35e56ad6941f",
    "resource": {
      "resourceType": "Location",
      "id": "3c31fdfb-92a0-4e40-99a3-35e56ad6941f",
      "managingOrganization": {
        "reference": "urn:uuid:3934594f-8efa-429c-9a5a-77cc6a3f638a"
      }
    }
  }, {
    "fullUrl": "urn:uuid:3934594f-8efa-429c-9a5a-77cc6a3f638a",
    "resource": {
      "resourceType": "Organization",
      "id": "3934594f-8efa-429c-9a5a-77cc6a3f638a",
      "identifier": [ {
        "value": "NVE06"
      } ],
      "type": [ {
        "coding": [ {
          "code": "PRCP",
          "display": "Out of Hours GP Service (Waveney) - Kirkley Mill Health Centre, Lowestoft"
        } ]
      } ],
      "name": "Out of Hours GP Service (Waveney) - Kirkley Mill Health Centre, Lowestoft"
    }
  }, {
    "fullUrl": "urn:uuid:82a95a8d-2e95-4969-b04d-46d781d2a73d",
    "resource": {
      "resourceType": "ReferralRequest",
      "id": "82a95a8d-2e95-4969-b04d-46d781d2a73d",
      "status": "active",
      "intent": "plan",
      "priority": "routine",
      "subject": {
        "reference": "urn:uuid:511a98a3-cafe-43c9-8243-1059b28d9fbe"
      },
      "context": {
        "reference": "urn:uuid:af466107-b342-4908-b353-5e15c9a72866"
      },
      "occurrencePeriod": {
        "start": "2021-09-29T10:03:13+00:00",
        "end": "2021-09-29T11:03:13+00:00"
      },
      "authoredOn": "2021-05-11T08:53:28+00:00",
      "requester": {
        "agent": {
          "reference": "urn:uuid:ca333721-a057-4fb1-8882-1041e500fb4f"
        },
        "onBehalfOf": {
          "reference": "urn:uuid:72b10a89-9670-4638-9822-1d6338736991"
        }
      },
      "recipient": [ {
        "reference": "urn:uuid:f4f78517-0085-42a3-8585-f09211fcbec4"
      }, {
        "reference": "urn:uuid:563b2692-55a4-42f2-a216-ca0023ed7a34"
      } ],
      "reasonReference": [ {
        "reference": "urn:uuid:0edb91da-5b4d-4c31-8446-7133bbfa5ff0"
      } ],
      "supportingInfo": [ {
        "reference": "urn:uuid:8f662c2c-28ec-44b6-af8f-acc7fc2a9e11"
      } ]
    }
  }, {
    "fullUrl": "urn:uuid:8f662c2c-28ec-44b6-af8f-acc7fc2a9e11",
    "resource": {
      "resourceType": "ProcedureRequest",
      "id": "8f662c2c-28ec-44b6-af8f-acc7fc2a9e11",
      "status": "active",
      "intent": "plan",
      "priority": "routine",
      "doNotPerform": false,
      "code": {
        "coding": [ {
          "system": "2.16.840.1.113883.2.1.3.2.4.17.325",
          "code": "Dx06",
          "display": "To contact a local service within 6 hours"
        } ]
      },
      "subject": {
        "reference": "urn:uuid:511a98a3-cafe-43c9-8243-1059b28d9fbe"
      },
      "occurrencePeriod": {
        "start": "2021-09-29T10:03:13+00:00",
        "end": "2021-09-29T11:03:13+00:00"
      },
      "reasonReference": [ {
        "reference": "urn:uuid:0edb91da-5b4d-4c31-8446-7133bbfa5ff0"
      } ]
    }
  }, {
    "fullUrl": "urn:uuid:f4f78517-0085-42a3-8585-f09211fcbec4",
    "resource": {
      "resourceType": "Practitioner",
      "id": "f4f78517-0085-42a3-8585-f09211fcbec4",
      "active": true,
      "telecom": [ {
        "system": "phone",
        "value": "tel:01233505450"
      } ],
      "address": [ {
        "type": "physical",
        "line": [ "Kingston House", "The Long Barrow", "Orbital Park", "Ashford", "Kent" ],
        "postalCode": "TN24 0GP"
      } ]
    }
  }, {
    "fullUrl": "urn:uuid:0b8c7cda-6713-4898-bf79-5c4bf7afbc53",
    "resource": {
      "resourceType": "Composition",
      "id": "0b8c7cda-6713-4898-bf79-5c4bf7afbc53",
      "identifier": {
        "use": "usual",
        "value": "192F7989-BE74-4F5C-AA94-FC0778DAC8AA"
      },
      "status": "final",
      "type": {
        "coding": [ {
          "system": "http://snomed.info/sct",
          "code": "371531000",
          "display": "Report of clinical encounter (record artifact)"
        } ]
      },
      "subject": {
        "reference": "urn:uuid:511a98a3-cafe-43c9-8243-1059b28d9fbe"
      },
      "encounter": {
        "reference": "urn:uuid:af466107-b342-4908-b353-5e15c9a72866"
      },
      "date": "2021-09-29T10:03:13+00:00",
      "author": [ {
        "reference": "urn:uuid:532f6744-b8df-4f50-9599-1663a2ca1cfb"
      } ],
      "title": "111 Report",
      "confidentiality": "R",
      "section": [ {
        "section": [ {
          "title": "Patient's Reported Condition",
          "text": {
            "status": "generated",
            "div": "<div xmlns=\"http://www.w3.org/1999/xhtml\">&lt;content&gt;&amp;lt;CLEO Ref: 2100310382&amp;gt; Test Call for DX06.\n                                                        &lt;br/&gt;\n                                                    &lt;/content&gt;</div>"
          }
        }, {
          "title": "Pathways Disposition",
          "text": {
            "status": "generated",
            "div": "<div xmlns=\"http://www.w3.org/1999/xhtml\">&lt;content&gt;The individual needs to contact a local service within 6 hours. (Dx06)&lt;/content&gt;\n                                                    &lt;br/&gt;\n                                                    &lt;br/&gt;\n                                                    &lt;content&gt;Selected Service: 1335970392, Out of Hours GP Service (Waveney) - Kirkley Mill Health Centre, Lowestoft, 111&lt;/content&gt;\n                                                    &lt;br/&gt;</div>"
          }
        }, {
          "title": "Consultation Summary",
          "text": {
            "status": "generated",
            "div": "<div xmlns=\"http://www.w3.org/1999/xhtml\">&lt;content&gt;\n                                                        &lt;content&gt;Constant pain for more than 4 hours&lt;/content&gt;\n                                                        &lt;br/&gt;\n                                                        &lt;content&gt;Warm to touch&lt;/content&gt;\n                                                        &lt;br/&gt;\n                                                        &lt;content&gt;Illness - Test&lt;/content&gt;\n                                                        &lt;br/&gt;\n                                                    &lt;/content&gt;</div>"
          }
        }, {
          "title": "Pathways Assessment",
          "text": {
            "status": "generated",
            "div": "<div xmlns=\"http://www.w3.org/1999/xhtml\">&lt;content&gt;An injury or health problem was the reason for the contact.&lt;/content&gt;\n                                                    &lt;br/&gt;\n                                                    &lt;content&gt;Heavy bleeding had not occurred in the previous 2 hours.&lt;/content&gt;\n                                                    &lt;br/&gt;\n                                                    &lt;content&gt;An illness or health problem was the main problem. - Test&lt;/content&gt;\n                                                    &lt;br/&gt;\n                                                    &lt;content&gt;The individual was not fighting for breath.&lt;/content&gt;\n                                                    &lt;br/&gt;\n                                                    &lt;content&gt;The main reason for the assessment was not an allergic reaction, heart attack, chest/upper back pain, probable stroke, recent fit/seizure or suicide attempt.&lt;/content&gt;\n                                                    &lt;br/&gt;\n                                                    &lt;content&gt;The main reason for contact was not new confusion, declared diabetic hypo/hyperglycaemia, or ICD shock.&lt;/content&gt;\n                                                    &lt;br/&gt;\n                                                    &lt;content&gt;The skin on the torso felt normal, warm or hot.&lt;/content&gt;\n                                                    &lt;br/&gt;\n                                                    &lt;content&gt;There was no vomiting, diarrhoea, rectal bleeding, groin pain or groin swelling.&lt;/content&gt;\n                                                    &lt;br/&gt;\n                                                    &lt;content&gt;There was no new genital pain or swelling.&lt;/content&gt;\n                                                    &lt;br/&gt;\n                                                    &lt;content&gt;The individual was able to carry out most or all normal activities.&lt;/content&gt;\n                                                    &lt;br/&gt;\n                                                    &lt;content&gt;There was no crushing or severe aching chest, upper back or upper abdominal pain, or pain going to the arm, neck, jaw or shoulder.&lt;/content&gt;\n                                                    &lt;br/&gt;\n                                                    &lt;content&gt;The individual had not ingested a harmful or toxic substance.&lt;/content&gt;\n                                                    &lt;br/&gt;\n                                                    &lt;content&gt;There had been no black and tarry or red/maroon bowel motions.&lt;/content&gt;\n                                                    &lt;br/&gt;\n                                                    &lt;content&gt;There was no new or worsening confusion.&lt;/content&gt;\n                                                    &lt;br/&gt;\n                                                    &lt;content&gt;Breathing harder or faster when doing nothing was not described.&lt;/content&gt;\n                                                    &lt;br/&gt;\n                                                    &lt;content&gt;There was no new shoulder tip pain or pain in the lower right abdomen.&lt;/content&gt;\n                                                    &lt;br/&gt;\n                                                    &lt;content&gt;The individual did not use anticoagulant medication or have a bleeding/clotting disorder.&lt;/content&gt;\n                                                    &lt;br/&gt;\n                                                    &lt;content&gt;There was constant pain for 4 hours or more.&lt;/content&gt;\n                                                    &lt;br/&gt;</div>"
          }
        }, {
          "title": "Advice Given",
          "text": {
            "status": "generated",
            "div": "<div xmlns=\"http://www.w3.org/1999/xhtml\">&lt;content&gt;Unless advised not to, paracetamol may be used to relieve pain or fever. Follow the instructions in the pack. If in doubt ask a pharmacist.&lt;/content&gt;\n                                                    &lt;br/&gt;\n                                                    &lt;content&gt;Don't use ibuprofen or any other anti-inflammatory medication until you have spoken to a healthcare professional.&lt;/content&gt;\n                                                    &lt;br/&gt;\n                                                    &lt;content&gt;If there are any new symptoms, or if the condition gets worse, changes or you have any other concerns, call us back.&lt;/content&gt;\n                                                    &lt;br/&gt;\n                                                    &lt;content&gt;Remember to take a list of any current medications if you go to the out of hours surgery.&lt;/content&gt;\n                                                    &lt;br/&gt;</div>"
          }
        }, {
          "title": "SCR Consent",
          "text": {
            "status": "generated",
            "div": "<div xmlns=\"http://www.w3.org/1999/xhtml\">&lt;content&gt;Consent given for SCR sharing\n                                                        &lt;br/&gt;\n                                                        &lt;br/&gt;\n                                                    &lt;/content&gt;</div>"
          }
        } ]
      }, {
        "title": "ReferralRequest",
        "entry": [ {
          "reference": "urn:uuid:82a95a8d-2e95-4969-b04d-46d781d2a73d"
        } ]
      } ]
    }
  }, {
    "fullUrl": "urn:uuid:ce741d76-0e76-4410-a5b3-b7ab91f48035",
    "resource": {
      "resourceType": "Consent",
      "id": "ce741d76-0e76-4410-a5b3-b7ab91f48035",
      "identifier": {
        "use": "usual",
        "value": "192F7989-BE74-4F5C-AA94-FC0778DAC8AA"
      },
      "status": "active",
      "patient": {
        "reference": "urn:uuid:511a98a3-cafe-43c9-8243-1059b28d9fbe"
      },
      "period": {
        "start": "2021-05-11T08:53:28+00:00"
      },
      "consentingParty": [ {
        "reference": "urn:uuid:511a98a3-cafe-43c9-8243-1059b28d9fbe"
      } ],
      "action": [ {
        "coding": [ {
          "system": "http://snomed.info/sct",
          "code": "425691002",
          "display": "Consent given for electronic record sharing"
        } ],
        "text": "Consent given for electronic record sharing"
      } ],
      "organization": [ {
        "reference": "urn:uuid:72b10a89-9670-4638-9822-1d6338736991"
      } ],
      "policyRule": "http://hl7.org/fhir/ConsentPolicy/opt-out",
      "data": [ {
        "meaning": "related",
        "reference": {
          "reference": "urn:uuid:af466107-b342-4908-b353-5e15c9a72866"
        }
      } ]
    }
  }, {
    "fullUrl": "urn:uuid:0edb91da-5b4d-4c31-8446-7133bbfa5ff0",
    "resource": {
      "resourceType": "Condition",
      "id": "0edb91da-5b4d-4c31-8446-7133bbfa5ff0",
      "clinicalStatus": "active",
      "verificationStatus": "unknown",
      "subject": {
        "reference": "urn:uuid:511a98a3-cafe-43c9-8243-1059b28d9fbe"
      },
      "context": {
        "reference": "urn:uuid:af466107-b342-4908-b353-5e15c9a72866"
      }
    }
  }, {
    "fullUrl": "urn:uuid:ac96669d-adf5-4b73-9a7e-17a3a506417a",
    "resource": {
      "resourceType": "Observation",
      "id": "ac96669d-adf5-4b73-9a7e-17a3a506417a",
      "status": "final",
      "code": {
        "coding": [ {
          "system": "http://snomed.info/sct",
          "code": "33962009",
          "display": "Presenting complaint"
        } ]
      },
      "subject": {
        "reference": "urn:uuid:511a98a3-cafe-43c9-8243-1059b28d9fbe"
      },
      "context": {
        "reference": "urn:uuid:af466107-b342-4908-b353-5e15c9a72866"
      },
      "valueString": "<CLEO Ref: 2100310382> Test Call for DX06.\n                                                        "
    }
  }, {
    "fullUrl": "urn:uuid:7e176c09-6797-4001-b41b-f45a33cb74b3",
    "resource": {
      "resourceType": "PractitionerRole",
      "id": "7e176c09-6797-4001-b41b-f45a33cb74b3",
      "practitioner": {
        "reference": "urn:uuid:532f6744-b8df-4f50-9599-1663a2ca1cfb"
      },
      "organization": {
        "reference": "urn:uuid:ced74042-3e78-4d01-bc1e-df1b91772761"
      },
      "code": [ {
        "coding": [ {
          "system": "2.16.840.1.113883.2.1.3.2.4.17.196",
          "code": "NR1690",
          "display": "Call Operator"
        } ]
      } ]
    }
  }, {
    "fullUrl": "urn:uuid:ced74042-3e78-4d01-bc1e-df1b91772761",
    "resource": {
      "resourceType": "Organization",
      "id": "ced74042-3e78-4d01-bc1e-df1b91772761",
      "identifier": [ {
        "value": "NTN08"
      } ],
      "name": "Norfolk and Wisbech 111"
    }
  }, {
    "fullUrl": "urn:uuid:42d6cf97-1403-4a93-a8d5-b2a31db16bb1",
    "resource": {
      "resourceType": "RelatedPerson",
      "id": "42d6cf97-1403-4a93-a8d5-b2a31db16bb1",
      "patient": {
        "reference": "urn:uuid:511a98a3-cafe-43c9-8243-1059b28d9fbe"
      },
      "relationship": {
        "coding": [ {
          "system": "http://hl7.org/fhir/v2/0131",
          "code": "C",
          "display": "Emergency Contact"
        } ]
      },
      "telecom": [ {
        "system": "phone",
        "value": "tel:01233123123"
      } ]
    }
  }, {
    "fullUrl": "urn:uuid:ca333721-a057-4fb1-8882-1041e500fb4f",
    "resource": {
      "resourceType": "Device",
      "id": "ca333721-a057-4fb1-8882-1041e500fb4f",
      "model": "111 Adaptor",
      "version": "0.9.0"
    }
  }, {
    "fullUrl": "urn:uuid:cccd7a24-906b-4a52-a332-6fb897b69fcb",
    "resource": {
      "resourceType": "List",
      "id": "cccd7a24-906b-4a52-a332-6fb897b69fcb",
      "status": "current",
      "mode": "working",
      "title": "111 Report List",
      "code": {
        "coding": [ {
          "system": "http://snomed.info/sct",
          "code": "225390008",
          "display": "Triage"
        } ]
      },
      "subject": {
        "reference": "urn:uuid:511a98a3-cafe-43c9-8243-1059b28d9fbe"
      },
      "encounter": {
        "reference": "urn:uuid:af466107-b342-4908-b353-5e15c9a72866"
      },
      "date": "2021-09-29T10:03:14+00:00",
      "source": {
        "reference": "urn:uuid:ca333721-a057-4fb1-8882-1041e500fb4f"
      },
      "orderedBy": {
        "coding": [ {
          "system": "http://hl7.org/fhir/list-order",
          "code": "event-date",
          "display": "Sorted by Event Date"
        } ]
      },
      "entry": [ {
        "item": {
          "reference": "urn:uuid:30c43da2-11f0-4188-84da-28833dc34032"
        }
      }, {
        "item": {
          "reference": "urn:uuid:b9c37932-2274-4f85-86e5-990ea2e00569"
        }
      }, {
        "item": {
          "reference": "urn:uuid:ced74042-3e78-4d01-bc1e-df1b91772761"
        }
      }, {
        "item": {
          "reference": "urn:uuid:532f6744-b8df-4f50-9599-1663a2ca1cfb"
        }
      }, {
        "item": {
          "reference": "urn:uuid:ac96669d-adf5-4b73-9a7e-17a3a506417a"
        }
      }, {
        "item": {
          "reference": "urn:uuid:f4f78517-0085-42a3-8585-f09211fcbec4"
        }
      }, {
        "item": {
          "reference": "urn:uuid:f1644afb-d572-4d08-a78c-74d79d75c033"
        }
      }, {
        "item": {
          "reference": "urn:uuid:0edb91da-5b4d-4c31-8446-7133bbfa5ff0"
        }
      }, {
        "item": {
          "reference": "urn:uuid:72b10a89-9670-4638-9822-1d6338736991"
        }
      }, {
        "item": {
          "reference": "urn:uuid:42d6cf97-1403-4a93-a8d5-b2a31db16bb1"
        }
      }, {
        "item": {
          "reference": "urn:uuid:3934594f-8efa-429c-9a5a-77cc6a3f638a"
        }
      }, {
        "item": {
          "reference": "urn:uuid:82a95a8d-2e95-4969-b04d-46d781d2a73d"
        }
      } ]
    }
  } ]
}