{
  "resourceType": "Bundle",
  "identifier": {
    "type": {
      "text": "ClinicalDocument VersionNumber"
    },
    "value": "1"
  },
  "type": "message",
  "entry": [ {
    "fullUrl": "urn:uuid:D78E4686-5082-4E76-9359-6A84AE0C9C10",
    "resource": {
      "resourceType": "MessageHeader",
      "id": "D78E4686-5082-4E76-9359-6A84AE0C9C10",
      "event": {
        "system": "https://fhir.nhs.uk/STU3/CodeSystem/EventType-1",
        "code": "referral-1",
        "display": "Referral"
      },
      "destination": [ {
        "endpoint": "urn:nhs-uk:addressing:ods:NVE06:DOSServiceID:1335970392"
      } ],
      "timestamp": "2021-05-11T08:53:28.000+00:00",
      "source": {
        "name": "NHS 111 Adaptor",
        "endpoint": "http://localhost:8080/report"
      },
      "reason": {
        "coding": [ {
          "system": "urn:nhs-itk:ns:201005:interaction",
          "code": "urn:nhs-itk:interaction:primaryOutofHourRecipientNHS111CDADocument-v2-0"
        } ]
      }
    },
    "response": {
      "status": "success",
      "lastModified": "2022-05-09T13:25:20.115+00:00"
    }
  }, {
    "fullUrl": "urn:uuid:378e4f96-3a4e-4897-917a-9b01dc3393bc",
    "resource": {
      "resourceType": "Encounter",
      "id": "378e4f96-3a4e-4897-917a-9b01dc3393bc",
      "identifier": [ {
        "system": "2.16.840.1.113883.2.1.3.2.4.18.34",
        "value": "0060E06D-C899-440E-B58E-B5522662EC28"
      }, {
        "system": "2.16.840.1.113883.2.1.3.2.4.18.35",
        "value": "2100310382"
      } ],
      "status": "finished",
      "type": [ {
        "text": "111 Encounter Referral"
      } ],
      "subject": {
        "reference": "urn:uuid:2c355f5e-322e-496f-a382-cec65a82cb57"
      },
      "participant": [ {
        "type": [ {
          "coding": [ {
            "system": "http://hl7.org/fhir/ValueSet/encounter-participant-type",
            "code": "PPRF",
            "display": "Author"
          } ]
        } ],
        "individual": {
          "reference": "urn:uuid:3e491ae5-7cc1-45e8-8217-3dfcc485ba01"
        }
      }, {
        "type": [ {
          "text": "Informant"
        } ],
        "individual": {
          "reference": "urn:uuid:0cd2d6b3-2467-4b6b-a649-008eb8b0d571"
        }
      } ],
      "period": {
        "start": "2021-05-11T08:49:11+00:00",
        "end": "2021-05-11T08:53:28+00:00"
      },
      "location": [ {
        "location": {
          "reference": "urn:uuid:918f9660-a030-43dd-a2fe-850e954ca131"
        },
        "status": "active"
      }, {
        "location": {
          "reference": "urn:uuid:a53c7aaa-1d3c-4b2c-be34-6454a02fb5ad"
        },
        "status": "completed"
      } ],
      "serviceProvider": {
        "reference": "urn:uuid:feb12f59-4a82-4d61-b8e0-cfe882d4c184"
      }
    }
  }, {
    "fullUrl": "urn:uuid:feb12f59-4a82-4d61-b8e0-cfe882d4c184",
    "resource": {
      "resourceType": "Organization",
      "id": "feb12f59-4a82-4d61-b8e0-cfe882d4c184",
      "active": true,
      "type": [ {
        "text": "CST"
      } ],
      "name": "Norfolk and Wisbech 111"
    }
  }, {
    "fullUrl": "urn:uuid:3e491ae5-7cc1-45e8-8217-3dfcc485ba01",
    "resource": {
      "resourceType": "Practitioner",
      "id": "3e491ae5-7cc1-45e8-8217-3dfcc485ba01",
      "active": true,
      "name": [ {
        "text": "Ben Smythson"
      } ]
    }
  }, {
    "fullUrl": "urn:uuid:0cd2d6b3-2467-4b6b-a649-008eb8b0d571",
    "resource": {
      "resourceType": "RelatedPerson",
      "id": "0cd2d6b3-2467-4b6b-a649-008eb8b0d571",
      "active": true,
      "patient": {
        "reference": "urn:uuid:2c355f5e-322e-496f-a382-cec65a82cb57"
      },
      "relationship": {
        "coding": [ {
          "system": "2.16.840.1.113883.2.1.3.2.4.16.45",
          "code": "21",
          "display": "Self"
        }, {
          "system": "http://hl7.org/fhir/v2/0131",
          "code": "C",
          "display": "Emergency Contact"
        } ]
      },
      "name": [ {
        "text": "Test Call TEST CALL DX06"
      } ],
      "telecom": [ {
        "system": "phone",
        "value": "tel:01233123123"
      } ],
      "gender": "unknown"
    }
  }, {
    "fullUrl": "urn:uuid:918f9660-a030-43dd-a2fe-850e954ca131",
    "resource": {
      "resourceType": "Location",
      "id": "918f9660-a030-43dd-a2fe-850e954ca131",
      "managingOrganization": {
        "reference": "urn:uuid:31a376a4-df5d-4b54-91bf-cf0b9e891737"
      }
    }
  }, {
    "fullUrl": "urn:uuid:31a376a4-df5d-4b54-91bf-cf0b9e891737",
    "resource": {
      "resourceType": "Organization",
      "id": "31a376a4-df5d-4b54-91bf-cf0b9e891737",
      "identifier": [ {
        "value": "Z10000"
      } ],
      "type": [ {
        "text": "GP Practice"
      } ],
      "name": "UNKNOWN"
    }
  }, {
    "fullUrl": "urn:uuid:a53c7aaa-1d3c-4b2c-be34-6454a02fb5ad",
    "resource": {
      "resourceType": "Location",
      "id": "a53c7aaa-1d3c-4b2c-be34-6454a02fb5ad",
      "address": {
        "type": "physical",
        "line": [ "313 VICTORIA ROAD", "LOWESTOFT" ],
        "postalCode": "NR33 9LS"
      }
    }
  }, {
    "fullUrl": "urn:uuid:2c355f5e-322e-496f-a382-cec65a82cb57",
    "resource": {
      "resourceType": "Patient",
      "id": "2c355f5e-322e-496f-a382-cec65a82cb57",
      "language": "en",
      "active": true,
      "name": [ {
        "use": "official",
        "family": "TEST CALL DX06",
        "given": [ "Test Call" ]
      } ],
      "telecom": [ {
        "system": "phone",
        "value": "tel:01233123123"
      } ],
      "gender": "male",
      "birthDate": "1996-03-25",
      "address": [ {
        "use": "home",
        "line": [ "313 VICTORIA ROAD", "LOWESTOFT" ],
        "postalCode": "NR33 9LS"
      }, {
        "type": "physical",
        "line": [ "313 VICTORIA ROAD", "LOWESTOFT" ],
        "postalCode": "NR33 9LS"
      } ],
      "generalPractitioner": [ {
        "reference": "urn:uuid:84a96b75-559a-4756-a77c-c6cb4e231bd6"
      } ]
    }
  }, {
    "fullUrl": "urn:uuid:84a96b75-559a-4756-a77c-c6cb4e231bd6",
    "resource": {
      "resourceType": "Organization",
      "id": "84a96b75-559a-4756-a77c-c6cb4e231bd6",
      "identifier": [ {
        "value": "Z10000"
      } ],
      "type": [ {
        "text": "GP Practice"
      } ],
      "name": "UNKNOWN"
    }
  }, {
    "fullUrl": "urn:uuid:3eae6a88-2a76-4450-b496-7bc409e708f4",
    "resource": {
      "resourceType": "HealthcareService",
      "id": "3eae6a88-2a76-4450-b496-7bc409e708f4",
      "active": true,
      "providedBy": {
        "reference": "urn:uuid:f24f6314-b79a-4ac9-97fc-e5e90823aa99"
      },
      "location": [ {
        "reference": "urn:uuid:7a894154-c553-46eb-8422-a2399bc74d07"
      } ],
      "name": "Out of Hours GP Service (Waveney) - Kirkley Mill Health Centre, Lowestoft"
    }
  }, {
    "fullUrl": "urn:uuid:7a894154-c553-46eb-8422-a2399bc74d07",
    "resource": {
      "resourceType": "Location",
      "id": "7a894154-c553-46eb-8422-a2399bc74d07",
      "managingOrganization": {
        "reference": "urn:uuid:f24f6314-b79a-4ac9-97fc-e5e90823aa99"
      }
    }
  }, {
    "fullUrl": "urn:uuid:f24f6314-b79a-4ac9-97fc-e5e90823aa99",
    "resource": {
      "resourceType": "Organization",
      "id": "f24f6314-b79a-4ac9-97fc-e5e90823aa99",
      "identifier": [ {
        "value": "NVE06"
      } ],
      "type": [ {
        "coding": [ {
          "code": "PRCP",
          "display": "Out of Hours GP Service (Waveney) - Kirkley Mill Health Centre, Lowestoft"
        } ]
      } ],
      "name": "Out of Hours GP Service (Waveney) - Kirkley Mill Health Centre, Lowestoft"
    }
  }, {
    "fullUrl": "urn:uuid:59d82e60-62d2-460b-8034-5e8d7ce1db15",
    "resource": {
      "resourceType": "ReferralRequest",
      "id": "59d82e60-62d2-460b-8034-5e8d7ce1db15",
      "status": "active",
      "intent": "plan",
      "priority": "routine",
      "subject": {
        "reference": "urn:uuid:2c355f5e-322e-496f-a382-cec65a82cb57"
      },
      "context": {
        "reference": "urn:uuid:378e4f96-3a4e-4897-917a-9b01dc3393bc"
      },
      "occurrencePeriod": {
        "start": "2021-05-11T08:53:28+00:00"
      },
      "authoredOn": "2021-05-11T08:53:28+00:00",
      "requester": {
        "agent": {
          "reference": "urn:uuid:e99c21c1-99fd-4ef7-b675-81dbd2564ac5"
        },
        "onBehalfOf": {
          "reference": "urn:uuid:feb12f59-4a82-4d61-b8e0-cfe882d4c184"
        }
      },
      "recipient": [ {
        "reference": "urn:uuid:67e2e83c-3c6e-4dc1-a8df-a2f60e81f00d"
      }, {
        "reference": "urn:uuid:3eae6a88-2a76-4450-b496-7bc409e708f4"
      } ],
      "reasonReference": [ {
        "reference": "urn:uuid:3e0eaca3-134b-4af6-9564-e368b4189a13"
      } ],
      "supportingInfo": [ {
        "reference": "urn:uuid:9489bb62-7e3e-4eaf-a2a7-002344f0b45e"
      } ]
    }
  }, {
    "fullUrl": "urn:uuid:9489bb62-7e3e-4eaf-a2a7-002344f0b45e",
    "resource": {
      "resourceType": "ProcedureRequest",
      "id": "9489bb62-7e3e-4eaf-a2a7-002344f0b45e",
      "status": "active",
      "intent": "plan",
      "priority": "routine",
      "doNotPerform": false,
      "code": {
        "coding": [ {
          "system": "2.16.840.1.113883.2.1.3.2.4.17.325",
          "code": "Dx06",
          "display": "To contact a local service within 6 hours"
        } ]
      },
      "subject": {
        "reference": "urn:uuid:2c355f5e-322e-496f-a382-cec65a82cb57"
      },
      "occurrencePeriod": {
        "start": "2021-05-11T08:53:28+00:00"
      },
      "reasonReference": [ {
        "reference": "urn:uuid:3e0eaca3-134b-4af6-9564-e368b4189a13"
      } ]
    }
  }, {
    "fullUrl": "urn:uuid:67e2e83c-3c6e-4dc1-a8df-a2f60e81f00d",
    "resource": {
      "resourceType": "Practitioner",
      "id": "67e2e83c-3c6e-4dc1-a8df-a2f60e81f00d",
      "active": true,
      "telecom": [ {
        "system": "phone",
        "value": "tel:01233505450"
      } ],
      "address": [ {
        "type": "physical",
        "line": [ "Kingston House", "The Long Barrow", "Orbital Park", "Ashford", "Kent" ],
        "postalCode": "TN24 0GP"
      } ]
    }
  }, {
    "fullUrl": "urn:uuid:29ead770-07de-4228-83a7-d51836ec06ae",
    "resource": {
      "resourceType": "Composition",
      "id": "29ead770-07de-4228-83a7-d51836ec06ae",
      "identifier": {
        "use": "usual",
        "value": "192F7989-BE74-4F5C-AA94-FC0778DAC8AA"
      },
      "status": "final",
      "type": {
        "coding": [ {
          "system": "http://snomed.info/sct",
          "code": "371531000",
          "display": "Report of clinical encounter (record artifact)"
        } ]
      },
      "subject": {
        "reference": "urn:uuid:2c355f5e-322e-496f-a382-cec65a82cb57"
      },
      "encounter": {
        "reference": "urn:uuid:378e4f96-3a4e-4897-917a-9b01dc3393bc"
      },
      "date": "2021-05-11T08:53:28+00:00",
      "author": [ {
        "reference": "urn:uuid:3e491ae5-7cc1-45e8-8217-3dfcc485ba01"
      } ],
      "title": "111 Report",
      "confidentiality": "R",
      "section": [ {
        "section": [ {
          "title": "Patient's Reported Condition",
          "text": {
            "status": "generated",
            "div": "<div xmlns=\"http://www.w3.org/1999/xhtml\">&lt;content&gt;&amp;lt;CLEO Ref: 2100310382&amp;gt; Test Call for DX06.\n                                                        &lt;br/&gt;\n                                                    &lt;/content&gt;</div>"
          }
        }, {
          "title": "Pathways Disposition",
          "text": {
            "status": "generated",
            "div": "<div xmlns=\"http://www.w3.org/1999/xhtml\">&lt;content&gt;The individual needs to contact a local service within 6 hours. (Dx06)&lt;/content&gt;\n                                                    &lt;br/&gt;\n                                                    &lt;br/&gt;\n                                                    &lt;content&gt;Selected Service: 1335970392, Out of Hours GP Service (Waveney) - Kirkley Mill Health Centre, Lowestoft, 111&lt;/content&gt;\n                                                    &lt;br/&gt;</div>"
          }
        }, {
          "title": "Consultation Summary",
          "text": {
            "status": "generated",
            "div": "<div xmlns=\"http://www.w3.org/1999/xhtml\">&lt;content&gt;\n                                                        &lt;content&gt;Constant pain for more than 4 hours&lt;/content&gt;\n                                                        &lt;br/&gt;\n                                                        &lt;content&gt;Warm to touch&lt;/content&gt;\n                                                        &lt;br/&gt;\n                                                        &lt;content&gt;Illness - Test&lt;/content&gt;\n                                                        &lt;br/&gt;\n                                                    &lt;/content&gt;</div>"
          }
        }, {
          "title": "Pathways Assessment",
          "text": {
            "status": "generated",
            "div": "<div xmlns=\"http://www.w3.org/1999/xhtml\">&lt;content&gt;An injury or health problem was the reason for the contact.&lt;/content&gt;\n                                                    &lt;br/&gt;\n                                                    &lt;content&gt;Heavy bleeding had not occurred in the previous 2 hours.&lt;/content&gt;\n                                                    &lt;br/&gt;\n                                                    &lt;content&gt;An illness or health problem was the main problem. - Test&lt;/content&gt;\n                                                    &lt;br/&gt;\n                                                    &lt;content&gt;The individual was not fighting for breath.&lt;/content&gt;\n                                                    &lt;br/&gt;\n                                                    &lt;content&gt;The main reason for the assessment was not an allergic reaction, heart attack, chest/upper back pain, probable stroke, recent fit/seizure or suicide attempt.&lt;/content&gt;\n                                                    &lt;br/&gt;\n                                                    &lt;content&gt;The main reason for contact was not new confusion, declared diabetic hypo/hyperglycaemia, or ICD shock.&lt;/content&gt;\n                                                    &lt;br/&gt;\n                                                    &lt;content&gt;The skin on the torso felt normal, warm or hot.&lt;/content&gt;\n                                                    &lt;br/&gt;\n                                                    &lt;content&gt;There was no vomiting, diarrhoea, rectal bleeding, groin pain or groin swelling.&lt;/content&gt;\n                                                    &lt;br/&gt;\n                                                    &lt;content&gt;There was no new genital pain or swelling.&lt;/content&gt;\n                                                    &lt;br/&gt;\n                                                    &lt;content&gt;The individual was able to carry out most or all normal activities.&lt;/content&gt;\n                                                    &lt;br/&gt;\n                                                    &lt;content&gt;There was no crushing or severe aching chest, upper back or upper abdominal pain, or pain going to the arm, neck, jaw or shoulder.&lt;/content&gt;\n                                                    &lt;br/&gt;\n                                                    &lt;content&gt;The individual had not ingested a harmful or toxic substance.&lt;/content&gt;\n                                                    &lt;br/&gt;\n                                                    &lt;content&gt;There had been no black and tarry or red/maroon bowel motions.&lt;/content&gt;\n                                                    &lt;br/&gt;\n                                                    &lt;content&gt;There was no new or worsening confusion.&lt;/content&gt;\n                                                    &lt;br/&gt;\n                                                    &lt;content&gt;Breathing harder or faster when doing nothing was not described.&lt;/content&gt;\n                                                    &lt;br/&gt;\n                                                    &lt;content&gt;There was no new shoulder tip pain or pain in the lower right abdomen.&lt;/content&gt;\n                                                    &lt;br/&gt;\n                                                    &lt;content&gt;The individual did not use anticoagulant medication or have a bleeding/clotting disorder.&lt;/content&gt;\n                                                    &lt;br/&gt;\n                                                    &lt;content&gt;There was constant pain for 4 hours or more.&lt;/content&gt;\n                                                    &lt;br/&gt;</div>"
          }
        }, {
          "title": "Advice Given",
          "text": {
            "status": "generated",
            "div": "<div xmlns=\"http://www.w3.org/1999/xhtml\">&lt;content&gt;Unless advised not to, paracetamol may be used to relieve pain or fever. Follow the instructions in the pack. If in doubt ask a pharmacist.&lt;/content&gt;\n                                                    &lt;br/&gt;\n                                                    &lt;content&gt;Don't use ibuprofen or any other anti-inflammatory medication until you have spoken to a healthcare professional.&lt;/content&gt;\n                                                    &lt;br/&gt;\n                                                    &lt;content&gt;If there are any new symptoms, or if the condition gets worse, changes or you have any other concerns, call us back.&lt;/content&gt;\n                                                    &lt;br/&gt;\n                                                    &lt;content&gt;Remember to take a list of any current medications if you go to the out of hours surgery.&lt;/content&gt;\n                                                    &lt;br/&gt;</div>"
          }
        }, {
          "title": "SCR Consent",
          "text": {
            "status": "generated",
            "div": "<div xmlns=\"http://www.w3.org/1999/xhtml\">&lt;content&gt;Consent given for SCR sharing\n                                                        &lt;br/&gt;\n                                                        &lt;br/&gt;\n                                                    &lt;/content&gt;</div>"
          }
        } ]
      }, {
        "title": "ReferralRequest",
        "entry": [ {
          "reference": "urn:uuid:59d82e60-62d2-460b-8034-5e8d7ce1db15"
        } ]
      } ]
    }
  }, {
    "fullUrl": "urn:uuid:247d9f91-6eec-4f6d-8eda-4f8433366280",
    "resource": {
      "resourceType": "Consent",
      "id": "247d9f91-6eec-4f6d-8eda-4f8433366280",
      "identifier": {
        "use": "usual",
        "value": "192F7989-BE74-4F5C-AA94-FC0778DAC8AA"
      },
      "status": "active",
      "patient": {
        "reference": "urn:uuid:2c355f5e-322e-496f-a382-cec65a82cb57"
      },
      "period": {
        "start": "2021-05-11T08:49:11+00:00",
        "end": "2021-05-11T08:53:28+00:00"
      },
      "consentingParty": [ {
        "reference": "urn:uuid:2c355f5e-322e-496f-a382-cec65a82cb57"
      } ],
      "action": [ {
        "coding": [ {
          "system": "http://snomed.info/sct",
          "code": "425691002",
          "display": "Consent given for electronic record sharing"
        } ],
        "text": "Consent given for electronic record sharing"
      } ],
      "organization": [ {
        "reference": "urn:uuid:feb12f59-4a82-4d61-b8e0-cfe882d4c184"
      } ],
      "policyRule": "http://hl7.org/fhir/ConsentPolicy/opt-out",
      "data": [ {
        "meaning": "related",
        "reference": {
          "reference": "urn:uuid:378e4f96-3a4e-4897-917a-9b01dc3393bc"
        }
      } ]
    }
  }, {
    "fullUrl": "urn:uuid:3e0eaca3-134b-4af6-9564-e368b4189a13",
    "resource": {
      "resourceType": "Condition",
      "id": "3e0eaca3-134b-4af6-9564-e368b4189a13",
      "clinicalStatus": "active",
      "verificationStatus": "unknown",
      "subject": {
        "reference": "urn:uuid:2c355f5e-322e-496f-a382-cec65a82cb57"
      },
      "context": {
        "reference": "urn:uuid:378e4f96-3a4e-4897-917a-9b01dc3393bc"
      }
    }
  }, {
    "fullUrl": "urn:uuid:7055c101-68a1-44b2-96e7-a26c067ff432",
    "resource": {
      "resourceType": "Observation",
      "id": "7055c101-68a1-44b2-96e7-a26c067ff432",
      "status": "final",
      "code": {
        "coding": [ {
          "system": "http://snomed.info/sct",
          "code": "33962009",
          "display": "Presenting complaint"
        } ]
      },
      "subject": {
        "reference": "urn:uuid:2c355f5e-322e-496f-a382-cec65a82cb57"
      },
      "context": {
        "reference": "urn:uuid:378e4f96-3a4e-4897-917a-9b01dc3393bc"
      },
      "valueString": "<CLEO Ref: 2100310382> Test Call for DX06.\n                                                        "
    }
  }, {
    "fullUrl": "urn:uuid:a4256156-87c2-4d42-9957-d697a1af3ca7",
    "resource": {
      "resourceType": "PractitionerRole",
      "id": "a4256156-87c2-4d42-9957-d697a1af3ca7",
      "practitioner": {
        "reference": "urn:uuid:3e491ae5-7cc1-45e8-8217-3dfcc485ba01"
      },
      "organization": {
        "reference": "urn:uuid:3310185d-3a28-4d0b-b3b6-20ac5210ae9e"
      },
      "code": [ {
        "coding": [ {
          "system": "2.16.840.1.113883.2.1.3.2.4.17.196",
          "code": "NR1690",
          "display": "Call Operator"
        } ]
      } ]
    }
  }, {
    "fullUrl": "urn:uuid:3310185d-3a28-4d0b-b3b6-20ac5210ae9e",
    "resource": {
      "resourceType": "Organization",
      "id": "3310185d-3a28-4d0b-b3b6-20ac5210ae9e",
      "identifier": [ {
        "value": "NTN08"
      } ],
      "name": "Norfolk and Wisbech 111"
    }
  }, {
    "fullUrl": "urn:uuid:ff687b28-c29a-46f3-85f0-7cb450f603e1",
    "resource": {
      "resourceType": "RelatedPerson",
      "id": "ff687b28-c29a-46f3-85f0-7cb450f603e1",
      "patient": {
        "reference": "urn:uuid:2c355f5e-322e-496f-a382-cec65a82cb57"
      },
      "relationship": {
        "coding": [ {
          "system": "http://hl7.org/fhir/v2/0131",
          "code": "C",
          "display": "Emergency Contact"
        } ]
      },
      "telecom": [ {
        "system": "phone",
        "value": "tel:01233123123"
      } ]
    }
  }, {
    "fullUrl": "urn:uuid:e99c21c1-99fd-4ef7-b675-81dbd2564ac5",
    "resource": {
      "resourceType": "Device",
      "id": "e99c21c1-99fd-4ef7-b675-81dbd2564ac5",
      "model": "111 Adaptor",
      "version": "1.0.1"
    }
  }, {
    "fullUrl": "urn:uuid:32da2c6b-7670-4c17-8ce7-617549df2412",
    "resource": {
      "resourceType": "List",
      "id": "32da2c6b-7670-4c17-8ce7-617549df2412",
      "status": "current",
      "mode": "working",
      "title": "111 Report List",
      "code": {
        "coding": [ {
          "system": "http://snomed.info/sct",
          "code": "225390008",
          "display": "Triage"
        } ]
      },
      "subject": {
        "reference": "urn:uuid:2c355f5e-322e-496f-a382-cec65a82cb57"
      },
      "encounter": {
        "reference": "urn:uuid:378e4f96-3a4e-4897-917a-9b01dc3393bc"
      },
      "date": "2021-05-11T08:53:28+00:00",
      "source": {
        "reference": "urn:uuid:e99c21c1-99fd-4ef7-b675-81dbd2564ac5"
      },
      "orderedBy": {
        "coding": [ {
          "system": "http://hl7.org/fhir/list-order",
          "code": "event-date",
          "display": "Sorted by Event Date"
        } ]
      },
      "entry": [ {
        "item": {
          "reference": "urn:uuid:3e491ae5-7cc1-45e8-8217-3dfcc485ba01"
        }
      }, {
        "item": {
          "reference": "urn:uuid:84a96b75-559a-4756-a77c-c6cb4e231bd6"
        }
      }, {
        "item": {
          "reference": "urn:uuid:ff687b28-c29a-46f3-85f0-7cb450f603e1"
        }
      }, {
        "item": {
          "reference": "urn:uuid:0cd2d6b3-2467-4b6b-a649-008eb8b0d571"
        }
      }, {
        "item": {
          "reference": "urn:uuid:f24f6314-b79a-4ac9-97fc-e5e90823aa99"
        }
      }, {
        "item": {
          "reference": "urn:uuid:31a376a4-df5d-4b54-91bf-cf0b9e891737"
        }
      }, {
        "item": {
          "reference": "urn:uuid:feb12f59-4a82-4d61-b8e0-cfe882d4c184"
        }
      }, {
        "item": {
          "reference": "urn:uuid:3e0eaca3-134b-4af6-9564-e368b4189a13"
        }
      }, {
        "item": {
          "reference": "urn:uuid:3310185d-3a28-4d0b-b3b6-20ac5210ae9e"
        }
      }, {
        "item": {
          "reference": "urn:uuid:7055c101-68a1-44b2-96e7-a26c067ff432"
        }
      }, {
        "item": {
          "reference": "urn:uuid:67e2e83c-3c6e-4dc1-a8df-a2f60e81f00d"
        }
      }, {
        "item": {
          "reference": "urn:uuid:59d82e60-62d2-460b-8034-5e8d7ce1db15"
        }
      } ]
    }
  } ]
}