{
    "resourceType": "Bundle",
    "identifier": {
        "type": {
            "text": "ClinicalDocument VersionNumber"
        },
        "value": "1"
    },
    "type": "message",
    "entry": [
        {
            "fullUrl": "urn:uuid:4A4DE551-F585-49BB-A1D3-12DCC764AF52",
            "resource": {
                "resourceType": "MessageHeader",
                "id": "4A4DE551-F585-49BB-A1D3-12DCC764AF52",
                "event": {
                    "system": "https://fhir.nhs.uk/STU3/CodeSystem/EventType-1",
                    "code": "referral-1",
                    "display": "Referral"
                },
                "destination": [
                    {
                        "endpoint": "urn:nhs-uk:addressing:ods:NVE06:DOSServiceID:1335970392"
                    }
                ],
                "timestamp": "2021-05-11T08:58:52.000+00:00",
                "source": {
                    "name": "NHS 111 Adaptor",
                    "endpoint": "http://localhost:8080/report"
                },
                "reason": {
                    "coding": [
                        {
                            "system": "urn:nhs-itk:ns:201005:interaction",
                            "code": "urn:nhs-itk:interaction:primaryOutofHourRecipientNHS111CDADocument-v2-0"
                        }
                    ]
                }
            }
        },
        {
            "fullUrl": "urn:uuid:43c0f51c-2c89-45bb-935f-fc80fed7327b",
            "resource": {
                "resourceType": "Encounter",
                "id": "43c0f51c-2c89-45bb-935f-fc80fed7327b",
                "identifier": [
                    {
                        "system": "2.16.840.1.113883.2.1.3.2.4.18.34",
                        "value": "D21E3785-658E-4B35-A8B2-2E59906B8983"
                    },
                    {
                        "system": "2.16.840.1.113883.2.1.3.2.4.18.35",
                        "value": "2100310384"
                    }
                ],
                "status": "finished",
                "type": [
                    {
                        "text": "111 Encounter Referral"
                    }
                ],
                "subject": {
                    "reference": "urn:uuid:a8eb9f22-3262-45eb-85ed-1507078db6f6"
                },
                "participant": [
                    {
                        "type": [
                            {
                                "coding": [
                                    {
                                        "system": "http://hl7.org/fhir/ValueSet/encounter-participant-type",
                                        "code": "PPRF",
                                        "display": "Author"
                                    }
                                ]
                            }
                        ],
                        "individual": {
                            "reference": "urn:uuid:b3a3dd3e-d729-42c7-a960-666964f468b8"
                        }
                    },
                    {
                        "type": [
                            {
                                "text": "Informant"
                            }
                        ],
                        "individual": {
                            "reference": "urn:uuid:f3cf56b4-373f-4687-a2de-1facfbf7acdd"
                        }
                    }
                ],
                "period": {
                    "start": "2021-05-11T08:58:52+00:00"
                },
                "location": [
                    {
                        "location": {
                            "reference": "urn:uuid:e0543514-65ae-426c-846f-fb04eb06e040"
                        },
                        "status": "active"
                    },
                    {
                        "location": {
                            "reference": "urn:uuid:73d0a651-857a-4b18-a5c3-829a33fac78b"
                        },
                        "status": "completed"
                    }
                ],
                "serviceProvider": {
                    "reference": "urn:uuid:07a69eb0-cb70-404f-9fee-5182c4bd52c0"
                }
            }
        },
        {
            "fullUrl": "urn:uuid:07a69eb0-cb70-404f-9fee-5182c4bd52c0",
            "resource": {
                "resourceType": "Organization",
                "id": "07a69eb0-cb70-404f-9fee-5182c4bd52c0",
                "active": true,
                "type": [
                    {
                        "text": "CST"
                    }
                ],
                "name": "Norfolk and Wisbech 111"
            }
        },
        {
            "fullUrl": "urn:uuid:b3a3dd3e-d729-42c7-a960-666964f468b8",
            "resource": {
                "resourceType": "Practitioner",
                "id": "b3a3dd3e-d729-42c7-a960-666964f468b8",
                "active": true,
                "name": [
                    {
                        "text": "Ben Smythson"
                    }
                ]
            }
        },
        {
            "fullUrl": "urn:uuid:f3cf56b4-373f-4687-a2de-1facfbf7acdd",
            "resource": {
                "resourceType": "RelatedPerson",
                "id": "f3cf56b4-373f-4687-a2de-1facfbf7acdd",
                "active": true,
                "patient": {
                    "reference": "urn:uuid:a8eb9f22-3262-45eb-85ed-1507078db6f6"
                },
                "relationship": {
                    "coding": [
                        {
                            "system": "2.16.840.1.113883.2.1.3.2.4.16.45",
                            "code": "21",
                            "display": "Self"
                        },
                        {
                            "system": "http://hl7.org/fhir/v2/0131",
                            "code": "C",
                            "display": "Emergency Contact"
                        }
                    ]
                },
                "name": [
                    {
                        "text": "Test Call TEST CALL DX07"
                    }
                ],
                "telecom": [
                    {
                        "system": "phone",
                        "value": "tel:01233123123"
                    }
                ],
                "gender": "unknown"
            }
        },
        {
            "fullUrl": "urn:uuid:e0543514-65ae-426c-846f-fb04eb06e040",
            "resource": {
                "resourceType": "Location",
                "id": "e0543514-65ae-426c-846f-fb04eb06e040",
                "managingOrganization": {
                    "reference": "urn:uuid:f3c18f5a-c404-4a68-a03f-da09cd36e2d5"
                }
            }
        },
        {
            "fullUrl": "urn:uuid:f3c18f5a-c404-4a68-a03f-da09cd36e2d5",
            "resource": {
                "resourceType": "Organization",
                "id": "f3c18f5a-c404-4a68-a03f-da09cd36e2d5",
                "identifier": [
                    {
                        "value": "Z10000"
                    }
                ],
                "type": [
                    {
                        "text": "GP Practice"
                    }
                ],
                "name": "UNKNOWN"
            }
        },
        {
            "fullUrl": "urn:uuid:73d0a651-857a-4b18-a5c3-829a33fac78b",
            "resource": {
                "resourceType": "Location",
                "id": "73d0a651-857a-4b18-a5c3-829a33fac78b",
                "address": {
                    "type": "physical",
                    "line": [
                        "313 VICTORIA ROAD",
                        "LOWESTOFT"
                    ],
                    "postalCode": "NR33 9LS"
                }
            }
        },
        {
            "fullUrl": "urn:uuid:a8eb9f22-3262-45eb-85ed-1507078db6f6",
            "resource": {
                "resourceType": "Patient",
                "id": "a8eb9f22-3262-45eb-85ed-1507078db6f6",
                "language": "en",
                "active": true,
                "name": [
                    {
                        "use": "official",
                        "family": "TEST CALL DX07",
                        "given": [
                            "Test Call"
                        ]
                    }
                ],
                "telecom": [
                    {
                        "system": "phone",
                        "value": "tel:01233123123"
                    }
                ],
                "gender": "male",
                "birthDate": "1996-03-25",
                "address": [
                    {
                        "use": "home",
                        "line": [
                            "313 VICTORIA ROAD",
                            "LOWESTOFT"
                        ],
                        "postalCode": "NR33 9LS"
                    },
                    {
                        "type": "physical",
                        "line": [
                            "313 VICTORIA ROAD",
                            "LOWESTOFT"
                        ],
                        "postalCode": "NR33 9LS"
                    }
                ],
                "generalPractitioner": [
                    {
                        "reference": "urn:uuid:ff134b77-aadd-4a95-ab49-c106909c33b1"
                    }
                ]
            }
        },
        {
            "fullUrl": "urn:uuid:ff134b77-aadd-4a95-ab49-c106909c33b1",
            "resource": {
                "resourceType": "Organization",
                "id": "ff134b77-aadd-4a95-ab49-c106909c33b1",
                "identifier": [
                    {
                        "value": "Z10000"
                    }
                ],
                "type": [
                    {
                        "text": "GP Practice"
                    }
                ],
                "name": "UNKNOWN"
            }
        },
        {
            "fullUrl": "urn:uuid:120137c6-5176-437a-aa12-2edfd0d16b2b",
            "resource": {
                "resourceType": "HealthcareService",
                "id": "120137c6-5176-437a-aa12-2edfd0d16b2b",
                "active": true,
                "providedBy": {
                    "reference": "urn:uuid:13f1c29c-3222-4119-88b2-7c0413c6457f"
                },
                "location": [
                    {
                        "reference": "urn:uuid:15d8f33a-eb68-4a18-9684-ef7598f4b66b"
                    }
                ],
                "name": "Out of Hours GP Service (Waveney) - Kirkley Mill Health Centre, Lowestoft"
            }
        },
        {
            "fullUrl": "urn:uuid:15d8f33a-eb68-4a18-9684-ef7598f4b66b",
            "resource": {
                "resourceType": "Location",
                "id": "15d8f33a-eb68-4a18-9684-ef7598f4b66b",
                "managingOrganization": {
                    "reference": "urn:uuid:13f1c29c-3222-4119-88b2-7c0413c6457f"
                }
            }
        },
        {
            "fullUrl": "urn:uuid:13f1c29c-3222-4119-88b2-7c0413c6457f",
            "resource": {
                "resourceType": "Organization",
                "id": "13f1c29c-3222-4119-88b2-7c0413c6457f",
                "identifier": [
                    {
                        "value": "NVE06"
                    }
                ],
                "type": [
                    {
                        "coding": [
                            {
                                "code": "PRCP",
                                "display": "Out of Hours GP Service (Waveney) - Kirkley Mill Health Centre, Lowestoft"
                            }
                        ]
                    }
                ],
                "name": "Out of Hours GP Service (Waveney) - Kirkley Mill Health Centre, Lowestoft"
            }
        },
        {
            "fullUrl": "urn:uuid:013a73fc-3c68-4aeb-b4f7-fc290615a143",
            "resource": {
                "resourceType": "ReferralRequest",
                "id": "013a73fc-3c68-4aeb-b4f7-fc290615a143",
                "status": "active",
                "intent": "plan",
                "priority": "routine",
                "subject": {
                    "reference": "urn:uuid:a8eb9f22-3262-45eb-85ed-1507078db6f6"
                },
                "context": {
                    "reference": "urn:uuid:43c0f51c-2c89-45bb-935f-fc80fed7327b"
                },
                "occurrencePeriod": {
                    "start": "2021-09-12T20:48:49+00:00",
                    "end": "2021-09-12T21:48:49+00:00"
                },
                "authoredOn": "2021-05-11T08:58:52+00:00",
                "requester": {
                    "agent": {
                        "reference": "urn:uuid:ff5c3006-0a6c-4682-b56b-e63b46949fa0"
                    },
                    "onBehalfOf": {
                        "reference": "urn:uuid:07a69eb0-cb70-404f-9fee-5182c4bd52c0"
                    }
                },
                "recipient": [
                    {
                        "reference": "urn:uuid:33e01437-d96b-4d9b-9ab4-43e9fa10b8a8"
                    },
                    {
                        "reference": "urn:uuid:120137c6-5176-437a-aa12-2edfd0d16b2b"
                    }
                ],
                "reasonReference": [
                    {
                        "reference": "urn:uuid:42e1513d-a70a-4db5-bebe-8a19a8e75a00"
                    }
                ],
                "supportingInfo": [
                    {
                        "reference": "urn:uuid:e4ed33c6-c054-4d85-8d14-ed0c07c03228"
                    }
                ]
            }
        },
        {
            "fullUrl": "urn:uuid:e4ed33c6-c054-4d85-8d14-ed0c07c03228",
            "resource": {
                "resourceType": "ProcedureRequest",
                "id": "e4ed33c6-c054-4d85-8d14-ed0c07c03228",
                "status": "active",
                "intent": "plan",
                "priority": "routine",
                "doNotPerform": false,
                "code": {
                    "coding": [
                        {
                            "system": "2.16.840.1.113883.2.1.3.2.4.17.325",
                            "code": "Dx07",
                            "display": "To contact a local service within 12 hours"
                        }
                    ]
                },
                "subject": {
                    "reference": "urn:uuid:a8eb9f22-3262-45eb-85ed-1507078db6f6"
                },
                "occurrencePeriod": {
                    "start": "2021-09-12T20:48:49+00:00",
                    "end": "2021-09-12T21:48:49+00:00"
                },
                "reasonReference": [
                    {
                        "reference": "urn:uuid:42e1513d-a70a-4db5-bebe-8a19a8e75a00"
                    }
                ]
            }
        },
        {
            "fullUrl": "urn:uuid:33e01437-d96b-4d9b-9ab4-43e9fa10b8a8",
            "resource": {
                "resourceType": "Practitioner",
                "id": "33e01437-d96b-4d9b-9ab4-43e9fa10b8a8",
                "active": true,
                "telecom": [
                    {
                        "system": "phone",
                        "value": "tel:01233505450"
                    }
                ],
                "address": [
                    {
                        "type": "physical",
                        "line": [
                            "Kingston House",
                            "The Long Barrow",
                            "Orbital Park",
                            "Ashford",
                            "Kent"
                        ],
                        "postalCode": "TN24 0GP"
                    }
                ]
            }
        },
        {
            "fullUrl": "urn:uuid:bdaf78c1-3fe9-41a7-b6fd-4b35a1171be2",
            "resource": {
                "resourceType": "Composition",
                "id": "bdaf78c1-3fe9-41a7-b6fd-4b35a1171be2",
                "identifier": {
                    "use": "usual",
                    "value": "B172BCF7-DD1C-4508-B781-6BE68ABD1F79"
                },
                "status": "final",
                "type": {
                    "coding": [
                        {
                            "system": "http://snomed.info/sct",
                            "code": "371531000",
                            "display": "Report of clinical encounter (record artifact)"
                        }
                    ]
                },
                "subject": {
                    "reference": "urn:uuid:a8eb9f22-3262-45eb-85ed-1507078db6f6"
                },
                "encounter": {
                    "reference": "urn:uuid:43c0f51c-2c89-45bb-935f-fc80fed7327b"
                },
                "date": "2021-09-12T20:48:49+00:00",
                "author": [
                    {
                        "reference": "urn:uuid:b3a3dd3e-d729-42c7-a960-666964f468b8"
                    }
                ],
                "title": "111 Report",
                "confidentiality": "R",
                "section": [
                    {
                        "section": [
                            {
                                "title": "Patient's Reported Condition",
                                "text": {
                                    "status": "generated",
                                    "div": "<div xmlns=\"http://www.w3.org/1999/xhtml\">&lt;xml-fragment mediaType=&quot;text/x-hl7-text+xml&quot; xmlns:xsd=&quot;http://www.w3.org/2001/XMLSchema&quot; xmlns:xsi=&quot;http://www.w3.org/2001/XMLSchema-instance&quot;&gt;\n                                                    &lt;urn:content xmlns:urn=&quot;urn:hl7-org:v3&quot;&gt;&amp;lt;CLEO Ref: 2100310384&gt; Test Call for Dx07.\n                                                        &lt;urn:br/&gt;\n                                                    &lt;/urn:content&gt;\n                                                &lt;/xml-fragment&gt;</div>"
                                }
                            },
                            {
                                "title": "Pathways Disposition",
                                "text": {
                                    "status": "generated",
                                    "div": "<div xmlns=\"http://www.w3.org/1999/xhtml\">&lt;xml-fragment mediaType=&quot;text/x-hl7-text+xml&quot; xmlns:xsd=&quot;http://www.w3.org/2001/XMLSchema&quot; xmlns:xsi=&quot;http://www.w3.org/2001/XMLSchema-instance&quot;&gt;\n                                                    &lt;urn:content xmlns:urn=&quot;urn:hl7-org:v3&quot;&gt;The individual needs to contact a local service within 12 hours. (Dx07)&lt;/urn:content&gt;\n                                                    &lt;urn:br xmlns:urn=&quot;urn:hl7-org:v3&quot;/&gt;\n                                                    &lt;urn:br xmlns:urn=&quot;urn:hl7-org:v3&quot;/&gt;\n                                                    &lt;urn:content xmlns:urn=&quot;urn:hl7-org:v3&quot;&gt;Selected Service: 1335970392, Out of Hours GP Service (Waveney) - Kirkley Mill Health Centre, Lowestoft, 111&lt;/urn:content&gt;\n                                                    &lt;urn:br xmlns:urn=&quot;urn:hl7-org:v3&quot;/&gt;\n                                                &lt;/xml-fragment&gt;</div>"
                                }
                            },
                            {
                                "title": "Consultation Summary",
                                "text": {
                                    "status": "generated",
                                    "div": "<div xmlns=\"http://www.w3.org/1999/xhtml\">&lt;xml-fragment mediaType=&quot;text/x-hl7-text+xml&quot; xmlns:xsd=&quot;http://www.w3.org/2001/XMLSchema&quot; xmlns:xsi=&quot;http://www.w3.org/2001/XMLSchema-instance&quot;&gt;\n                                                    &lt;urn:content xmlns:urn=&quot;urn:hl7-org:v3&quot;&gt;\n                                                        &lt;urn:content&gt;Excessive thirst in last 4 weeks&lt;/urn:content&gt;\n                                                        &lt;urn:br/&gt;\n                                                        &lt;urn:content&gt;Warm to touch&lt;/urn:content&gt;\n                                                        &lt;urn:br/&gt;\n                                                        &lt;urn:content&gt;Illness - Test&lt;/urn:content&gt;\n                                                        &lt;urn:br/&gt;\n                                                    &lt;/urn:content&gt;\n                                                &lt;/xml-fragment&gt;</div>"
                                }
                            },
                            {
                                "title": "Pathways Assessment",
                                "text": {
                                    "status": "generated",
                                    "div": "<div xmlns=\"http://www.w3.org/1999/xhtml\">&lt;xml-fragment mediaType=&quot;text/x-hl7-text+xml&quot; xmlns:xsd=&quot;http://www.w3.org/2001/XMLSchema&quot; xmlns:xsi=&quot;http://www.w3.org/2001/XMLSchema-instance&quot;&gt;\n                                                    &lt;urn:content xmlns:urn=&quot;urn:hl7-org:v3&quot;&gt;An injury or health problem was the reason for the contact.&lt;/urn:content&gt;\n                                                    &lt;urn:br xmlns:urn=&quot;urn:hl7-org:v3&quot;/&gt;\n                                                    &lt;urn:content xmlns:urn=&quot;urn:hl7-org:v3&quot;&gt;Heavy bleeding had not occurred in the previous 2 hours.&lt;/urn:content&gt;\n                                                    &lt;urn:br xmlns:urn=&quot;urn:hl7-org:v3&quot;/&gt;\n                                                    &lt;urn:content xmlns:urn=&quot;urn:hl7-org:v3&quot;&gt;An illness or health problem was the main problem. - Test&lt;/urn:content&gt;\n                                                    &lt;urn:br xmlns:urn=&quot;urn:hl7-org:v3&quot;/&gt;\n                                                    &lt;urn:content xmlns:urn=&quot;urn:hl7-org:v3&quot;&gt;The individual was not fighting for breath.&lt;/urn:content&gt;\n                                                    &lt;urn:br xmlns:urn=&quot;urn:hl7-org:v3&quot;/&gt;\n                                                    &lt;urn:content xmlns:urn=&quot;urn:hl7-org:v3&quot;&gt;The main reason for the assessment was not an allergic reaction, heart attack, chest/upper back pain, probable stroke, recent fit/seizure or suicide attempt.&lt;/urn:content&gt;\n                                                    &lt;urn:br xmlns:urn=&quot;urn:hl7-org:v3&quot;/&gt;\n                                                    &lt;urn:content xmlns:urn=&quot;urn:hl7-org:v3&quot;&gt;The main reason for contact was not new confusion, declared diabetic hypo/hyperglycaemia, or ICD shock.&lt;/urn:content&gt;\n                                                    &lt;urn:br xmlns:urn=&quot;urn:hl7-org:v3&quot;/&gt;\n                                                    &lt;urn:content xmlns:urn=&quot;urn:hl7-org:v3&quot;&gt;The skin on the torso felt normal, warm or hot.&lt;/urn:content&gt;\n                                                    &lt;urn:br xmlns:urn=&quot;urn:hl7-org:v3&quot;/&gt;\n                                                    &lt;urn:content xmlns:urn=&quot;urn:hl7-org:v3&quot;&gt;There was no vomiting, diarrhoea, rectal bleeding, groin pain or groin swelling.&lt;/urn:content&gt;\n                                                    &lt;urn:br xmlns:urn=&quot;urn:hl7-org:v3&quot;/&gt;\n                                                    &lt;urn:content xmlns:urn=&quot;urn:hl7-org:v3&quot;&gt;There was no new genital pain or swelling.&lt;/urn:content&gt;\n                                                    &lt;urn:br xmlns:urn=&quot;urn:hl7-org:v3&quot;/&gt;\n                                                    &lt;urn:content xmlns:urn=&quot;urn:hl7-org:v3&quot;&gt;The individual was able to carry out most or all normal activities.&lt;/urn:content&gt;\n                                                    &lt;urn:br xmlns:urn=&quot;urn:hl7-org:v3&quot;/&gt;\n                                                    &lt;urn:content xmlns:urn=&quot;urn:hl7-org:v3&quot;&gt;There was no crushing or severe aching chest, upper back or upper abdominal pain, or pain going to the arm, neck, jaw or shoulder.&lt;/urn:content&gt;\n                                                    &lt;urn:br xmlns:urn=&quot;urn:hl7-org:v3&quot;/&gt;\n                                                    &lt;urn:content xmlns:urn=&quot;urn:hl7-org:v3&quot;&gt;The individual had not ingested a harmful or toxic substance.&lt;/urn:content&gt;\n                                                    &lt;urn:br xmlns:urn=&quot;urn:hl7-org:v3&quot;/&gt;\n                                                    &lt;urn:content xmlns:urn=&quot;urn:hl7-org:v3&quot;&gt;There had been no black and tarry or red/maroon bowel motions.&lt;/urn:content&gt;\n                                                    &lt;urn:br xmlns:urn=&quot;urn:hl7-org:v3&quot;/&gt;\n                                                    &lt;urn:content xmlns:urn=&quot;urn:hl7-org:v3&quot;&gt;There was no new or worsening confusion.&lt;/urn:content&gt;\n                                                    &lt;urn:br xmlns:urn=&quot;urn:hl7-org:v3&quot;/&gt;\n                                                    &lt;urn:content xmlns:urn=&quot;urn:hl7-org:v3&quot;&gt;Breathing harder or faster when doing nothing was not described.&lt;/urn:content&gt;\n                                                    &lt;urn:br xmlns:urn=&quot;urn:hl7-org:v3&quot;/&gt;\n                                                    &lt;urn:content xmlns:urn=&quot;urn:hl7-org:v3&quot;&gt;There was no new shoulder tip pain or pain in the lower right abdomen.&lt;/urn:content&gt;\n                                                    &lt;urn:br xmlns:urn=&quot;urn:hl7-org:v3&quot;/&gt;\n                                                    &lt;urn:content xmlns:urn=&quot;urn:hl7-org:v3&quot;&gt;The individual did not use anticoagulant medication or have a bleeding/clotting disorder.&lt;/urn:content&gt;\n                                                    &lt;urn:br xmlns:urn=&quot;urn:hl7-org:v3&quot;/&gt;\n                                                    &lt;urn:content xmlns:urn=&quot;urn:hl7-org:v3&quot;&gt;The individual had not been in constant pain for 4 hours or more.&lt;/urn:content&gt;\n                                                    &lt;urn:br xmlns:urn=&quot;urn:hl7-org:v3&quot;/&gt;\n                                                    &lt;urn:content xmlns:urn=&quot;urn:hl7-org:v3&quot;&gt;The individual was not jaundiced.&lt;/urn:content&gt;\n                                                    &lt;urn:br xmlns:urn=&quot;urn:hl7-org:v3&quot;/&gt;\n                                                    &lt;urn:content xmlns:urn=&quot;urn:hl7-org:v3&quot;&gt;The individual had experienced extreme thirst during the previous 4 weeks.&lt;/urn:content&gt;\n                                                    &lt;urn:br xmlns:urn=&quot;urn:hl7-org:v3&quot;/&gt;\n                                                &lt;/xml-fragment&gt;</div>"
                                }
                            },
                            {
                                "title": "Advice Given",
                                "text": {
                                    "status": "generated",
                                    "div": "<div xmlns=\"http://www.w3.org/1999/xhtml\">&lt;xml-fragment mediaType=&quot;text/x-hl7-text+xml&quot; xmlns:xsd=&quot;http://www.w3.org/2001/XMLSchema&quot; xmlns:xsi=&quot;http://www.w3.org/2001/XMLSchema-instance&quot;&gt;\n                                                    &lt;urn:content xmlns:urn=&quot;urn:hl7-org:v3&quot;&gt;Unless advised not to, paracetamol may be used to relieve pain or fever. Follow the instructions in the pack. If in doubt ask a pharmacist.&lt;/urn:content&gt;\n                                                    &lt;urn:br xmlns:urn=&quot;urn:hl7-org:v3&quot;/&gt;\n                                                    &lt;urn:content xmlns:urn=&quot;urn:hl7-org:v3&quot;&gt;Don't use ibuprofen or any other anti-inflammatory medication until you have spoken to a healthcare professional.&lt;/urn:content&gt;\n                                                    &lt;urn:br xmlns:urn=&quot;urn:hl7-org:v3&quot;/&gt;\n                                                    &lt;urn:content xmlns:urn=&quot;urn:hl7-org:v3&quot;&gt;If there are any new symptoms, or if the condition gets worse, changes or you have any other concerns, call us back.&lt;/urn:content&gt;\n                                                    &lt;urn:br xmlns:urn=&quot;urn:hl7-org:v3&quot;/&gt;\n                                                    &lt;urn:content xmlns:urn=&quot;urn:hl7-org:v3&quot;&gt;Remember to take a list of any current medications if you go to the out of hours surgery.&lt;/urn:content&gt;\n                                                    &lt;urn:br xmlns:urn=&quot;urn:hl7-org:v3&quot;/&gt;\n                                                &lt;/xml-fragment&gt;</div>"
                                }
                            },
                            {
                                "title": "SCR Consent",
                                "text": {
                                    "status": "generated",
                                    "div": "<div xmlns=\"http://www.w3.org/1999/xhtml\">&lt;xml-fragment mediaType=&quot;text/x-hl7-text+xml&quot; xmlns:xsd=&quot;http://www.w3.org/2001/XMLSchema&quot; xmlns:xsi=&quot;http://www.w3.org/2001/XMLSchema-instance&quot;&gt;\n                                                    &lt;urn:content xmlns:urn=&quot;urn:hl7-org:v3&quot;&gt;Consent given for SCR sharing\n                                                        &lt;urn:br/&gt;\n                                                        &lt;urn:br/&gt;\n                                                    &lt;/urn:content&gt;\n                                                &lt;/xml-fragment&gt;</div>"
                                }
                            }
                        ]
                    },
                    {
                        "title": "ReferralRequest",
                        "entry": [
                            {
                                "reference": "urn:uuid:013a73fc-3c68-4aeb-b4f7-fc290615a143"
                            }
                        ]
                    }
                ]
            }
        },
        {
            "fullUrl": "urn:uuid:7f59dd2d-2101-4fd4-a803-be476120affa",
            "resource": {
                "resourceType": "Consent",
                "id": "7f59dd2d-2101-4fd4-a803-be476120affa",
                "identifier": {
                    "use": "usual",
                    "value": "B172BCF7-DD1C-4508-B781-6BE68ABD1F79"
                },
                "status": "active",
                "patient": {
                    "reference": "urn:uuid:a8eb9f22-3262-45eb-85ed-1507078db6f6"
                },
                "period": {
                    "start": "2021-05-11T08:58:52+00:00"
                },
                "consentingParty": [
                    {
                        "reference": "urn:uuid:a8eb9f22-3262-45eb-85ed-1507078db6f6"
                    }
                ],
                "action": [
                    {
                        "coding": [
                            {
                                "system": "http://snomed.info/sct",
                                "code": "425691002",
                                "display": "Consent given for electronic record sharing"
                            }
                        ],
                        "text": "Consent given for electronic record sharing"
                    }
                ],
                "organization": [
                    {
                        "reference": "urn:uuid:07a69eb0-cb70-404f-9fee-5182c4bd52c0"
                    }
                ],
                "policyRule": "http://hl7.org/fhir/ConsentPolicy/opt-out",
                "data": [
                    {
                        "meaning": "related",
                        "reference": {
                            "reference": "urn:uuid:43c0f51c-2c89-45bb-935f-fc80fed7327b"
                        }
                    }
                ]
            }
        },
        {
            "fullUrl": "urn:uuid:42e1513d-a70a-4db5-bebe-8a19a8e75a00",
            "resource": {
                "resourceType": "Condition",
                "id": "42e1513d-a70a-4db5-bebe-8a19a8e75a00",
                "clinicalStatus": "active",
                "verificationStatus": "unknown",
                "subject": {
                    "reference": "urn:uuid:a8eb9f22-3262-45eb-85ed-1507078db6f6"
                },
                "context": {
                    "reference": "urn:uuid:43c0f51c-2c89-45bb-935f-fc80fed7327b"
                }
            }
        },
        {
            "fullUrl": "urn:uuid:00f133f3-bcfe-4fa5-a5b6-36c663e1cce8",
            "resource": {
                "resourceType": "Observation",
                "id": "00f133f3-bcfe-4fa5-a5b6-36c663e1cce8",
                "status": "final",
                "code": {
                    "coding": [
                        {
                            "system": "http://snomed.info/sct",
                            "code": "33962009",
                            "display": "Presenting complaint"
                        }
                    ]
                },
                "subject": {
                    "reference": "urn:uuid:a8eb9f22-3262-45eb-85ed-1507078db6f6"
                },
                "context": {
                    "reference": "urn:uuid:43c0f51c-2c89-45bb-935f-fc80fed7327b"
                },
                "valueString": "<CLEO Ref: 2100310384> Test Call for Dx07.\n                                                        "
            }
        },
        {
            "fullUrl": "urn:uuid:106c8d23-1467-47e6-bab1-7f66bd33202b",
            "resource": {
                "resourceType": "PractitionerRole",
                "id": "106c8d23-1467-47e6-bab1-7f66bd33202b",
                "practitioner": {
                    "reference": "urn:uuid:b3a3dd3e-d729-42c7-a960-666964f468b8"
                },
                "organization": {
                    "reference": "urn:uuid:9bcaa3fd-bcbf-4e26-be41-098c224508f5"
                },
                "code": [
                    {
                        "coding": [
                            {
                                "system": "2.16.840.1.113883.2.1.3.2.4.17.196",
                                "code": "NR1690",
                                "display": "Call Operator"
                            }
                        ]
                    }
                ]
            }
        },
        {
            "fullUrl": "urn:uuid:9bcaa3fd-bcbf-4e26-be41-098c224508f5",
            "resource": {
                "resourceType": "Organization",
                "id": "9bcaa3fd-bcbf-4e26-be41-098c224508f5",
                "identifier": [
                    {
                        "value": "NTN08"
                    }
                ],
                "name": "Norfolk and Wisbech 111"
            }
        },
        {
            "fullUrl": "urn:uuid:9657cee1-288a-4a1a-841b-7a441e68466e",
            "resource": {
                "resourceType": "RelatedPerson",
                "id": "9657cee1-288a-4a1a-841b-7a441e68466e",
                "patient": {
                    "reference": "urn:uuid:a8eb9f22-3262-45eb-85ed-1507078db6f6"
                },
                "relationship": {
                    "coding": [
                        {
                            "system": "http://hl7.org/fhir/v2/0131",
                            "code": "C",
                            "display": "Emergency Contact"
                        }
                    ]
                },
                "telecom": [
                    {
                        "system": "phone",
                        "value": "tel:01233123123"
                    }
                ]
            }
        },
        {
            "fullUrl": "urn:uuid:ff5c3006-0a6c-4682-b56b-e63b46949fa0",
            "resource": {
                "resourceType": "Device",
                "id": "ff5c3006-0a6c-4682-b56b-e63b46949fa0",
                "model": "111 Adaptor",
                "version": "0.9.0"
            }
        },
        {
            "fullUrl": "urn:uuid:21a767f8-7745-45ee-b674-6dfc3565146a",
            "resource": {
                "resourceType": "List",
                "id": "21a767f8-7745-45ee-b674-6dfc3565146a",
                "status": "current",
                "mode": "working",
                "title": "111 Report List",
                "code": {
                    "coding": [
                        {
                            "system": "http://snomed.info/sct",
                            "code": "225390008",
                            "display": "Triage"
                        }
                    ]
                },
                "subject": {
                    "reference": "urn:uuid:a8eb9f22-3262-45eb-85ed-1507078db6f6"
                },
                "encounter": {
                    "reference": "urn:uuid:43c0f51c-2c89-45bb-935f-fc80fed7327b"
                },
                "date": "2021-09-12T20:48:49+00:00",
                "source": {
                    "reference": "urn:uuid:ff5c3006-0a6c-4682-b56b-e63b46949fa0"
                },
                "orderedBy": {
                    "coding": [
                        {
                            "system": "http://hl7.org/fhir/list-order",
                            "code": "event-date",
                            "display": "Sorted by Event Date"
                        }
                    ]
                },
                "entry": [
                    {
                        "item": {
                            "reference": "urn:uuid:00f133f3-bcfe-4fa5-a5b6-36c663e1cce8"
                        }
                    },
                    {
                        "item": {
                            "reference": "urn:uuid:13f1c29c-3222-4119-88b2-7c0413c6457f"
                        }
                    },
                    {
                        "item": {
                            "reference": "urn:uuid:9bcaa3fd-bcbf-4e26-be41-098c224508f5"
                        }
                    },
                    {
                        "item": {
                            "reference": "urn:uuid:33e01437-d96b-4d9b-9ab4-43e9fa10b8a8"
                        }
                    },
                    {
                        "item": {
                            "reference": "urn:uuid:42e1513d-a70a-4db5-bebe-8a19a8e75a00"
                        }
                    },
                    {
                        "item": {
                            "reference": "urn:uuid:ff134b77-aadd-4a95-ab49-c106909c33b1"
                        }
                    },
                    {
                        "item": {
                            "reference": "urn:uuid:f3cf56b4-373f-4687-a2de-1facfbf7acdd"
                        }
                    },
                    {
                        "item": {
                            "reference": "urn:uuid:f3c18f5a-c404-4a68-a03f-da09cd36e2d5"
                        }
                    },
                    {
                        "item": {
                            "reference": "urn:uuid:9657cee1-288a-4a1a-841b-7a441e68466e"
                        }
                    },
                    {
                        "item": {
                            "reference": "urn:uuid:07a69eb0-cb70-404f-9fee-5182c4bd52c0"
                        }
                    },
                    {
                        "item": {
                            "reference": "urn:uuid:b3a3dd3e-d729-42c7-a960-666964f468b8"
                        }
                    },
                    {
                        "item": {
                            "reference": "urn:uuid:013a73fc-3c68-4aeb-b4f7-fc290615a143"
                        }
                    }
                ]
            }
        }
    ]
}
