{
  "resourceType": "Bundle",
  "meta": {
    "lastUpdated": "2022-05-12T07:25:14.794+00:00"
  },
  "identifier": {
    "type": {
      "text": "ClinicalDocument VersionNumber"
    },
    "value": "2"
  },
  "type": "message",
  "entry": [ {
    "fullUrl": "urn:uuid:2B77B3F5-3016-4A6D-821F-152CE420E58D",
    "resource": {
      "resourceType": "MessageHeader",
      "id": "2B77B3F5-3016-4A6D-821F-152CE420E58D",
      "event": {
        "system": "https://fhir.nhs.uk/STU3/CodeSystem/EventType-1",
        "code": "referral-1",
        "display": "Referral"
      },
      "destination": [ {
        "endpoint": "urn:nhs-uk:addressing:ods:EM396"
      } ],
      "timestamp": "2017-01-01T20:00:00.000+00:00",
      "source": {
        "name": "NHS 111 Adaptor",
        "endpoint": "http://localhost:8080/report"
      },
      "reason": {
        "coding": [ {
          "system": "urn:nhs-itk:ns:201005:interaction",
          "code": "urn:nhs-itk:interaction:primaryEmergencyDepartmentRecipientNHS111CDADocument-v2-0"
        } ]
      }
    }
  }, {
    "fullUrl": "urn:uuid:723ed3c2-e16a-4055-a1de-9064aa563b4f",
    "resource": {
      "resourceType": "Encounter",
      "id": "723ed3c2-e16a-4055-a1de-9064aa563b4f",
      "identifier": [ {
        "system": "2.16.840.1.113883.2.1.3.2.4.18.49",
        "value": "LOC665"
      }, {
        "system": "2.16.840.1.113883.2.1.3.2.4.18.34",
        "value": "CASEREF1234"
      }, {
        "system": "2.16.840.1.113883.2.1.3.2.4.18.35",
        "value": "CASEID123"
      } ],
      "status": "finished",
      "type": [ {
        "text": "111 Encounter Referral"
      } ],
      "subject": {
        "reference": "urn:uuid:f7500efb-86ab-486c-8e3d-1817daa67e3c"
      },
      "participant": [ {
        "type": [ {
          "text": "CALLBCK"
        } ],
        "individual": {
          "reference": "urn:uuid:05c12e65-6863-4d34-8288-75b65afe50af"
        }
      }, {
        "type": [ {
          "coding": [ {
            "system": "http://hl7.org/fhir/ValueSet/encounter-participant-type",
            "code": "PPRF",
            "display": "Author"
          } ]
        } ],
        "individual": {
          "reference": "urn:uuid:14d31d32-ae23-473f-bcc2-05082c807565"
        }
      }, {
        "type": [ {
          "text": "Informant"
        } ],
        "individual": {
          "reference": "urn:uuid:9a804c6e-3659-4d2c-9b14-f357adf7aa13"
        }
      }, {
        "type": [ {
          "coding": [ {
            "system": "http://hl7.org/fhir/ValueSet/encounter-participant-type",
            "code": "ATND",
            "display": "Responsible Party"
          } ]
        } ],
        "individual": {
          "reference": "urn:uuid:7d8d93cf-785a-42a8-b1f3-d2c9277b64c9"
        }
      } ],
      "appointment": {
        "reference": "urn:uuid:cbd8151e-9723-4824-acd3-91921a28e1b8"
      },
      "period": {
        "start": "2017-01-01T19:45:00+00:00",
        "end": "2017-01-01T20:15:00+00:00"
      },
      "location": [ {
        "location": {
          "reference": "urn:uuid:b5e54f7a-fb13-4c25-a096-c1bcb5f162e4"
        },
        "status": "active"
      }, {
        "location": {
          "reference": "urn:uuid:45d0e0eb-b07c-4fcd-9285-948bef34e2a6"
        },
        "status": "completed"
      } ],
      "serviceProvider": {
        "reference": "urn:uuid:70fc5535-d30c-4fff-a301-a0c7e124b3f2"
      }
    }
  }, {
    "fullUrl": "urn:uuid:70fc5535-d30c-4fff-a301-a0c7e124b3f2",
    "resource": {
      "resourceType": "Organization",
      "id": "70fc5535-d30c-4fff-a301-a0c7e124b3f2",
      "active": true,
      "type": [ {
        "text": "CST"
      } ],
      "name": "Medway NHS Foundation Trust"
    }
  }, {
    "fullUrl": "urn:uuid:05c12e65-6863-4d34-8288-75b65afe50af",
    "resource": {
      "resourceType": "Practitioner",
      "id": "05c12e65-6863-4d34-8288-75b65afe50af",
      "active": true,
      "name": [ {
        "text": "Call Centre Manager"
      } ],
      "telecom": [ {
        "system": "phone",
        "value": "tel:08001111111"
      } ]
    }
  }, {
    "fullUrl": "urn:uuid:14d31d32-ae23-473f-bcc2-05082c807565",
    "resource": {
      "resourceType": "Practitioner",
      "id": "14d31d32-ae23-473f-bcc2-05082c807565",
      "active": true,
      "name": [ {
        "use": "official",
        "family": "Jones",
        "given": [ "Mary" ]
      } ]
    }
  }, {
    "fullUrl": "urn:uuid:9a804c6e-3659-4d2c-9b14-f357adf7aa13",
    "resource": {
      "resourceType": "RelatedPerson",
      "id": "9a804c6e-3659-4d2c-9b14-f357adf7aa13",
      "active": true,
      "patient": {
        "reference": "urn:uuid:f7500efb-86ab-486c-8e3d-1817daa67e3c"
      },
      "relationship": {
        "coding": [ {
          "system": "2.16.840.1.113883.2.1.3.2.4.16.45",
          "code": "01",
          "display": "Spouse"
        } ]
      },
      "name": [ {
        "use": "official",
        "family": "Bloggs",
        "given": [ "Helga" ]
      } ],
      "telecom": [ {
        "system": "phone",
        "value": "tel:07886554123",
        "use": "mobile"
      }, {
        "system": "phone",
        "value": "tel:01783678321"
      } ],
      "gender": "unknown",
      "address": [ {
        "use": "home",
        "line": [ "43 Summers Avenue", "Somerset Street" ],
        "city": "Medway",
        "postalCode": "ME5 7TY"
      } ]
    }
  }, {
    "fullUrl": "urn:uuid:7d8d93cf-785a-42a8-b1f3-d2c9277b64c9",
    "resource": {
      "resourceType": "Practitioner",
      "id": "7d8d93cf-785a-42a8-b1f3-d2c9277b64c9",
      "active": true,
      "name": [ {
        "use": "official",
        "family": "Cornwell",
        "given": [ "Dave" ]
      } ]
    }
  }, {
    "fullUrl": "urn:uuid:b5e54f7a-fb13-4c25-a096-c1bcb5f162e4",
    "resource": {
      "resourceType": "Location",
      "id": "b5e54f7a-fb13-4c25-a096-c1bcb5f162e4",
      "managingOrganization": {
        "reference": "urn:uuid:aa60592a-8d4d-4adf-85a9-ae27aa28df97"
      }
    }
  }, {
    "fullUrl": "urn:uuid:aa60592a-8d4d-4adf-85a9-ae27aa28df97",
    "resource": {
      "resourceType": "Organization",
      "id": "aa60592a-8d4d-4adf-85a9-ae27aa28df97",
      "identifier": [ {
        "value": "V396F"
      } ],
      "type": [ {
        "text": "GP Practice"
      } ],
      "name": "Medway Medical Practice",
      "telecom": [ {
        "system": "phone",
        "value": "tel:01634111222",
        "use": "work"
      } ],
      "address": [ {
        "use": "work",
        "line": [ "Springer Street" ],
        "city": "Medway",
        "postalCode": "ME5 5TY"
      } ]
    }
  }, {
    "fullUrl": "urn:uuid:45d0e0eb-b07c-4fcd-9285-948bef34e2a6",
    "resource": {
      "resourceType": "Location",
      "id": "45d0e0eb-b07c-4fcd-9285-948bef34e2a6",
      "name": "Incident Location",
      "address": {
        "type": "physical",
        "text": "Follow the high street and turn left by Boots",
        "line": [ "2, Brancaster Road" ],
        "city": "Medway",
        "postalCode": "ME5 4LS",
        "country": "GB"
      }
    }
  }, {
    "fullUrl": "urn:uuid:f7500efb-86ab-486c-8e3d-1817daa67e3c",
    "resource": {
      "resourceType": "Patient",
      "id": "f7500efb-86ab-486c-8e3d-1817daa67e3c",
      "language": "en",
      "identifier": [ {
        "extension": [ {
          "url": "https://fhir.hl7.org.uk/STU3/StructureDefinition/Extension-CareConnect-NHSNumberVerificationStatus-1",
          "valueCodeableConcept": {
            "coding": [ {
              "system": "https://fhir.hl7.org.uk/STU3/StructureDefinition/Extension-CareConnect-NHSNumberVerificationStatus-1",
              "code": "02"
            } ]
          }
        } ],
        "system": "https://fhir.nhs.uk/Id/nhs-number",
        "value": "993254128"
      } ],
      "active": true,
      "name": [ {
        "use": "official",
        "family": "Joe",
        "given": [ "Blogg" ],
        "prefix": [ "Mr" ]
      } ],
      "telecom": [ {
        "system": "phone",
        "value": "tel:01634775667",
        "use": "home"
      }, {
        "system": "phone",
        "value": "tel:01634451628",
        "use": "home"
      }, {
        "system": "email",
        "value": "mailto:Joe.Blogg@emailfree.co.uk",
        "use": "home"
      } ],
      "gender": "male",
      "birthDate": "1989-01-01",
      "address": [ {
        "use": "home",
        "line": [ "17, County Avenue", "Woodtown" ],
        "city": "Medway",
        "postalCode": "ME5 FS3"
      } ],
      "generalPractitioner": [ {
        "reference": "urn:uuid:d3aaf56c-34bd-47d1-8d40-de1dd919d588"
      } ]
    }
  }, {
    "fullUrl": "urn:uuid:d3aaf56c-34bd-47d1-8d40-de1dd919d588",
    "resource": {
      "resourceType": "Organization",
      "id": "d3aaf56c-34bd-47d1-8d40-de1dd919d588",
      "identifier": [ {
        "value": "V396F"
      } ],
      "type": [ {
        "text": "GP Practice"
      } ],
      "name": "Medway Medical Practice",
      "telecom": [ {
        "system": "phone",
        "value": "tel:01634111222",
        "use": "work"
      } ],
      "address": [ {
        "use": "work",
        "line": [ "Springer Street" ],
        "city": "Medway",
        "postalCode": "ME5 5TY"
      } ]
    }
  }, {
    "fullUrl": "urn:uuid:d7c0352e-2631-42cb-a45c-fa5d21d1b205",
    "resource": {
      "resourceType": "HealthcareService",
      "id": "d7c0352e-2631-42cb-a45c-fa5d21d1b205",
      "active": true,
      "providedBy": {
        "reference": "urn:uuid:7482466b-10fc-43e4-8a09-f3549c6b2ac3"
      },
      "location": [ {
        "reference": "urn:uuid:632011b5-a1cc-4d38-84e4-4b0aa34f7414"
      } ],
      "name": "Thames Medical Practice",
      "telecom": [ {
        "system": "phone",
        "value": "tel:0123476895",
        "use": "work"
      } ]
    }
  }, {
    "fullUrl": "urn:uuid:632011b5-a1cc-4d38-84e4-4b0aa34f7414",
    "resource": {
      "resourceType": "Location",
      "id": "632011b5-a1cc-4d38-84e4-4b0aa34f7414",
      "telecom": [ {
        "system": "phone",
        "value": "tel:0123476895",
        "use": "work"
      } ],
      "address": {
        "use": "work",
        "line": [ "Thames Medical Practice", "Hill Street Branch Surgery", "Medway", "Essex" ],
        "postalCode": "ME4 5TT"
      },
      "managingOrganization": {
        "reference": "urn:uuid:7482466b-10fc-43e4-8a09-f3549c6b2ac3"
      }
    }
  }, {
    "fullUrl": "urn:uuid:7482466b-10fc-43e4-8a09-f3549c6b2ac3",
    "resource": {
      "resourceType": "Organization",
      "id": "7482466b-10fc-43e4-8a09-f3549c6b2ac3",
      "identifier": [ {
        "value": "PRA123"
      } ],
      "type": [ {
        "coding": [ {
          "code": "PRCP",
          "display": "Thames Medical Practice"
        } ]
      } ],
      "name": "Thames Medical Practice"
    }
  }, {
    "fullUrl": "urn:uuid:175c9975-20ed-475e-85c8-765daa426954",
    "resource": {
      "resourceType": "HealthcareService",
      "id": "175c9975-20ed-475e-85c8-765daa426954",
      "active": true,
      "providedBy": {
        "reference": "urn:uuid:54da869d-b779-4a7f-8edb-7896d6abac12"
      },
      "location": [ {
        "reference": "urn:uuid:9e543230-598e-4eae-8211-d325c608f533"
      } ],
      "name": "Medway Kent Out of Hours Clinic"
    }
  }, {
    "fullUrl": "urn:uuid:9e543230-598e-4eae-8211-d325c608f533",
    "resource": {
      "resourceType": "Location",
      "id": "9e543230-598e-4eae-8211-d325c608f533",
      "managingOrganization": {
        "reference": "urn:uuid:54da869d-b779-4a7f-8edb-7896d6abac12"
      }
    }
  }, {
    "fullUrl": "urn:uuid:54da869d-b779-4a7f-8edb-7896d6abac12",
    "resource": {
      "resourceType": "Organization",
      "id": "54da869d-b779-4a7f-8edb-7896d6abac12",
      "identifier": [ {
        "value": "EM396"
      } ],
      "type": [ {
        "coding": [ {
          "code": "PRCP",
          "display": "Medway Kent Out of Hours Clinic"
        } ]
      } ],
      "name": "Medway Kent Out of Hours Clinic"
    }
  }, {
    "fullUrl": "urn:uuid:25486ae7-6a5e-4632-a8bb-c87c4b754b65",
    "resource": {
      "resourceType": "ReferralRequest",
      "id": "25486ae7-6a5e-4632-a8bb-c87c4b754b65",
      "status": "active",
      "intent": "plan",
      "priority": "routine",
      "subject": {
        "reference": "urn:uuid:f7500efb-86ab-486c-8e3d-1817daa67e3c"
      },
      "context": {
        "reference": "urn:uuid:723ed3c2-e16a-4055-a1de-9064aa563b4f"
      },
      "occurrencePeriod": {
        "start": "2017-01-01T20:00:00+00:00"
      },
      "authoredOn": "2019-01-01T20:00:00+00:00",
      "requester": {
        "agent": {
          "reference": "urn:uuid:1dfbecef-c6d4-4d0a-a206-fa2ad942711f"
        },
        "onBehalfOf": {
          "reference": "urn:uuid:70fc5535-d30c-4fff-a301-a0c7e124b3f2"
        }
      },
      "recipient": [ {
        "reference": "urn:uuid:2bcdbd5b-d78b-4b98-a023-b2e48203963e"
      }, {
        "reference": "urn:uuid:d7c0352e-2631-42cb-a45c-fa5d21d1b205"
      }, {
        "reference": "urn:uuid:175c9975-20ed-475e-85c8-765daa426954"
      } ],
      "reasonReference": [ {
        "reference": "urn:uuid:63398ce6-a3ea-432a-9392-a03311c55ec7"
      } ],
      "supportingInfo": [ {
        "reference": "urn:uuid:d68da1cf-5aac-449a-b035-d1adc14a9e12"
      } ]
    }
  }, {
    "fullUrl": "urn:uuid:d68da1cf-5aac-449a-b035-d1adc14a9e12",
    "resource": {
      "resourceType": "ProcedureRequest",
      "id": "d68da1cf-5aac-449a-b035-d1adc14a9e12",
      "status": "active",
      "intent": "plan",
      "priority": "routine",
      "doNotPerform": false,
      "code": {
        "coding": [ {
          "system": "2.16.840.1.113883.2.1.3.2.4.17.325",
          "code": "Dx001",
          "display": "Passed onto clinical hub"
        } ]
      },
      "subject": {
        "reference": "urn:uuid:f7500efb-86ab-486c-8e3d-1817daa67e3c"
      },
      "occurrencePeriod": {
        "start": "2017-01-01T20:00:00+00:00"
      },
      "reasonReference": [ {
        "reference": "urn:uuid:63398ce6-a3ea-432a-9392-a03311c55ec7"
      } ]
    }
  }, {
    "fullUrl": "urn:uuid:2bcdbd5b-d78b-4b98-a023-b2e48203963e",
    "resource": {
      "resourceType": "Practitioner",
      "id": "2bcdbd5b-d78b-4b98-a023-b2e48203963e",
      "active": true,
      "telecom": [ {
        "system": "phone",
        "value": "tel:0123456789"
      } ],
      "address": [ {
        "type": "physical",
        "line": [ "Church Street Walk in Centre", "4 Church Street", "Medway" ],
        "postalCode": "ME8 7TT"
      } ]
    }
  }, {
    "fullUrl": "urn:uuid:f235ce1a-cd46-4500-b333-c2db1445b4b3",
    "resource": {
      "resourceType": "Composition",
      "id": "f235ce1a-cd46-4500-b333-c2db1445b4b3",
      "identifier": {
        "use": "usual",
        "value": "411910CF-1A76-4330-98FE-C345DDEE5553"
      },
      "status": "final",
      "type": {
        "coding": [ {
          "system": "http://snomed.info/sct",
          "code": "371531000",
          "display": "Report of clinical encounter (record artifact)"
        } ]
      },
      "subject": {
        "reference": "urn:uuid:f7500efb-86ab-486c-8e3d-1817daa67e3c"
      },
      "encounter": {
        "reference": "urn:uuid:723ed3c2-e16a-4055-a1de-9064aa563b4f"
      },
      "date": "2017-01-01T20:00:00+00:00",
      "author": [ {
        "reference": "urn:uuid:14d31d32-ae23-473f-bcc2-05082c807565"
      } ],
      "title": "111 Report",
      "confidentiality": "V",
      "section": [ {
        "section": [ {
          "title": "Permission to View",
          "text": {
            "status": "generated",
            "div": "<div xmlns=\"http://www.w3.org/1999/xhtml\">&lt;table&gt;\n                                                        &lt;tbody&gt;\n                                                            &lt;tr&gt;\n                                                                &lt;th&gt;Permission to view outcome&lt;/th&gt;\n                                                                &lt;td&gt;Permission to view obtained&lt;/td&gt;\n                                                            &lt;/tr&gt;\n                                                            &lt;tr&gt;\n                                                                &lt;th&gt;Date obtained&lt;/th&gt;\n                                                                &lt;td&gt;01-Jan-2017, 20:00&lt;/td&gt;\n                                                            &lt;/tr&gt;\n                                                            &lt;tr&gt;\n                                                                &lt;th&gt;Date expires&lt;/th&gt;\n                                                                &lt;td&gt;15-Jan-2017, 20:00&lt;/td&gt;\n                                                            &lt;/tr&gt;\n                                                        &lt;/tbody&gt;\n                                                    &lt;/table&gt;</div>"
          }
        }, {
          "title": "Primary Reason for Call",
          "text": {
            "status": "generated",
            "div": "<div xmlns=\"http://www.w3.org/1999/xhtml\">&lt;content&gt;Patient feels dizzy.&lt;/content&gt;</div>"
          },
          "section": [ {
            "title": "SUBSUB2",
            "text": {
              "status": "generated",
              "div": "<div xmlns=\"http://www.w3.org/1999/xhtml\">&lt;content&gt;SUBSUB2&lt;/content&gt;</div>"
            },
            "section": [ {
              "title": "SUBSUB3",
              "text": {
                "status": "generated",
                "div": "<div xmlns=\"http://www.w3.org/1999/xhtml\">&lt;content&gt;SUBSUB3&lt;/content&gt;</div>"
              }
            } ]
          } ]
        }, {
          "title": "Clinical Summary",
          "text": {
            "status": "generated",
            "div": "<div xmlns=\"http://www.w3.org/1999/xhtml\">&lt;content&gt;\n                                                        Patient fels nausea and dizzy after waking up. Lasted 30\n                                                        minutes.\n                                                    &lt;/content&gt;</div>"
          }
        }, {
          "title": "Additional Patient Notes",
          "text": {
            "status": "generated",
            "div": "<div xmlns=\"http://www.w3.org/1999/xhtml\">Additional Patient Notes\n                                                    &lt;br/&gt;\n                                                    Additional Patient Notes abc 01-Feb-2017, 12:00\n                                                    &lt;br/&gt;</div>"
          },
          "section": [ {
            "text": {
              "status": "generated",
              "div": "<div xmlns=\"http://www.w3.org/1999/xhtml\">These are more notes, nested under the top one.</div>"
            }
          } ]
        }, {
          "title": "Disposition Details",
          "text": {
            "status": "generated",
            "div": "<div xmlns=\"http://www.w3.org/1999/xhtml\">&lt;content&gt;Lie down.&lt;/content&gt;</div>"
          }
        }, {
          "title": "Information and advice given",
          "text": {
            "status": "generated",
            "div": "<div xmlns=\"http://www.w3.org/1999/xhtml\">&lt;content&gt;Do not perform any strenuous activities.&lt;/content&gt;</div>"
          }
        }, {
          "title": "Recorded Allergies",
          "text": {
            "status": "generated",
            "div": "<div xmlns=\"http://www.w3.org/1999/xhtml\">&lt;content&gt;No known allergies or adverse reaction.&lt;/content&gt;</div>"
          }
        }, {
          "title": "Triage Report",
          "text": {
            "status": "generated",
            "div": "<div xmlns=\"http://www.w3.org/1999/xhtml\">&lt;content&gt;An injury or other health problem was described.\n                                                        &lt;br/&gt;The individual was described as breathing and conscious.\n                                                        &lt;br/&gt;Loss of at least a mugful of blood in the last 30 minutes\n                                                        was not described.\n                                                        &lt;br/&gt;An illness or other health problem was described. -\n                                                        Dizziness\n                                                        &lt;br/&gt;Fighting for breath was not described.\n                                                        &lt;br/&gt;A heart attack, chest/upper back pain, recent probable\n                                                        stroke, recent fit/seizure or suicide attempt was not described\n                                                        as the main call reason.\n                                                        &lt;br/&gt;Dizziness and nausea was described.\n                                                        &lt;br/&gt;\n                                                    &lt;/content&gt;</div>"
          }
        }, {
          "title": "Prescribed Items",
          "text": {
            "status": "generated",
            "div": "<div xmlns=\"http://www.w3.org/1999/xhtml\">&lt;content&gt;\n                                                        Medications\n                                                    &lt;/content&gt;</div>"
          }
        }, {
          "title": "Appointment Reference",
          "text": {
            "status": "generated",
            "div": "<div xmlns=\"http://www.w3.org/1999/xhtml\">&lt;content&gt;\n                                                        Date/Time: 01 June 2017 14:00\n                                                        Location: CENTRAL LONDON COMMUNITY HEALTHCARE NHS TRUST\n                                                        Psychiatric Community Care Service\n                                                    &lt;/content&gt;</div>"
          }
        } ]
      }, {
        "title": "CarePlan",
        "entry": [ {
          "reference": "urn:uuid:aa4530e9-2496-469c-9145-a2ef1a90ce50"
        } ]
      }, {
        "title": "ReferralRequest",
        "entry": [ {
          "reference": "urn:uuid:25486ae7-6a5e-4632-a8bb-c87c4b754b65"
        } ]
      }, {
        "title": "QuestionnaireResponse",
        "entry": [ {
          "reference": "urn:uuid:3bead0a0-7d05-46e1-a90f-13067ceaaaea"
        } ]
      }, {
        "title": "QuestionnaireResponse",
        "entry": [ {
          "reference": "urn:uuid:c7b12f5c-a4f9-447b-90db-7e4c91edd9e8"
        } ]
      }, {
        "title": "QuestionnaireResponse",
        "entry": [ {
          "reference": "urn:uuid:7c4c6f13-fe8c-4876-af69-97b6dc0b48c6"
        } ]
      }, {
        "title": "QuestionnaireResponse",
        "entry": [ {
          "reference": "urn:uuid:87d95e99-3845-4731-952e-72dda746eb7b"
        } ]
      }, {
        "title": "QuestionnaireResponse",
        "entry": [ {
          "reference": "urn:uuid:875a29ca-aad5-4eb4-83c4-62160976de2d"
        } ]
      }, {
        "title": "QuestionnaireResponse",
        "entry": [ {
          "reference": "urn:uuid:a83dc965-3083-415e-81a4-c6d7c61ad4a6"
        } ]
      }, {
        "title": "QuestionnaireResponse",
        "entry": [ {
          "reference": "urn:uuid:08d158c7-1af4-4911-8389-70c56899d4b5"
        } ]
      }, {
        "title": "QuestionnaireResponse",
        "entry": [ {
          "reference": "urn:uuid:94bb9276-6a20-4cb1-bc8b-1b437a8e26a1"
        } ]
      }, {
        "title": "QuestionnaireResponse",
        "entry": [ {
          "reference": "urn:uuid:195548a5-92c1-4f26-92cf-41caadafe932"
        } ]
      }, {
        "title": "QuestionnaireResponse",
        "entry": [ {
          "reference": "urn:uuid:74b13883-c8c3-4862-b06b-3da866d455c1"
        } ]
      }, {
        "title": "QuestionnaireResponse",
        "entry": [ {
          "reference": "urn:uuid:53365fa0-5b91-4ec9-b19e-1fc12d5caba1"
        } ]
      }, {
        "title": "QuestionnaireResponse",
        "entry": [ {
          "reference": "urn:uuid:cc3ecbbe-0186-4fe4-aa08-33ff5a4b4da3"
        } ]
      }, {
        "title": "QuestionnaireResponse",
        "entry": [ {
          "reference": "urn:uuid:63a44eb2-d912-44b8-95a1-ef250eefe67c"
        } ]
      }, {
        "title": "QuestionnaireResponse",
        "entry": [ {
          "reference": "urn:uuid:d5f45244-dece-4b95-9bae-0277911294c5"
        } ]
      }, {
        "title": "QuestionnaireResponse",
        "entry": [ {
          "reference": "urn:uuid:c3a31c02-8ccc-46cd-bdc5-eeab244787ab"
        } ]
      }, {
        "title": "QuestionnaireResponse",
        "entry": [ {
          "reference": "urn:uuid:236fa3c2-41f2-491b-9675-c3544cb1a572"
        } ]
      }, {
        "title": "QuestionnaireResponse",
        "entry": [ {
          "reference": "urn:uuid:52d13248-dd46-4dc1-ab60-50c9c94d6620"
        } ]
      }, {
        "title": "QuestionnaireResponse",
        "entry": [ {
          "reference": "urn:uuid:8200157b-8442-4606-a77e-ed768b2e49e2"
        } ]
      }, {
        "title": "QuestionnaireResponse",
        "entry": [ {
          "reference": "urn:uuid:9824ef7f-d40e-42a8-890a-d85726928e05"
        } ]
      }, {
        "title": "QuestionnaireResponse",
        "entry": [ {
          "reference": "urn:uuid:9683b5f4-e7e1-4211-9db2-ff07bc1e792e"
        } ]
      }, {
        "title": "QuestionnaireResponse",
        "entry": [ {
          "reference": "urn:uuid:348a0891-c2d2-4de3-8666-2d93c2c643a1"
        } ]
      }, {
        "title": "QuestionnaireResponse",
        "entry": [ {
          "reference": "urn:uuid:82445111-c53f-4034-bb34-f0cb6265b4f0"
        } ]
      }, {
        "title": "QuestionnaireResponse",
        "entry": [ {
          "reference": "urn:uuid:329aec80-5d7a-4b5c-8b63-5f6a38b2e765"
        } ]
      }, {
        "title": "QuestionnaireResponse",
        "entry": [ {
          "reference": "urn:uuid:3bb72739-b6f1-4129-b390-e534c4a16cd6"
        } ]
      } ]
    }
  }, {
    "fullUrl": "urn:uuid:aa4530e9-2496-469c-9145-a2ef1a90ce50",
    "resource": {
      "resourceType": "CarePlan",
      "id": "aa4530e9-2496-469c-9145-a2ef1a90ce50",
      "status": "completed",
      "intent": "plan",
      "title": "Information and advice given",
      "description": "Do not perform any strenuous activities.",
      "subject": {
        "reference": "urn:uuid:f7500efb-86ab-486c-8e3d-1817daa67e3c"
      },
      "context": {
        "reference": "urn:uuid:723ed3c2-e16a-4055-a1de-9064aa563b4f"
      },
      "period": {
        "start": "2017-01-01T19:45:00+00:00",
        "end": "2017-01-01T20:15:00+00:00"
      },
      "author": [ {
        "reference": "urn:uuid:aa60592a-8d4d-4adf-85a9-ae27aa28df97"
      } ],
      "addresses": [ {
        "reference": "urn:uuid:63398ce6-a3ea-432a-9392-a03311c55ec7"
      } ]
    }
  }, {
    "fullUrl": "urn:uuid:387eeaec-029d-4f75-ad04-e5f9792548b9",
    "resource": {
      "resourceType": "Consent",
      "id": "387eeaec-029d-4f75-ad04-e5f9792548b9",
      "text": {
        "status": "generated",
        "div": "<div xmlns=\"http://www.w3.org/1999/xhtml\">\n                                                    <table>\n                                                        <tbody>\n                                                            <tr>\n                                                                <th>Permission to view outcome</th>\n                                                                <td>Permission to view obtained</td>\n                                                            </tr>\n                                                            <tr>\n                                                                <th>Date obtained</th>\n                                                                <td>01-Jan-2017, 20:00</td>\n                                                            </tr>\n                                                            <tr>\n                                                                <th>Date expires</th>\n                                                                <td>15-Jan-2017, 20:00</td>\n                                                            </tr>\n                                                        </tbody>\n                                                    </table>\n                                                </div>"
      },
      "identifier": {
        "use": "usual",
        "value": "411910CF-1A76-4330-98FE-C345DDEE5553"
      },
      "status": "active",
      "patient": {
        "reference": "urn:uuid:f7500efb-86ab-486c-8e3d-1817daa67e3c"
      },
      "period": {
        "start": "2017-01-01T19:45:00+00:00",
        "end": "2017-01-01T20:15:00+00:00"
      },
      "consentingParty": [ {
        "reference": "urn:uuid:f7500efb-86ab-486c-8e3d-1817daa67e3c"
      } ],
      "action": [ {
        "coding": [ {
          "system": "http://snomed.info/sct",
          "code": "425691002",
          "display": "Consent given for electronic record sharing"
        } ],
        "text": "Consent given for electronic record sharing"
      } ],
      "organization": [ {
        "reference": "urn:uuid:70fc5535-d30c-4fff-a301-a0c7e124b3f2"
      } ],
      "sourceIdentifier": {
        "value": "41D9F90F-6DB7-4939-BEF5-F8D75D79ECDD"
      },
      "policyRule": "http://hl7.org/fhir/ConsentPolicy/opt-out",
      "dataPeriod": {
        "start": "2011-05-19T20:00:00+00:00",
        "end": "2011-05-26T20:00:00+00:00"
      },
      "data": [ {
        "meaning": "related",
        "reference": {
          "reference": "urn:uuid:723ed3c2-e16a-4055-a1de-9064aa563b4f"
        }
      } ]
    }
  }, {
    "fullUrl": "urn:uuid:63398ce6-a3ea-432a-9392-a03311c55ec7",
    "resource": {
      "resourceType": "Condition",
      "id": "63398ce6-a3ea-432a-9392-a03311c55ec7",
      "clinicalStatus": "active",
      "verificationStatus": "unknown",
      "code": {
        "coding": [ {
          "system": "2.16.840.1.113883.2.1.3.2.4.15",
          "code": "22298006",
          "display": "Myocardial infarction"
        } ]
      },
      "subject": {
        "reference": "urn:uuid:f7500efb-86ab-486c-8e3d-1817daa67e3c"
      },
      "context": {
        "reference": "urn:uuid:723ed3c2-e16a-4055-a1de-9064aa563b4f"
      },
      "assertedDate": "2017-06-01T14:00:00+00:00",
      "evidence": [ {
        "detail": [ {
          "reference": "urn:uuid:3bead0a0-7d05-46e1-a90f-13067ceaaaea"
        } ]
      }, {
        "detail": [ {
          "reference": "urn:uuid:c7b12f5c-a4f9-447b-90db-7e4c91edd9e8"
        } ]
      }, {
        "detail": [ {
          "reference": "urn:uuid:7c4c6f13-fe8c-4876-af69-97b6dc0b48c6"
        } ]
      }, {
        "detail": [ {
          "reference": "urn:uuid:87d95e99-3845-4731-952e-72dda746eb7b"
        } ]
      }, {
        "detail": [ {
          "reference": "urn:uuid:875a29ca-aad5-4eb4-83c4-62160976de2d"
        } ]
      }, {
        "detail": [ {
          "reference": "urn:uuid:a83dc965-3083-415e-81a4-c6d7c61ad4a6"
        } ]
      }, {
        "detail": [ {
          "reference": "urn:uuid:08d158c7-1af4-4911-8389-70c56899d4b5"
        } ]
      }, {
        "detail": [ {
          "reference": "urn:uuid:94bb9276-6a20-4cb1-bc8b-1b437a8e26a1"
        } ]
      }, {
        "detail": [ {
          "reference": "urn:uuid:195548a5-92c1-4f26-92cf-41caadafe932"
        } ]
      }, {
        "detail": [ {
          "reference": "urn:uuid:74b13883-c8c3-4862-b06b-3da866d455c1"
        } ]
      }, {
        "detail": [ {
          "reference": "urn:uuid:53365fa0-5b91-4ec9-b19e-1fc12d5caba1"
        } ]
      }, {
        "detail": [ {
          "reference": "urn:uuid:cc3ecbbe-0186-4fe4-aa08-33ff5a4b4da3"
        } ]
      }, {
        "detail": [ {
          "reference": "urn:uuid:63a44eb2-d912-44b8-95a1-ef250eefe67c"
        } ]
      }, {
        "detail": [ {
          "reference": "urn:uuid:d5f45244-dece-4b95-9bae-0277911294c5"
        } ]
      }, {
        "detail": [ {
          "reference": "urn:uuid:c3a31c02-8ccc-46cd-bdc5-eeab244787ab"
        } ]
      }, {
        "detail": [ {
          "reference": "urn:uuid:236fa3c2-41f2-491b-9675-c3544cb1a572"
        } ]
      }, {
        "detail": [ {
          "reference": "urn:uuid:52d13248-dd46-4dc1-ab60-50c9c94d6620"
        } ]
      }, {
        "detail": [ {
          "reference": "urn:uuid:8200157b-8442-4606-a77e-ed768b2e49e2"
        } ]
      }, {
        "detail": [ {
          "reference": "urn:uuid:9824ef7f-d40e-42a8-890a-d85726928e05"
        } ]
      }, {
        "detail": [ {
          "reference": "urn:uuid:9683b5f4-e7e1-4211-9db2-ff07bc1e792e"
        } ]
      }, {
        "detail": [ {
          "reference": "urn:uuid:348a0891-c2d2-4de3-8666-2d93c2c643a1"
        } ]
      }, {
        "detail": [ {
          "reference": "urn:uuid:82445111-c53f-4034-bb34-f0cb6265b4f0"
        } ]
      }, {
        "detail": [ {
          "reference": "urn:uuid:329aec80-5d7a-4b5c-8b63-5f6a38b2e765"
        } ]
      }, {
        "detail": [ {
          "reference": "urn:uuid:3bb72739-b6f1-4129-b390-e534c4a16cd6"
        } ]
      } ]
    }
  }, {
    "fullUrl": "urn:uuid:3bead0a0-7d05-46e1-a90f-13067ceaaaea",
    "resource": {
      "resourceType": "QuestionnaireResponse",
      "id": "3bead0a0-7d05-46e1-a90f-13067ceaaaea",
      "identifier": {
        "value": "8067b9b2-e604-4414-b56f-8e3cc4de4b1b"
      },
      "questionnaire": {
        "reference": "urn:uuid:11f13253-6564-44da-b5b0-b1d006aa6649"
      },
      "status": "completed",
      "subject": {
        "reference": "urn:uuid:f7500efb-86ab-486c-8e3d-1817daa67e3c"
      },
      "context": {
        "reference": "urn:uuid:723ed3c2-e16a-4055-a1de-9064aa563b4f"
      },
      "authored": "2011-02-17T17:31:14+00:00",
      "item": [ {
        "linkId": "N/A"
      } ]
    }
  }, {
    "fullUrl": "urn:uuid:11f13253-6564-44da-b5b0-b1d006aa6649",
    "resource": {
      "resourceType": "Questionnaire",
      "id": "11f13253-6564-44da-b5b0-b1d006aa6649",
      "identifier": [ {
        "value": "8067b9b2-e604-4414-b56f-8e3cc4de4b1b"
      } ],
      "version": "2011-02-17T17:31:14.313Z",
      "status": "active",
      "experimental": false,
      "date": "2011-02-17T17:31:14+00:00",
      "publisher": "User ID: '3137' User name: 'redacted' User skill set: 'T1'",
      "lastReviewDate": "2011-02-17",
      "jurisdiction": [ {
        "text": "England"
      } ],
      "contact": [ {
        "telecom": [ {
          "system": "phone",
          "value": "redacted"
        } ]
      } ],
      "subjectType": [ "Patient" ],
      "item": [ {
        "linkId": "8067b9b2-e604-4414-b56f-8e3cc4de4b1b",
        "prefix": "0",
        "type": "choice",
        "required": true,
        "repeats": false,
        "option": [ {
          "valueString": ", Selected: false"
        } ]
      } ]
    }
  }, {
    "fullUrl": "urn:uuid:c7b12f5c-a4f9-447b-90db-7e4c91edd9e8",
    "resource": {
      "resourceType": "QuestionnaireResponse",
      "id": "c7b12f5c-a4f9-447b-90db-7e4c91edd9e8",
      "identifier": {
        "value": "8067b9b2-e604-4414-b56f-8e3cc4de4b1b"
      },
      "questionnaire": {
        "reference": "urn:uuid:2f7298c2-8f85-41ef-b5c2-16e0dda2488e"
      },
      "status": "completed",
      "subject": {
        "reference": "urn:uuid:f7500efb-86ab-486c-8e3d-1817daa67e3c"
      },
      "context": {
        "reference": "urn:uuid:723ed3c2-e16a-4055-a1de-9064aa563b4f"
      },
      "authored": "2011-02-17T17:31:14+00:00",
      "item": [ {
        "linkId": "N/A"
      } ]
    }
  }, {
    "fullUrl": "urn:uuid:2f7298c2-8f85-41ef-b5c2-16e0dda2488e",
    "resource": {
      "resourceType": "Questionnaire",
      "id": "2f7298c2-8f85-41ef-b5c2-16e0dda2488e",
      "identifier": [ {
        "value": "8067b9b2-e604-4414-b56f-8e3cc4de4b1b"
      } ],
      "version": "2011-02-17T17:31:14.313Z",
      "status": "active",
      "experimental": false,
      "date": "2011-02-17T17:31:14+00:00",
      "publisher": "User ID: '3137' User name: 'redacted' User skill set: 'T1'",
      "lastReviewDate": "2011-02-17",
      "jurisdiction": [ {
        "text": "England"
      } ],
      "contact": [ {
        "telecom": [ {
          "system": "phone",
          "value": "redacted"
        } ]
      } ],
      "subjectType": [ "Patient" ],
      "item": [ {
        "linkId": "8067b9b2-e604-4414-b56f-8e3cc4de4b1b",
        "prefix": "0",
        "type": "choice",
        "required": true,
        "repeats": false,
        "option": [ {
          "valueString": ", Selected: false"
        } ]
      } ]
    }
  }, {
    "fullUrl": "urn:uuid:7c4c6f13-fe8c-4876-af69-97b6dc0b48c6",
    "resource": {
      "resourceType": "QuestionnaireResponse",
      "id": "7c4c6f13-fe8c-4876-af69-97b6dc0b48c6",
      "identifier": {
        "value": "8067b9b2-e604-4414-b56f-8e3cc4de4b1b"
      },
      "questionnaire": {
        "reference": "urn:uuid:6a556cef-7aa9-4b2a-9647-60341b974fc7"
      },
      "status": "completed",
      "subject": {
        "reference": "urn:uuid:f7500efb-86ab-486c-8e3d-1817daa67e3c"
      },
      "context": {
        "reference": "urn:uuid:723ed3c2-e16a-4055-a1de-9064aa563b4f"
      },
      "authored": "2011-02-17T17:31:14+00:00",
      "item": [ {
        "linkId": "Tx220109",
        "text": "What is the reason for the call?",
        "answer": [ {
          "valueString": "an injury or other health problem"
        } ]
      } ]
    }
  }, {
    "fullUrl": "urn:uuid:6a556cef-7aa9-4b2a-9647-60341b974fc7",
    "resource": {
      "resourceType": "Questionnaire",
      "id": "6a556cef-7aa9-4b2a-9647-60341b974fc7",
      "identifier": [ {
        "value": "8067b9b2-e604-4414-b56f-8e3cc4de4b1b"
      } ],
      "version": "2011-02-17T17:31:14.313Z",
      "status": "active",
      "experimental": false,
      "date": "2011-02-17T17:31:14+00:00",
      "publisher": "User ID: '3137' User name: 'redacted' User skill set: 'T1'",
      "lastReviewDate": "2011-02-17",
      "jurisdiction": [ {
        "text": "England"
      } ],
      "contact": [ {
        "telecom": [ {
          "system": "phone",
          "value": "redacted"
        } ]
      } ],
      "subjectType": [ "Patient" ],
      "item": [ {
        "linkId": "8067b9b2-e604-4414-b56f-8e3cc4de4b1b",
        "prefix": "5",
        "text": "What is the reason for the call?",
        "type": "choice",
        "required": true,
        "repeats": false,
        "option": [ {
          "valueString": "an injury or other health problem, Selected: true"
        }, {
          "valueString": "a need to access another healthcare provider, Selected: false"
        }, {
          "valueString": "a healthcare professional requesting contact with another clinician, Selected: false"
        }, {
          "valueString": "a report of results or tests, Selected: false"
        }, {
          "valueString": "more, Selected: false"
        } ]
      } ]
    }
  }, {
    "fullUrl": "urn:uuid:87d95e99-3845-4731-952e-72dda746eb7b",
    "resource": {
      "resourceType": "QuestionnaireResponse",
      "id": "87d95e99-3845-4731-952e-72dda746eb7b",
      "identifier": {
        "value": "8067b9b2-e604-4414-b56f-8e3cc4de4b1b"
      },
      "questionnaire": {
        "reference": "urn:uuid:289fa9db-b9b4-45d4-b017-8d5dbcf512be"
      },
      "status": "completed",
      "subject": {
        "reference": "urn:uuid:f7500efb-86ab-486c-8e3d-1817daa67e3c"
      },
      "context": {
        "reference": "urn:uuid:723ed3c2-e16a-4055-a1de-9064aa563b4f"
      },
      "authored": "2011-02-17T17:31:14+00:00",
      "item": [ {
        "linkId": "Tx140118",
        "text": "Has the baby just been born?",
        "answer": [ {
          "valueString": "no"
        } ]
      } ]
    }
  }, {
    "fullUrl": "urn:uuid:289fa9db-b9b4-45d4-b017-8d5dbcf512be",
    "resource": {
      "resourceType": "Questionnaire",
      "id": "289fa9db-b9b4-45d4-b017-8d5dbcf512be",
      "identifier": [ {
        "value": "8067b9b2-e604-4414-b56f-8e3cc4de4b1b"
      } ],
      "version": "2011-02-17T17:31:14.313Z",
      "status": "active",
      "experimental": false,
      "date": "2011-02-17T17:31:14+00:00",
      "publisher": "User ID: '3137' User name: 'redacted' User skill set: 'T1'",
      "lastReviewDate": "2011-02-17",
      "jurisdiction": [ {
        "text": "England"
      } ],
      "contact": [ {
        "telecom": [ {
          "system": "phone",
          "value": "redacted"
        } ]
      } ],
      "subjectType": [ "Patient" ],
      "item": [ {
        "linkId": "8067b9b2-e604-4414-b56f-8e3cc4de4b1b",
        "prefix": "35",
        "text": "Has the baby just been born?",
        "type": "choice",
        "required": true,
        "repeats": false,
        "option": [ {
          "valueString": "yes, Selected: false"
        }, {
          "valueString": "not sure, Selected: false"
        }, {
          "valueString": "no, Selected: true"
        } ]
      } ]
    }
  }, {
    "fullUrl": "urn:uuid:875a29ca-aad5-4eb4-83c4-62160976de2d",
    "resource": {
      "resourceType": "QuestionnaireResponse",
      "id": "875a29ca-aad5-4eb4-83c4-62160976de2d",
      "identifier": {
        "value": "8067b9b2-e604-4414-b56f-8e3cc4de4b1b"
      },
      "questionnaire": {
        "reference": "urn:uuid:aecf3f94-7e45-4a11-b3ef-ec28927b28de"
      },
      "status": "completed",
      "subject": {
        "reference": "urn:uuid:f7500efb-86ab-486c-8e3d-1817daa67e3c"
      },
      "context": {
        "reference": "urn:uuid:723ed3c2-e16a-4055-a1de-9064aa563b4f"
      },
      "authored": "2011-02-17T17:31:14+00:00",
      "item": [ {
        "linkId": "Tx220110",
        "text": "Is he breathing and conscious?",
        "answer": [ {
          "valueString": "breathing AND conscious"
        } ]
      } ]
    }
  }, {
    "fullUrl": "urn:uuid:aecf3f94-7e45-4a11-b3ef-ec28927b28de",
    "resource": {
      "resourceType": "Questionnaire",
      "id": "aecf3f94-7e45-4a11-b3ef-ec28927b28de",
      "identifier": [ {
        "value": "8067b9b2-e604-4414-b56f-8e3cc4de4b1b"
      } ],
      "version": "2011-02-17T17:31:14.313Z",
      "status": "active",
      "experimental": false,
      "date": "2011-02-17T17:31:14+00:00",
      "publisher": "User ID: '3137' User name: 'redacted' User skill set: 'T1'",
      "lastReviewDate": "2011-02-17",
      "jurisdiction": [ {
        "text": "England"
      } ],
      "contact": [ {
        "telecom": [ {
          "system": "phone",
          "value": "redacted"
        } ]
      } ],
      "subjectType": [ "Patient" ],
      "item": [ {
        "linkId": "8067b9b2-e604-4414-b56f-8e3cc4de4b1b",
        "prefix": "40",
        "text": "Is he breathing and conscious?",
        "type": "choice",
        "required": true,
        "repeats": false,
        "option": [ {
          "valueString": "breathing AND conscious, Selected: true"
        }, {
          "valueString": "breathing but NOT conscious (includes current fitting), Selected: false"
        }, {
          "valueString": "NOT breathing, Selected: false"
        }, {
          "valueString": "choking now, Selected: false"
        } ]
      } ]
    }
  }, {
    "fullUrl": "urn:uuid:a83dc965-3083-415e-81a4-c6d7c61ad4a6",
    "resource": {
      "resourceType": "QuestionnaireResponse",
      "id": "a83dc965-3083-415e-81a4-c6d7c61ad4a6",
      "identifier": {
        "value": "8067b9b2-e604-4414-b56f-8e3cc4de4b1b"
      },
      "questionnaire": {
        "reference": "urn:uuid:b146b9e3-2418-4fda-bc84-77595eb9424a"
      },
      "status": "completed",
      "subject": {
        "reference": "urn:uuid:f7500efb-86ab-486c-8e3d-1817daa67e3c"
      },
      "context": {
        "reference": "urn:uuid:723ed3c2-e16a-4055-a1de-9064aa563b4f"
      },
      "authored": "2011-02-17T17:31:14+00:00",
      "item": [ {
        "linkId": "Tx220285",
        "text": "Has he been bleeding very heavily IN THE LAST HOUR?",
        "answer": [ {
          "valueString": "no"
        } ]
      } ]
    }
  }, {
    "fullUrl": "urn:uuid:b146b9e3-2418-4fda-bc84-77595eb9424a",
    "resource": {
      "resourceType": "Questionnaire",
      "id": "b146b9e3-2418-4fda-bc84-77595eb9424a",
      "identifier": [ {
        "value": "8067b9b2-e604-4414-b56f-8e3cc4de4b1b"
      } ],
      "version": "2011-02-17T17:31:14.313Z",
      "status": "active",
      "experimental": false,
      "date": "2011-02-17T17:31:14+00:00",
      "publisher": "User ID: '3137' User name: 'redacted' User skill set: 'T1'",
      "lastReviewDate": "2011-02-17",
      "jurisdiction": [ {
        "text": "England"
      } ],
      "contact": [ {
        "telecom": [ {
          "system": "phone",
          "value": "redacted"
        } ]
      } ],
      "subjectType": [ "Patient" ],
      "item": [ {
        "linkId": "8067b9b2-e604-4414-b56f-8e3cc4de4b1b",
        "prefix": "60",
        "text": "Has he been bleeding very heavily IN THE LAST HOUR?",
        "type": "choice",
        "required": true,
        "repeats": false,
        "option": [ {
          "valueString": "blood spurting from a wound, Selected: false"
        }, {
          "valueString": "an egg cupful or more of red blood from a body opening, Selected: false"
        }, {
          "valueString": "an egg cupful or more from a wound, Selected: false"
        }, {
          "valueString": "not sure, Selected: false"
        }, {
          "valueString": "no, Selected: true"
        } ]
      } ]
    }
  }, {
    "fullUrl": "urn:uuid:08d158c7-1af4-4911-8389-70c56899d4b5",
    "resource": {
      "resourceType": "QuestionnaireResponse",
      "id": "08d158c7-1af4-4911-8389-70c56899d4b5",
      "identifier": {
        "value": "8067b9b2-e604-4414-b56f-8e3cc4de4b1b"
      },
      "questionnaire": {
        "reference": "urn:uuid:33c94cbc-eaed-40c8-b7ca-ecb781f3264c"
      },
      "status": "completed",
      "subject": {
        "reference": "urn:uuid:f7500efb-86ab-486c-8e3d-1817daa67e3c"
      },
      "context": {
        "reference": "urn:uuid:723ed3c2-e16a-4055-a1de-9064aa563b4f"
      },
      "authored": "2011-02-17T17:31:14+00:00",
      "item": [ {
        "linkId": "N/A",
        "text": "SocialConcernsExcluded",
        "answer": [ {
          "valueString": "*"
        } ]
      } ]
    }
  }, {
    "fullUrl": "urn:uuid:33c94cbc-eaed-40c8-b7ca-ecb781f3264c",
    "resource": {
      "resourceType": "Questionnaire",
      "id": "33c94cbc-eaed-40c8-b7ca-ecb781f3264c",
      "identifier": [ {
        "value": "8067b9b2-e604-4414-b56f-8e3cc4de4b1b"
      } ],
      "version": "2011-02-17T17:31:14.313Z",
      "status": "active",
      "experimental": false,
      "date": "2011-02-17T17:31:14+00:00",
      "publisher": "User ID: '3137' User name: 'redacted' User skill set: 'T1'",
      "lastReviewDate": "2011-02-17",
      "jurisdiction": [ {
        "text": "England"
      } ],
      "contact": [ {
        "telecom": [ {
          "system": "phone",
          "value": "redacted"
        } ]
      } ],
      "subjectType": [ "Patient" ],
      "item": [ {
        "linkId": "8067b9b2-e604-4414-b56f-8e3cc4de4b1b",
        "prefix": "2050",
        "text": "SocialConcernsExcluded",
        "type": "choice",
        "required": true,
        "repeats": false,
        "option": [ {
          "valueString": "==\"present\", Selected: false"
        }, {
          "valueString": "*, Selected: true"
        } ]
      } ]
    }
  }, {
    "fullUrl": "urn:uuid:94bb9276-6a20-4cb1-bc8b-1b437a8e26a1",
    "resource": {
      "resourceType": "QuestionnaireResponse",
      "id": "94bb9276-6a20-4cb1-bc8b-1b437a8e26a1",
      "identifier": {
        "value": "8067b9b2-e604-4414-b56f-8e3cc4de4b1b"
      },
      "questionnaire": {
        "reference": "urn:uuid:d2af0c60-c479-4e54-8a9d-75b2de3d483e"
      },
      "status": "completed",
      "subject": {
        "reference": "urn:uuid:f7500efb-86ab-486c-8e3d-1817daa67e3c"
      },
      "context": {
        "reference": "urn:uuid:723ed3c2-e16a-4055-a1de-9064aa563b4f"
      },
      "authored": "2011-02-17T17:31:14+00:00",
      "item": [ {
        "linkId": "Tx140159",
        "text": "What is the reason for ending the assessment?",
        "answer": [ {
          "valueString": "transfer to a clinician"
        } ]
      } ]
    }
  }, {
    "fullUrl": "urn:uuid:d2af0c60-c479-4e54-8a9d-75b2de3d483e",
    "resource": {
      "resourceType": "Questionnaire",
      "id": "d2af0c60-c479-4e54-8a9d-75b2de3d483e",
      "identifier": [ {
        "value": "8067b9b2-e604-4414-b56f-8e3cc4de4b1b"
      } ],
      "version": "2011-02-17T17:31:14.313Z",
      "status": "active",
      "experimental": false,
      "date": "2011-02-17T17:31:14+00:00",
      "publisher": "User ID: '3137' User name: 'redacted' User skill set: 'T1'",
      "lastReviewDate": "2011-02-17",
      "jurisdiction": [ {
        "text": "England"
      } ],
      "contact": [ {
        "telecom": [ {
          "system": "phone",
          "value": "redacted"
        } ]
      } ],
      "subjectType": [ "Patient" ],
      "item": [ {
        "linkId": "8067b9b2-e604-4414-b56f-8e3cc4de4b1b",
        "prefix": "0",
        "text": "What is the reason for ending the assessment?",
        "type": "choice",
        "required": true,
        "repeats": false,
        "option": [ {
          "valueString": "the phone line went dead, Selected: false"
        }, {
          "valueString": "the caller terminated the call (specify), Selected: false"
        }, {
          "valueString": "I terminated the call (specify), Selected: false"
        }, {
          "valueString": "triage not possible, Selected: false"
        }, {
          "valueString": "transfer to a clinician, Selected: true"
        } ]
      } ]
    }
  }, {
    "fullUrl": "urn:uuid:195548a5-92c1-4f26-92cf-41caadafe932",
    "resource": {
      "resourceType": "QuestionnaireResponse",
      "id": "195548a5-92c1-4f26-92cf-41caadafe932",
      "identifier": {
        "value": "8067b9b2-e604-4414-b56f-8e3cc4de4b1b"
      },
      "questionnaire": {
        "reference": "urn:uuid:f73b10f1-9df7-4939-9733-481330f8d3a5"
      },
      "status": "completed",
      "subject": {
        "reference": "urn:uuid:f7500efb-86ab-486c-8e3d-1817daa67e3c"
      },
      "context": {
        "reference": "urn:uuid:723ed3c2-e16a-4055-a1de-9064aa563b4f"
      },
      "authored": "2011-02-17T17:31:14+00:00",
      "item": [ {
        "linkId": "Tx220408",
        "text": "WHAT IS THE REASON FOR TRANSFER TO A CLINICIAN?",
        "answer": [ {
          "valueString": "other complex call (specify)"
        } ]
      } ]
    }
  }, {
    "fullUrl": "urn:uuid:f73b10f1-9df7-4939-9733-481330f8d3a5",
    "resource": {
      "resourceType": "Questionnaire",
      "id": "f73b10f1-9df7-4939-9733-481330f8d3a5",
      "identifier": [ {
        "value": "8067b9b2-e604-4414-b56f-8e3cc4de4b1b"
      } ],
      "version": "2011-02-17T17:31:14.313Z",
      "status": "active",
      "experimental": false,
      "date": "2011-02-17T17:31:14+00:00",
      "publisher": "User ID: '3137' User name: 'redacted' User skill set: 'T1'",
      "lastReviewDate": "2011-02-17",
      "jurisdiction": [ {
        "text": "England"
      } ],
      "contact": [ {
        "telecom": [ {
          "system": "phone",
          "value": "redacted"
        } ]
      } ],
      "subjectType": [ "Patient" ],
      "item": [ {
        "linkId": "8067b9b2-e604-4414-b56f-8e3cc4de4b1b",
        "prefix": "50",
        "text": "WHAT IS THE REASON FOR TRANSFER TO A CLINICIAN?",
        "type": "choice",
        "required": true,
        "repeats": false,
        "option": [ {
          "valueString": "caller refuses disposition, Selected: false"
        }, {
          "valueString": "multiple unrelated symptoms, Selected: false"
        }, {
          "valueString": "difficulty obtaining adequate information, Selected: false"
        }, {
          "valueString": "medication or medical procedure enquiry, Selected: false"
        }, {
          "valueString": "declared medical history (details not required), Selected: false"
        }, {
          "valueString": "other complex call (specify), Selected: true"
        } ]
      } ]
    }
  }, {
    "fullUrl": "urn:uuid:74b13883-c8c3-4862-b06b-3da866d455c1",
    "resource": {
      "resourceType": "QuestionnaireResponse",
      "id": "74b13883-c8c3-4862-b06b-3da866d455c1",
      "identifier": {
        "value": "8067b9b2-e604-4414-b56f-8e3cc4de4b1b"
      },
      "questionnaire": {
        "reference": "urn:uuid:42b967f6-8053-421f-a3fc-20c47a8605cb"
      },
      "status": "completed",
      "subject": {
        "reference": "urn:uuid:f7500efb-86ab-486c-8e3d-1817daa67e3c"
      },
      "context": {
        "reference": "urn:uuid:723ed3c2-e16a-4055-a1de-9064aa563b4f"
      },
      "authored": "2011-02-17T17:31:14+00:00",
      "item": [ {
        "linkId": "N/A",
        "text": "Speak to Clinician from our Service immediately"
      } ]
    }
  }, {
    "fullUrl": "urn:uuid:42b967f6-8053-421f-a3fc-20c47a8605cb",
    "resource": {
      "resourceType": "Questionnaire",
      "id": "42b967f6-8053-421f-a3fc-20c47a8605cb",
      "identifier": [ {
        "value": "8067b9b2-e604-4414-b56f-8e3cc4de4b1b"
      } ],
      "version": "2011-02-17T17:31:14.313Z",
      "status": "active",
      "experimental": false,
      "date": "2011-02-17T17:31:14+00:00",
      "publisher": "User ID: '3137' User name: 'redacted' User skill set: 'T1'",
      "lastReviewDate": "2011-02-17",
      "jurisdiction": [ {
        "text": "England"
      } ],
      "contact": [ {
        "telecom": [ {
          "system": "phone",
          "value": "redacted"
        } ]
      } ],
      "subjectType": [ "Patient" ],
      "item": [ {
        "linkId": "8067b9b2-e604-4414-b56f-8e3cc4de4b1b",
        "prefix": "0",
        "text": "Speak to Clinician from our Service immediately",
        "type": "choice",
        "required": true,
        "repeats": false,
        "option": [ {
          "valueString": ", Selected: false"
        } ]
      } ]
    }
  }, {
    "fullUrl": "urn:uuid:53365fa0-5b91-4ec9-b19e-1fc12d5caba1",
    "resource": {
      "resourceType": "QuestionnaireResponse",
      "id": "53365fa0-5b91-4ec9-b19e-1fc12d5caba1",
      "identifier": {
        "value": "8067b9b2-e604-4414-b56f-8e3cc4de4b1b"
      },
      "questionnaire": {
        "reference": "urn:uuid:3c18535c-ad93-4e8e-a120-e7d5711fb596"
      },
      "status": "completed",
      "subject": {
        "reference": "urn:uuid:f7500efb-86ab-486c-8e3d-1817daa67e3c"
      },
      "context": {
        "reference": "urn:uuid:723ed3c2-e16a-4055-a1de-9064aa563b4f"
      },
      "authored": "2011-02-17T17:31:14+00:00",
      "item": [ {
        "linkId": "N/A"
      } ]
    }
  }, {
    "fullUrl": "urn:uuid:3c18535c-ad93-4e8e-a120-e7d5711fb596",
    "resource": {
      "resourceType": "Questionnaire",
      "id": "3c18535c-ad93-4e8e-a120-e7d5711fb596",
      "identifier": [ {
        "value": "8067b9b2-e604-4414-b56f-8e3cc4de4b1b"
      } ],
      "version": "2011-02-17T17:31:14.313Z",
      "status": "active",
      "experimental": false,
      "date": "2011-02-17T17:31:14+00:00",
      "publisher": "User ID: '3137' User name: 'redacted' User skill set: 'T1'",
      "lastReviewDate": "2011-02-17",
      "jurisdiction": [ {
        "text": "England"
      } ],
      "contact": [ {
        "telecom": [ {
          "system": "phone",
          "value": "redacted"
        } ]
      } ],
      "subjectType": [ "Patient" ],
      "item": [ {
        "linkId": "8067b9b2-e604-4414-b56f-8e3cc4de4b1b",
        "prefix": "0",
        "type": "choice",
        "required": true,
        "repeats": false,
        "option": [ {
          "valueString": ", Selected: false"
        } ]
      } ]
    }
  }, {
    "fullUrl": "urn:uuid:cc3ecbbe-0186-4fe4-aa08-33ff5a4b4da3",
    "resource": {
      "resourceType": "QuestionnaireResponse",
      "id": "cc3ecbbe-0186-4fe4-aa08-33ff5a4b4da3",
      "identifier": {
        "value": "8067b9b2-e604-4414-b56f-8e3cc4de4b1b"
      },
      "questionnaire": {
        "reference": "urn:uuid:ab90b0b4-d159-4ab6-8dbf-5e8494dbb395"
      },
      "status": "completed",
      "subject": {
        "reference": "urn:uuid:f7500efb-86ab-486c-8e3d-1817daa67e3c"
      },
      "context": {
        "reference": "urn:uuid:723ed3c2-e16a-4055-a1de-9064aa563b4f"
      },
      "authored": "2011-02-17T17:31:14+00:00",
      "item": [ {
        "linkId": "N/A"
      } ]
    }
  }, {
    "fullUrl": "urn:uuid:ab90b0b4-d159-4ab6-8dbf-5e8494dbb395",
    "resource": {
      "resourceType": "Questionnaire",
      "id": "ab90b0b4-d159-4ab6-8dbf-5e8494dbb395",
      "identifier": [ {
        "value": "8067b9b2-e604-4414-b56f-8e3cc4de4b1b"
      } ],
      "version": "2011-02-17T17:31:14.313Z",
      "status": "active",
      "experimental": false,
      "date": "2011-02-17T17:31:14+00:00",
      "publisher": "User ID: '3137' User name: 'redacted' User skill set: 'T1'",
      "lastReviewDate": "2011-02-17",
      "jurisdiction": [ {
        "text": "England"
      } ],
      "contact": [ {
        "telecom": [ {
          "system": "phone",
          "value": "redacted"
        } ]
      } ],
      "subjectType": [ "Patient" ],
      "item": [ {
        "linkId": "8067b9b2-e604-4414-b56f-8e3cc4de4b1b",
        "prefix": "0",
        "type": "choice",
        "required": true,
        "repeats": false,
        "option": [ {
          "valueString": ", Selected: false"
        } ]
      } ]
    }
  }, {
    "fullUrl": "urn:uuid:63a44eb2-d912-44b8-95a1-ef250eefe67c",
    "resource": {
      "resourceType": "QuestionnaireResponse",
      "id": "63a44eb2-d912-44b8-95a1-ef250eefe67c",
      "identifier": {
        "value": "8067b9b2-e604-4414-b56f-8e3cc4de4b1b"
      },
      "questionnaire": {
        "reference": "urn:uuid:8b3d721e-9087-4191-b9ae-46237a281c04"
      },
      "status": "completed",
      "subject": {
        "reference": "urn:uuid:f7500efb-86ab-486c-8e3d-1817daa67e3c"
      },
      "context": {
        "reference": "urn:uuid:723ed3c2-e16a-4055-a1de-9064aa563b4f"
      },
      "authored": "2011-02-17T17:31:14+00:00",
      "item": [ {
        "linkId": "Tx220109",
        "text": "What is the reason for the call?",
        "answer": [ {
          "valueString": "an injury or other health problem"
        } ]
      } ]
    }
  }, {
    "fullUrl": "urn:uuid:8b3d721e-9087-4191-b9ae-46237a281c04",
    "resource": {
      "resourceType": "Questionnaire",
      "id": "8b3d721e-9087-4191-b9ae-46237a281c04",
      "identifier": [ {
        "value": "8067b9b2-e604-4414-b56f-8e3cc4de4b1b"
      } ],
      "version": "2011-02-17T17:31:14.313Z",
      "status": "active",
      "experimental": false,
      "date": "2011-02-17T17:31:14+00:00",
      "publisher": "User ID: '3137' User name: 'redacted' User skill set: 'T1'",
      "lastReviewDate": "2011-02-17",
      "jurisdiction": [ {
        "text": "England"
      } ],
      "contact": [ {
        "telecom": [ {
          "system": "phone",
          "value": "redacted"
        } ]
      } ],
      "subjectType": [ "Patient" ],
      "item": [ {
        "linkId": "8067b9b2-e604-4414-b56f-8e3cc4de4b1b",
        "prefix": "5",
        "text": "What is the reason for the call?",
        "type": "choice",
        "required": true,
        "repeats": false,
        "option": [ {
          "valueString": "an injury or other health problem, Selected: true"
        }, {
          "valueString": "a need to access another healthcare provider, Selected: false"
        }, {
          "valueString": "a healthcare professional requesting contact with another clinician, Selected: false"
        }, {
          "valueString": "a report of results or tests, Selected: false"
        }, {
          "valueString": "more, Selected: false"
        } ]
      } ]
    }
  }, {
    "fullUrl": "urn:uuid:d5f45244-dece-4b95-9bae-0277911294c5",
    "resource": {
      "resourceType": "QuestionnaireResponse",
      "id": "d5f45244-dece-4b95-9bae-0277911294c5",
      "identifier": {
        "value": "8067b9b2-e604-4414-b56f-8e3cc4de4b1b"
      },
      "questionnaire": {
        "reference": "urn:uuid:868741f0-98e6-455b-8396-ec94ed6da053"
      },
      "status": "completed",
      "subject": {
        "reference": "urn:uuid:f7500efb-86ab-486c-8e3d-1817daa67e3c"
      },
      "context": {
        "reference": "urn:uuid:723ed3c2-e16a-4055-a1de-9064aa563b4f"
      },
      "authored": "2011-02-17T17:31:14+00:00",
      "item": [ {
        "linkId": "Tx140118",
        "text": "Has the baby just been born?",
        "answer": [ {
          "valueString": "no"
        } ]
      } ]
    }
  }, {
    "fullUrl": "urn:uuid:868741f0-98e6-455b-8396-ec94ed6da053",
    "resource": {
      "resourceType": "Questionnaire",
      "id": "868741f0-98e6-455b-8396-ec94ed6da053",
      "identifier": [ {
        "value": "8067b9b2-e604-4414-b56f-8e3cc4de4b1b"
      } ],
      "version": "2011-02-17T17:31:14.313Z",
      "status": "active",
      "experimental": false,
      "date": "2011-02-17T17:31:14+00:00",
      "publisher": "User ID: '3137' User name: 'redacted' User skill set: 'T1'",
      "lastReviewDate": "2011-02-17",
      "jurisdiction": [ {
        "text": "England"
      } ],
      "contact": [ {
        "telecom": [ {
          "system": "phone",
          "value": "redacted"
        } ]
      } ],
      "subjectType": [ "Patient" ],
      "item": [ {
        "linkId": "8067b9b2-e604-4414-b56f-8e3cc4de4b1b",
        "prefix": "35",
        "text": "Has the baby just been born?",
        "type": "choice",
        "required": true,
        "repeats": false,
        "option": [ {
          "valueString": "yes, Selected: false"
        }, {
          "valueString": "not sure, Selected: false"
        }, {
          "valueString": "no, Selected: true"
        } ]
      } ]
    }
  }, {
    "fullUrl": "urn:uuid:c3a31c02-8ccc-46cd-bdc5-eeab244787ab",
    "resource": {
      "resourceType": "QuestionnaireResponse",
      "id": "c3a31c02-8ccc-46cd-bdc5-eeab244787ab",
      "identifier": {
        "value": "8067b9b2-e604-4414-b56f-8e3cc4de4b1b"
      },
      "questionnaire": {
        "reference": "urn:uuid:4918cc27-899a-4c0a-8c7e-e0a615f486d0"
      },
      "status": "completed",
      "subject": {
        "reference": "urn:uuid:f7500efb-86ab-486c-8e3d-1817daa67e3c"
      },
      "context": {
        "reference": "urn:uuid:723ed3c2-e16a-4055-a1de-9064aa563b4f"
      },
      "authored": "2011-02-17T17:31:14+00:00",
      "item": [ {
        "linkId": "Tx220110",
        "text": "Is he breathing and conscious?",
        "answer": [ {
          "valueString": "breathing AND conscious"
        } ]
      } ]
    }
  }, {
    "fullUrl": "urn:uuid:4918cc27-899a-4c0a-8c7e-e0a615f486d0",
    "resource": {
      "resourceType": "Questionnaire",
      "id": "4918cc27-899a-4c0a-8c7e-e0a615f486d0",
      "identifier": [ {
        "value": "8067b9b2-e604-4414-b56f-8e3cc4de4b1b"
      } ],
      "version": "2011-02-17T17:31:14.313Z",
      "status": "active",
      "experimental": false,
      "date": "2011-02-17T17:31:14+00:00",
      "publisher": "User ID: '3137' User name: 'redacted' User skill set: 'T1'",
      "lastReviewDate": "2011-02-17",
      "jurisdiction": [ {
        "text": "England"
      } ],
      "contact": [ {
        "telecom": [ {
          "system": "phone",
          "value": "redacted"
        } ]
      } ],
      "subjectType": [ "Patient" ],
      "item": [ {
        "linkId": "8067b9b2-e604-4414-b56f-8e3cc4de4b1b",
        "prefix": "40",
        "text": "Is he breathing and conscious?",
        "type": "choice",
        "required": true,
        "repeats": false,
        "option": [ {
          "valueString": "breathing AND conscious, Selected: true"
        }, {
          "valueString": "breathing but NOT conscious (includes current fitting), Selected: false"
        }, {
          "valueString": "NOT breathing, Selected: false"
        }, {
          "valueString": "choking now, Selected: false"
        } ]
      } ]
    }
  }, {
    "fullUrl": "urn:uuid:236fa3c2-41f2-491b-9675-c3544cb1a572",
    "resource": {
      "resourceType": "QuestionnaireResponse",
      "id": "236fa3c2-41f2-491b-9675-c3544cb1a572",
      "identifier": {
        "value": "8067b9b2-e604-4414-b56f-8e3cc4de4b1b"
      },
      "questionnaire": {
        "reference": "urn:uuid:dd450a7b-e70a-4e39-99e5-70c1792a6c33"
      },
      "status": "completed",
      "subject": {
        "reference": "urn:uuid:f7500efb-86ab-486c-8e3d-1817daa67e3c"
      },
      "context": {
        "reference": "urn:uuid:723ed3c2-e16a-4055-a1de-9064aa563b4f"
      },
      "authored": "2011-02-17T17:31:14+00:00",
      "item": [ {
        "linkId": "Tx220285",
        "text": "Has he been bleeding very heavily IN THE LAST HOUR?",
        "answer": [ {
          "valueString": "an egg cupful or more from a wound"
        } ]
      } ]
    }
  }, {
    "fullUrl": "urn:uuid:dd450a7b-e70a-4e39-99e5-70c1792a6c33",
    "resource": {
      "resourceType": "Questionnaire",
      "id": "dd450a7b-e70a-4e39-99e5-70c1792a6c33",
      "identifier": [ {
        "value": "8067b9b2-e604-4414-b56f-8e3cc4de4b1b"
      } ],
      "version": "2011-02-17T17:31:14.313Z",
      "status": "active",
      "experimental": false,
      "date": "2011-02-17T17:31:14+00:00",
      "publisher": "User ID: '3137' User name: 'redacted' User skill set: 'T1'",
      "lastReviewDate": "2011-02-17",
      "jurisdiction": [ {
        "text": "England"
      } ],
      "contact": [ {
        "telecom": [ {
          "system": "phone",
          "value": "redacted"
        } ]
      } ],
      "subjectType": [ "Patient" ],
      "item": [ {
        "linkId": "8067b9b2-e604-4414-b56f-8e3cc4de4b1b",
        "prefix": "60",
        "text": "Has he been bleeding very heavily IN THE LAST HOUR?",
        "type": "choice",
        "required": true,
        "repeats": false,
        "option": [ {
          "valueString": "blood spurting from a wound, Selected: false"
        }, {
          "valueString": "an egg cupful or more of red blood from a body opening, Selected: false"
        }, {
          "valueString": "an egg cupful or more from a wound, Selected: true"
        }, {
          "valueString": "not sure, Selected: false"
        }, {
          "valueString": "no, Selected: false"
        } ]
      } ]
    }
  }, {
    "fullUrl": "urn:uuid:52d13248-dd46-4dc1-ab60-50c9c94d6620",
    "resource": {
      "resourceType": "QuestionnaireResponse",
      "id": "52d13248-dd46-4dc1-ab60-50c9c94d6620",
      "identifier": {
        "value": "8067b9b2-e604-4414-b56f-8e3cc4de4b1b"
      },
      "questionnaire": {
        "reference": "urn:uuid:52fb43b1-8589-4238-a448-d674d8ec8a5f"
      },
      "status": "completed",
      "subject": {
        "reference": "urn:uuid:f7500efb-86ab-486c-8e3d-1817daa67e3c"
      },
      "context": {
        "reference": "urn:uuid:723ed3c2-e16a-4055-a1de-9064aa563b4f"
      },
      "authored": "2011-02-17T17:31:14+00:00",
      "item": [ {
        "linkId": "Tx140109",
        "text": "Is he fighting desperately for every breath?",
        "answer": [ {
          "valueString": "no"
        } ]
      } ]
    }
  }, {
    "fullUrl": "urn:uuid:52fb43b1-8589-4238-a448-d674d8ec8a5f",
    "resource": {
      "resourceType": "Questionnaire",
      "id": "52fb43b1-8589-4238-a448-d674d8ec8a5f",
      "identifier": [ {
        "value": "8067b9b2-e604-4414-b56f-8e3cc4de4b1b"
      } ],
      "version": "2011-02-17T17:31:14.313Z",
      "status": "active",
      "experimental": false,
      "date": "2011-02-17T17:31:14+00:00",
      "publisher": "User ID: '3137' User name: 'redacted' User skill set: 'T1'",
      "lastReviewDate": "2011-02-17",
      "jurisdiction": [ {
        "text": "England"
      } ],
      "contact": [ {
        "telecom": [ {
          "system": "phone",
          "value": "redacted"
        } ]
      } ],
      "subjectType": [ "Patient" ],
      "item": [ {
        "linkId": "8067b9b2-e604-4414-b56f-8e3cc4de4b1b",
        "prefix": "20000",
        "text": "Is he fighting desperately for every breath?",
        "type": "choice",
        "required": true,
        "repeats": false,
        "option": [ {
          "valueString": "yes, Selected: false"
        }, {
          "valueString": "not sure, Selected: false"
        }, {
          "valueString": "no, Selected: true"
        } ]
      } ]
    }
  }, {
    "fullUrl": "urn:uuid:8200157b-8442-4606-a77e-ed768b2e49e2",
    "resource": {
      "resourceType": "QuestionnaireResponse",
      "id": "8200157b-8442-4606-a77e-ed768b2e49e2",
      "identifier": {
        "value": "8067b9b2-e604-4414-b56f-8e3cc4de4b1b"
      },
      "questionnaire": {
        "reference": "urn:uuid:6c5e03bf-99d5-4f40-a417-47e4389deb46"
      },
      "status": "completed",
      "subject": {
        "reference": "urn:uuid:f7500efb-86ab-486c-8e3d-1817daa67e3c"
      },
      "context": {
        "reference": "urn:uuid:723ed3c2-e16a-4055-a1de-9064aa563b4f"
      },
      "authored": "2011-02-17T17:31:14+00:00",
      "item": [ {
        "linkId": "Tx220563",
        "text": "Is he limp, floppy and/or unresponsive?",
        "answer": [ {
          "valueString": "no"
        } ]
      } ]
    }
  }, {
    "fullUrl": "urn:uuid:6c5e03bf-99d5-4f40-a417-47e4389deb46",
    "resource": {
      "resourceType": "Questionnaire",
      "id": "6c5e03bf-99d5-4f40-a417-47e4389deb46",
      "identifier": [ {
        "value": "8067b9b2-e604-4414-b56f-8e3cc4de4b1b"
      } ],
      "version": "2011-02-17T17:31:14.313Z",
      "status": "active",
      "experimental": false,
      "date": "2011-02-17T17:31:14+00:00",
      "publisher": "User ID: '3137' User name: 'redacted' User skill set: 'T1'",
      "lastReviewDate": "2011-02-17",
      "jurisdiction": [ {
        "text": "England"
      } ],
      "contact": [ {
        "telecom": [ {
          "system": "phone",
          "value": "redacted"
        } ]
      } ],
      "subjectType": [ "Patient" ],
      "item": [ {
        "linkId": "8067b9b2-e604-4414-b56f-8e3cc4de4b1b",
        "prefix": "20400",
        "text": "Is he limp, floppy and/or unresponsive?",
        "type": "choice",
        "required": true,
        "repeats": false,
        "option": [ {
          "valueString": "yes, Selected: false"
        }, {
          "valueString": "not sure, Selected: false"
        }, {
          "valueString": "no, Selected: true"
        } ]
      } ]
    }
  }, {
    "fullUrl": "urn:uuid:9824ef7f-d40e-42a8-890a-d85726928e05",
    "resource": {
      "resourceType": "QuestionnaireResponse",
      "id": "9824ef7f-d40e-42a8-890a-d85726928e05",
      "identifier": {
        "value": "8067b9b2-e604-4414-b56f-8e3cc4de4b1b"
      },
      "questionnaire": {
        "reference": "urn:uuid:d3b7519c-9779-4321-9734-758d5d428f90"
      },
      "status": "completed",
      "subject": {
        "reference": "urn:uuid:f7500efb-86ab-486c-8e3d-1817daa67e3c"
      },
      "context": {
        "reference": "urn:uuid:723ed3c2-e16a-4055-a1de-9064aa563b4f"
      },
      "authored": "2011-02-17T17:31:14+00:00",
      "item": [ {
        "linkId": "Tx220561",
        "text": "Is he warm to touch?",
        "answer": [ {
          "valueString": "yes"
        } ]
      } ]
    }
  }, {
    "fullUrl": "urn:uuid:d3b7519c-9779-4321-9734-758d5d428f90",
    "resource": {
      "resourceType": "Questionnaire",
      "id": "d3b7519c-9779-4321-9734-758d5d428f90",
      "identifier": [ {
        "value": "8067b9b2-e604-4414-b56f-8e3cc4de4b1b"
      } ],
      "version": "2011-02-17T17:31:14.313Z",
      "status": "active",
      "experimental": false,
      "date": "2011-02-17T17:31:14+00:00",
      "publisher": "User ID: '3137' User name: 'redacted' User skill set: 'T1'",
      "lastReviewDate": "2011-02-17",
      "jurisdiction": [ {
        "text": "England"
      } ],
      "contact": [ {
        "telecom": [ {
          "system": "phone",
          "value": "redacted"
        } ]
      } ],
      "subjectType": [ "Patient" ],
      "item": [ {
        "linkId": "8067b9b2-e604-4414-b56f-8e3cc4de4b1b",
        "prefix": "20450",
        "text": "Is he warm to touch?",
        "type": "choice",
        "required": true,
        "repeats": false,
        "option": [ {
          "valueString": "yes, Selected: true"
        }, {
          "valueString": "not sure, Selected: false"
        }, {
          "valueString": "no, Selected: false"
        }, {
          "valueString": "not safe to touch, Selected: false"
        } ]
      } ]
    }
  }, {
    "fullUrl": "urn:uuid:9683b5f4-e7e1-4211-9db2-ff07bc1e792e",
    "resource": {
      "resourceType": "QuestionnaireResponse",
      "id": "9683b5f4-e7e1-4211-9db2-ff07bc1e792e",
      "identifier": {
        "value": "8067b9b2-e604-4414-b56f-8e3cc4de4b1b"
      },
      "questionnaire": {
        "reference": "urn:uuid:955ed57a-868c-4b47-a38e-88bd64ac1a18"
      },
      "status": "completed",
      "subject": {
        "reference": "urn:uuid:f7500efb-86ab-486c-8e3d-1817daa67e3c"
      },
      "context": {
        "reference": "urn:uuid:723ed3c2-e16a-4055-a1de-9064aa563b4f"
      },
      "authored": "2011-02-17T17:31:14+00:00",
      "item": [ {
        "linkId": "Tx120019",
        "text": "Was the injury caused by any of the following?",
        "answer": [ {
          "valueString": "no"
        } ]
      } ]
    }
  }, {
    "fullUrl": "urn:uuid:955ed57a-868c-4b47-a38e-88bd64ac1a18",
    "resource": {
      "resourceType": "Questionnaire",
      "id": "955ed57a-868c-4b47-a38e-88bd64ac1a18",
      "identifier": [ {
        "value": "8067b9b2-e604-4414-b56f-8e3cc4de4b1b"
      } ],
      "version": "2011-02-17T17:31:14.313Z",
      "status": "active",
      "experimental": false,
      "date": "2011-02-17T17:31:14+00:00",
      "publisher": "User ID: '3137' User name: 'redacted' User skill set: 'T1'",
      "lastReviewDate": "2011-02-17",
      "jurisdiction": [ {
        "text": "England"
      } ],
      "contact": [ {
        "telecom": [ {
          "system": "phone",
          "value": "redacted"
        } ]
      } ],
      "subjectType": [ "Patient" ],
      "item": [ {
        "linkId": "8067b9b2-e604-4414-b56f-8e3cc4de4b1b",
        "prefix": "20800",
        "text": "Was the injury caused by any of the following?",
        "type": "choice",
        "required": true,
        "repeats": false,
        "option": [ {
          "valueString": "a gunshot, Selected: false"
        }, {
          "valueString": "a stabbing, Selected: false"
        }, {
          "valueString": "being ejected from a vehicle, Selected: false"
        }, {
          "valueString": "not sure, Selected: false"
        }, {
          "valueString": "no, Selected: true"
        } ]
      } ]
    }
  }, {
    "fullUrl": "urn:uuid:348a0891-c2d2-4de3-8666-2d93c2c643a1",
    "resource": {
      "resourceType": "QuestionnaireResponse",
      "id": "348a0891-c2d2-4de3-8666-2d93c2c643a1",
      "identifier": {
        "value": "8067b9b2-e604-4414-b56f-8e3cc4de4b1b"
      },
      "questionnaire": {
        "reference": "urn:uuid:e52bf221-8c12-453d-80b8-836ab8c99869"
      },
      "status": "completed",
      "subject": {
        "reference": "urn:uuid:f7500efb-86ab-486c-8e3d-1817daa67e3c"
      },
      "context": {
        "reference": "urn:uuid:723ed3c2-e16a-4055-a1de-9064aa563b4f"
      },
      "authored": "2011-02-17T17:31:14+00:00",
      "item": [ {
        "linkId": "Tx220286",
        "text": "DID THE INJURY INVOLVE ANY OF THE FOLLOWING?",
        "answer": [ {
          "valueString": "no"
        } ]
      } ]
    }
  }, {
    "fullUrl": "urn:uuid:e52bf221-8c12-453d-80b8-836ab8c99869",
    "resource": {
      "resourceType": "Questionnaire",
      "id": "e52bf221-8c12-453d-80b8-836ab8c99869",
      "identifier": [ {
        "value": "8067b9b2-e604-4414-b56f-8e3cc4de4b1b"
      } ],
      "version": "2011-02-17T17:31:14.313Z",
      "status": "active",
      "experimental": false,
      "date": "2011-02-17T17:31:14+00:00",
      "publisher": "User ID: '3137' User name: 'redacted' User skill set: 'T1'",
      "lastReviewDate": "2011-02-17",
      "jurisdiction": [ {
        "text": "England"
      } ],
      "contact": [ {
        "telecom": [ {
          "system": "phone",
          "value": "redacted"
        } ]
      } ],
      "subjectType": [ "Patient" ],
      "item": [ {
        "linkId": "8067b9b2-e604-4414-b56f-8e3cc4de4b1b",
        "prefix": "23100",
        "text": "DID THE INJURY INVOLVE ANY OF THE FOLLOWING?",
        "type": "choice",
        "required": true,
        "repeats": false,
        "option": [ {
          "valueString": "a fall of 5 metres or more (specify), Selected: false"
        }, {
          "valueString": "multiple major injuries (specify), Selected: false"
        }, {
          "valueString": "major wound or amputation - not just involving a single finger or toe (specify), Selected: false"
        }, {
          "valueString": "being knocked over by a blast (specify), Selected: false"
        }, {
          "valueString": "not sure, Selected: false"
        }, {
          "valueString": "no, Selected: true"
        } ]
      } ]
    }
  }, {
    "fullUrl": "urn:uuid:82445111-c53f-4034-bb34-f0cb6265b4f0",
    "resource": {
      "resourceType": "QuestionnaireResponse",
      "id": "82445111-c53f-4034-bb34-f0cb6265b4f0",
      "identifier": {
        "value": "8067b9b2-e604-4414-b56f-8e3cc4de4b1b"
      },
      "questionnaire": {
        "reference": "urn:uuid:6671ada0-cfc6-4b82-8914-31c469fb2fda"
      },
      "status": "completed",
      "subject": {
        "reference": "urn:uuid:f7500efb-86ab-486c-8e3d-1817daa67e3c"
      },
      "context": {
        "reference": "urn:uuid:723ed3c2-e16a-4055-a1de-9064aa563b4f"
      },
      "authored": "2011-02-17T17:31:14+00:00",
      "item": [ {
        "linkId": "Tx140159",
        "text": "What is the reason for ending the assessment?",
        "answer": [ {
          "valueString": "transfer to a clinician"
        } ]
      } ]
    }
  }, {
    "fullUrl": "urn:uuid:6671ada0-cfc6-4b82-8914-31c469fb2fda",
    "resource": {
      "resourceType": "Questionnaire",
      "id": "6671ada0-cfc6-4b82-8914-31c469fb2fda",
      "identifier": [ {
        "value": "8067b9b2-e604-4414-b56f-8e3cc4de4b1b"
      } ],
      "version": "2011-02-17T17:31:14.313Z",
      "status": "active",
      "experimental": false,
      "date": "2011-02-17T17:31:14+00:00",
      "publisher": "User ID: '3137' User name: 'redacted' User skill set: 'T1'",
      "lastReviewDate": "2011-02-17",
      "jurisdiction": [ {
        "text": "England"
      } ],
      "contact": [ {
        "telecom": [ {
          "system": "phone",
          "value": "redacted"
        } ]
      } ],
      "subjectType": [ "Patient" ],
      "item": [ {
        "linkId": "8067b9b2-e604-4414-b56f-8e3cc4de4b1b",
        "prefix": "0",
        "text": "What is the reason for ending the assessment?",
        "type": "choice",
        "required": true,
        "repeats": false,
        "option": [ {
          "valueString": "the phone line went dead, Selected: false"
        }, {
          "valueString": "the caller terminated the call (specify), Selected: false"
        }, {
          "valueString": "I terminated the call (specify), Selected: false"
        }, {
          "valueString": "triage not possible, Selected: false"
        }, {
          "valueString": "transfer to a clinician, Selected: true"
        } ]
      } ]
    }
  }, {
    "fullUrl": "urn:uuid:329aec80-5d7a-4b5c-8b63-5f6a38b2e765",
    "resource": {
      "resourceType": "QuestionnaireResponse",
      "id": "329aec80-5d7a-4b5c-8b63-5f6a38b2e765",
      "identifier": {
        "value": "8067b9b2-e604-4414-b56f-8e3cc4de4b1b"
      },
      "questionnaire": {
        "reference": "urn:uuid:e70670bc-69c5-41af-9772-c0dbf972393a"
      },
      "status": "completed",
      "subject": {
        "reference": "urn:uuid:f7500efb-86ab-486c-8e3d-1817daa67e3c"
      },
      "context": {
        "reference": "urn:uuid:723ed3c2-e16a-4055-a1de-9064aa563b4f"
      },
      "authored": "2011-02-17T17:31:14+00:00",
      "item": [ {
        "linkId": "Tx220286",
        "text": "DID THE INJURY INVOLVE ANY OF THE FOLLOWING?",
        "answer": [ {
          "valueString": "no"
        } ]
      } ]
    }
  }, {
    "fullUrl": "urn:uuid:e70670bc-69c5-41af-9772-c0dbf972393a",
    "resource": {
      "resourceType": "Questionnaire",
      "id": "e70670bc-69c5-41af-9772-c0dbf972393a",
      "identifier": [ {
        "value": "8067b9b2-e604-4414-b56f-8e3cc4de4b1b"
      } ],
      "version": "2011-02-17T17:31:14.313Z",
      "status": "active",
      "experimental": false,
      "date": "2011-02-17T17:31:14+00:00",
      "publisher": "User ID: '3137' User name: 'redacted' User skill set: 'T1'",
      "lastReviewDate": "2011-02-17",
      "jurisdiction": [ {
        "text": "England"
      } ],
      "contact": [ {
        "telecom": [ {
          "system": "phone",
          "value": "redacted"
        } ]
      } ],
      "subjectType": [ "Patient" ],
      "item": [ {
        "linkId": "8067b9b2-e604-4414-b56f-8e3cc4de4b1b",
        "prefix": "23100",
        "text": "DID THE INJURY INVOLVE ANY OF THE FOLLOWING?",
        "type": "choice",
        "required": true,
        "repeats": false,
        "option": [ {
          "valueString": "a fall of 5 metres or more (specify), Selected: false"
        }, {
          "valueString": "multiple major injuries (specify), Selected: false"
        }, {
          "valueString": "major wound or amputation - not just involving a single finger or toe (specify), Selected: false"
        }, {
          "valueString": "being knocked over by a blast (specify), Selected: false"
        }, {
          "valueString": "not sure, Selected: false"
        }, {
          "valueString": "no, Selected: true"
        } ]
      } ]
    }
  }, {
    "fullUrl": "urn:uuid:3bb72739-b6f1-4129-b390-e534c4a16cd6",
    "resource": {
      "resourceType": "QuestionnaireResponse",
      "id": "3bb72739-b6f1-4129-b390-e534c4a16cd6",
      "identifier": {
        "value": "8067b9b2-e604-4414-b56f-8e3cc4de4b1b"
      },
      "questionnaire": {
        "reference": "urn:uuid:ce455577-ba20-49c3-8343-a438fd72761a"
      },
      "status": "completed",
      "subject": {
        "reference": "urn:uuid:f7500efb-86ab-486c-8e3d-1817daa67e3c"
      },
      "context": {
        "reference": "urn:uuid:723ed3c2-e16a-4055-a1de-9064aa563b4f"
      },
      "authored": "2011-02-17T17:31:14+00:00",
      "item": [ {
        "linkId": "N/A",
        "text": "Dispatch 19 minute ambulance"
      } ]
    }
  }, {
    "fullUrl": "urn:uuid:ce455577-ba20-49c3-8343-a438fd72761a",
    "resource": {
      "resourceType": "Questionnaire",
      "id": "ce455577-ba20-49c3-8343-a438fd72761a",
      "identifier": [ {
        "value": "8067b9b2-e604-4414-b56f-8e3cc4de4b1b"
      } ],
      "version": "2011-02-17T17:31:14.313Z",
      "status": "active",
      "experimental": false,
      "date": "2011-02-17T17:31:14+00:00",
      "publisher": "User ID: '3137' User name: 'redacted' User skill set: 'T1'",
      "lastReviewDate": "2011-02-17",
      "jurisdiction": [ {
        "text": "England"
      } ],
      "contact": [ {
        "telecom": [ {
          "system": "phone",
          "value": "redacted"
        } ]
      } ],
      "subjectType": [ "Patient" ],
      "item": [ {
        "linkId": "8067b9b2-e604-4414-b56f-8e3cc4de4b1b",
        "prefix": "24100",
        "text": "Dispatch 19 minute ambulance",
        "type": "choice",
        "required": true,
        "repeats": false,
        "option": [ {
          "valueString": ", Selected: false"
        } ]
      } ]
    }
  }, {
    "fullUrl": "urn:uuid:4c41f293-6a3a-4260-b2b6-1426fad6072c",
    "resource": {
      "resourceType": "PractitionerRole",
      "id": "4c41f293-6a3a-4260-b2b6-1426fad6072c",
      "practitioner": {
        "reference": "urn:uuid:14d31d32-ae23-473f-bcc2-05082c807565"
      },
      "organization": {
        "reference": "urn:uuid:edd82a94-b067-44f1-8449-098681ec4b60"
      },
      "code": [ {
        "coding": [ {
          "system": "2.16.840.1.113883.2.1.3.2.4.17.196",
          "code": "T1",
          "display": "Nurse Triage Practitioner"
        } ]
      } ]
    }
  }, {
    "fullUrl": "urn:uuid:edd82a94-b067-44f1-8449-098681ec4b60",
    "resource": {
      "resourceType": "Organization",
      "id": "edd82a94-b067-44f1-8449-098681ec4b60",
      "identifier": [ {
        "value": "5L399"
      } ],
      "name": "Medway NHS Foundation Trust"
    }
  }, {
    "fullUrl": "urn:uuid:e3773897-85a0-4c7d-b291-a9147375123a",
    "resource": {
      "resourceType": "PractitionerRole",
      "id": "e3773897-85a0-4c7d-b291-a9147375123a",
      "practitioner": {
        "reference": "urn:uuid:7d8d93cf-785a-42a8-b1f3-d2c9277b64c9"
      },
      "organization": {
        "reference": "urn:uuid:daa2a8f6-a488-46b7-ae4b-ebb5563dde2e"
      },
      "code": [ {
        "coding": [ {
          "system": "2.16.840.1.113883.2.1.3.2.4.17.196",
          "code": "R0010",
          "display": "Medical Director"
        } ]
      } ]
    }
  }, {
    "fullUrl": "urn:uuid:daa2a8f6-a488-46b7-ae4b-ebb5563dde2e",
    "resource": {
      "resourceType": "Organization",
      "id": "daa2a8f6-a488-46b7-ae4b-ebb5563dde2e",
      "identifier": [ {
        "value": "VDE232323"
      } ],
      "name": "Medway South Out of Hours Centre"
    }
  }, {
    "fullUrl": "urn:uuid:1dfbecef-c6d4-4d0a-a206-fa2ad942711f",
    "resource": {
      "resourceType": "Device",
      "id": "1dfbecef-c6d4-4d0a-a206-fa2ad942711f",
      "model": "111 Adaptor",
      "version": "1.0.3"
    }
  }, {
    "fullUrl": "urn:uuid:11fee1fe-ba40-4e58-ba1c-302a1f54ac04",
    "resource": {
      "resourceType": "List",
      "id": "11fee1fe-ba40-4e58-ba1c-302a1f54ac04",
      "status": "current",
      "mode": "working",
      "title": "111 Report List",
      "code": {
        "coding": [ {
          "system": "http://snomed.info/sct",
          "code": "225390008",
          "display": "Triage"
        } ]
      },
      "subject": {
        "reference": "urn:uuid:f7500efb-86ab-486c-8e3d-1817daa67e3c"
      },
      "encounter": {
        "reference": "urn:uuid:723ed3c2-e16a-4055-a1de-9064aa563b4f"
      },
      "date": "2017-01-01T20:00:00+00:00",
      "source": {
        "reference": "urn:uuid:1dfbecef-c6d4-4d0a-a206-fa2ad942711f"
      },
      "orderedBy": {
        "coding": [ {
          "system": "http://hl7.org/fhir/list-order",
          "code": "event-date",
          "display": "Sorted by Event Date"
        } ]
      },
      "entry": [ {
        "item": {
          "reference": "urn:uuid:7482466b-10fc-43e4-8a09-f3549c6b2ac3"
        }
      }, {
        "item": {
          "reference": "urn:uuid:2bcdbd5b-d78b-4b98-a023-b2e48203963e"
        }
      }, {
        "item": {
          "reference": "urn:uuid:daa2a8f6-a488-46b7-ae4b-ebb5563dde2e"
        }
      }, {
        "item": {
          "reference": "urn:uuid:14d31d32-ae23-473f-bcc2-05082c807565"
        }
      }, {
        "item": {
          "reference": "urn:uuid:70fc5535-d30c-4fff-a301-a0c7e124b3f2"
        }
      }, {
        "item": {
          "reference": "urn:uuid:9a804c6e-3659-4d2c-9b14-f357adf7aa13"
        }
      }, {
        "item": {
          "reference": "urn:uuid:aa60592a-8d4d-4adf-85a9-ae27aa28df97"
        }
      }, {
        "item": {
          "reference": "urn:uuid:d3aaf56c-34bd-47d1-8d40-de1dd919d588"
        }
      }, {
        "item": {
          "reference": "urn:uuid:54da869d-b779-4a7f-8edb-7896d6abac12"
        }
      }, {
        "item": {
          "reference": "urn:uuid:edd82a94-b067-44f1-8449-098681ec4b60"
        }
      }, {
        "item": {
          "reference": "urn:uuid:7d8d93cf-785a-42a8-b1f3-d2c9277b64c9"
        }
      }, {
        "item": {
          "reference": "urn:uuid:05c12e65-6863-4d34-8288-75b65afe50af"
        }
      }, {
        "item": {
          "reference": "urn:uuid:25486ae7-6a5e-4632-a8bb-c87c4b754b65"
        }
      }, {
        "item": {
          "reference": "urn:uuid:63398ce6-a3ea-432a-9392-a03311c55ec7"
        }
      }, {
        "item": {
          "reference": "urn:uuid:94bb9276-6a20-4cb1-bc8b-1b437a8e26a1"
        }
      }, {
        "item": {
          "reference": "urn:uuid:3bead0a0-7d05-46e1-a90f-13067ceaaaea"
        }
      }, {
        "item": {
          "reference": "urn:uuid:33c94cbc-eaed-40c8-b7ca-ecb781f3264c"
        }
      }, {
        "item": {
          "reference": "urn:uuid:87d95e99-3845-4731-952e-72dda746eb7b"
        }
      }, {
        "item": {
          "reference": "urn:uuid:aecf3f94-7e45-4a11-b3ef-ec28927b28de"
        }
      }, {
        "item": {
          "reference": "urn:uuid:f73b10f1-9df7-4939-9733-481330f8d3a5"
        }
      }, {
        "item": {
          "reference": "urn:uuid:a83dc965-3083-415e-81a4-c6d7c61ad4a6"
        }
      }, {
        "item": {
          "reference": "urn:uuid:53365fa0-5b91-4ec9-b19e-1fc12d5caba1"
        }
      }, {
        "item": {
          "reference": "urn:uuid:ab90b0b4-d159-4ab6-8dbf-5e8494dbb395"
        }
      }, {
        "item": {
          "reference": "urn:uuid:955ed57a-868c-4b47-a38e-88bd64ac1a18"
        }
      }, {
        "item": {
          "reference": "urn:uuid:52d13248-dd46-4dc1-ab60-50c9c94d6620"
        }
      }, {
        "item": {
          "reference": "urn:uuid:cc3ecbbe-0186-4fe4-aa08-33ff5a4b4da3"
        }
      }, {
        "item": {
          "reference": "urn:uuid:9683b5f4-e7e1-4211-9db2-ff07bc1e792e"
        }
      }, {
        "item": {
          "reference": "urn:uuid:63a44eb2-d912-44b8-95a1-ef250eefe67c"
        }
      }, {
        "item": {
          "reference": "urn:uuid:42b967f6-8053-421f-a3fc-20c47a8605cb"
        }
      }, {
        "item": {
          "reference": "urn:uuid:875a29ca-aad5-4eb4-83c4-62160976de2d"
        }
      }, {
        "item": {
          "reference": "urn:uuid:7c4c6f13-fe8c-4876-af69-97b6dc0b48c6"
        }
      }, {
        "item": {
          "reference": "urn:uuid:8b3d721e-9087-4191-b9ae-46237a281c04"
        }
      }, {
        "item": {
          "reference": "urn:uuid:b146b9e3-2418-4fda-bc84-77595eb9424a"
        }
      }, {
        "item": {
          "reference": "urn:uuid:08d158c7-1af4-4911-8389-70c56899d4b5"
        }
      }, {
        "item": {
          "reference": "urn:uuid:289fa9db-b9b4-45d4-b017-8d5dbcf512be"
        }
      }, {
        "item": {
          "reference": "urn:uuid:74b13883-c8c3-4862-b06b-3da866d455c1"
        }
      }, {
        "item": {
          "reference": "urn:uuid:6c5e03bf-99d5-4f40-a417-47e4389deb46"
        }
      }, {
        "item": {
          "reference": "urn:uuid:11f13253-6564-44da-b5b0-b1d006aa6649"
        }
      }, {
        "item": {
          "reference": "urn:uuid:3c18535c-ad93-4e8e-a120-e7d5711fb596"
        }
      }, {
        "item": {
          "reference": "urn:uuid:6671ada0-cfc6-4b82-8914-31c469fb2fda"
        }
      }, {
        "item": {
          "reference": "urn:uuid:195548a5-92c1-4f26-92cf-41caadafe932"
        }
      }, {
        "item": {
          "reference": "urn:uuid:d2af0c60-c479-4e54-8a9d-75b2de3d483e"
        }
      }, {
        "item": {
          "reference": "urn:uuid:3bb72739-b6f1-4129-b390-e534c4a16cd6"
        }
      }, {
        "item": {
          "reference": "urn:uuid:329aec80-5d7a-4b5c-8b63-5f6a38b2e765"
        }
      }, {
        "item": {
          "reference": "urn:uuid:4918cc27-899a-4c0a-8c7e-e0a615f486d0"
        }
      }, {
        "item": {
          "reference": "urn:uuid:c7b12f5c-a4f9-447b-90db-7e4c91edd9e8"
        }
      }, {
        "item": {
          "reference": "urn:uuid:6a556cef-7aa9-4b2a-9647-60341b974fc7"
        }
      }, {
        "item": {
          "reference": "urn:uuid:82445111-c53f-4034-bb34-f0cb6265b4f0"
        }
      }, {
        "item": {
          "reference": "urn:uuid:236fa3c2-41f2-491b-9675-c3544cb1a572"
        }
      }, {
        "item": {
          "reference": "urn:uuid:8200157b-8442-4606-a77e-ed768b2e49e2"
        }
      }, {
        "item": {
          "reference": "urn:uuid:d5f45244-dece-4b95-9bae-0277911294c5"
        }
      }, {
        "item": {
          "reference": "urn:uuid:ce455577-ba20-49c3-8343-a438fd72761a"
        }
      }, {
        "item": {
          "reference": "urn:uuid:2f7298c2-8f85-41ef-b5c2-16e0dda2488e"
        }
      }, {
        "item": {
          "reference": "urn:uuid:e70670bc-69c5-41af-9772-c0dbf972393a"
        }
      }, {
        "item": {
          "reference": "urn:uuid:c3a31c02-8ccc-46cd-bdc5-eeab244787ab"
        }
      }, {
        "item": {
          "reference": "urn:uuid:dd450a7b-e70a-4e39-99e5-70c1792a6c33"
        }
      }, {
        "item": {
          "reference": "urn:uuid:9824ef7f-d40e-42a8-890a-d85726928e05"
        }
      }, {
        "item": {
          "reference": "urn:uuid:e52bf221-8c12-453d-80b8-836ab8c99869"
        }
      }, {
        "item": {
          "reference": "urn:uuid:348a0891-c2d2-4de3-8666-2d93c2c643a1"
        }
      }, {
        "item": {
          "reference": "urn:uuid:868741f0-98e6-455b-8396-ec94ed6da053"
        }
      }, {
        "item": {
          "reference": "urn:uuid:d3b7519c-9779-4321-9734-758d5d428f90"
        }
      }, {
        "item": {
          "reference": "urn:uuid:52fb43b1-8589-4238-a448-d674d8ec8a5f"
        }
      } ]
    }
  } ]
}