{
  "resourceType": "Bundle",
  "identifier": {
    "type": {
      "text": "ClinicalDocument VersionNumber"
    },
    "value": "2"
  },
  "type": "message",
  "entry": [
    {
      "fullUrl": "urn:uuid:2B77B3F5-3016-4A6D-821F-152CE420E58D",
      "resource": {
        "resourceType": "MessageHeader",
        "id": "2B77B3F5-3016-4A6D-821F-152CE420E58D",
        "event": {
          "system": "https://fhir.nhs.uk/STU3/CodeSystem/EventType-1",
          "code": "referral-1",
          "display": "Referral"
        },
        "destination": [
          {
            "endpoint": "urn:nhs-uk:addressing:ods:EM396"
          }
        ],
        "timestamp": "2017-01-01T20:00:00.000+00:00",
        "source": {
          "name": "NHS 111 Adaptor",
          "endpoint": "http://localhost:8080/report"
        },
        "reason": {
          "coding": [
            {
              "system": "urn:nhs-itk:ns:201005:interaction",
              "code": "urn:nhs-itk:interaction:primaryEmergencyDepartmentRecipientNHS111CDADocument-v2-0"
            }
          ]
        }
      }
    },
    {
      "fullUrl": "urn:uuid:d66911cd-3cf5-4a48-8023-7530d9a52b6c",
      "resource": {
        "resourceType": "Encounter",
        "id": "d66911cd-3cf5-4a48-8023-7530d9a52b6c",
        "identifier": [
          {
            "system": "2.16.840.1.113883.2.1.3.2.4.18.49",
            "value": "LOC665"
          },
          {
            "system": "2.16.840.1.113883.2.1.3.2.4.18.34",
            "value": "CASEREF1234"
          },
          {
            "system": "2.16.840.1.113883.2.1.3.2.4.18.35",
            "value": "CASEID123"
          }
        ],
        "status": "finished",
        "type": [
          {
            "text": "111 Encounter Referral"
          }
        ],
        "subject": {
          "reference": "urn:uuid:24add338-d58d-4455-8cf3-9a7ed9714d12"
        },
        "participant": [
          {
            "type": [
              {
                "text": "CALLBCK"
              }
            ],
            "individual": {
              "reference": "urn:uuid:e86d3b92-cbb8-4296-88be-cbf0bde35cf6"
            }
          },
          {
            "type": [
              {
                "coding": [
                  {
                    "system": "http://hl7.org/fhir/ValueSet/encounter-participant-type",
                    "code": "PPRF",
                    "display": "Author"
                  }
                ]
              }
            ],
            "individual": {
              "reference": "urn:uuid:a7d90105-06de-4155-a6ec-09889bdd5edd"
            }
          },
          {
            "type": [
              {
                "text": "Informant"
              }
            ],
            "individual": {
              "reference": "urn:uuid:58c0f502-e660-40c6-a409-182286189341"
            }
          },
          {
            "type": [
              {
                "coding": [
                  {
                    "system": "http://hl7.org/fhir/ValueSet/encounter-participant-type",
                    "code": "ATND",
                    "display": "Responsible Party"
                  }
                ]
              }
            ],
            "individual": {
              "reference": "urn:uuid:8c3cbad6-38f3-432f-84fe-b1e08952cbb5"
            }
          }
        ],
        "appointment": {
          "reference": "urn:uuid:fc367757-207b-47e2-95c8-de6502189c9e"
        },
        "period": {
          "start": "2017-01-01T20:00:00+00:00"
        },
        "location": [
          {
            "location": {
              "reference": "urn:uuid:2eb396c5-09e3-4fae-82b8-d969f52b7a33"
            },
            "status": "active"
          },
          {
            "location": {
              "reference": "urn:uuid:167e3144-c986-4a0d-8bab-823129d65b59"
            },
            "status": "completed"
          }
        ],
        "serviceProvider": {
          "reference": "urn:uuid:c9046223-6f85-412f-89a7-33020c900a26"
        }
      }
    },
    {
      "fullUrl": "urn:uuid:c9046223-6f85-412f-89a7-33020c900a26",
      "resource": {
        "resourceType": "Organization",
        "id": "c9046223-6f85-412f-89a7-33020c900a26",
        "active": true,
        "type": [
          {
            "text": "CST"
          }
        ],
        "name": "Medway NHS Foundation Trust"
      }
    },
    {
      "fullUrl": "urn:uuid:e86d3b92-cbb8-4296-88be-cbf0bde35cf6",
      "resource": {
        "resourceType": "Practitioner",
        "id": "e86d3b92-cbb8-4296-88be-cbf0bde35cf6",
        "active": true,
        "name": [
          {
            "text": "Call Centre Manager"
          }
        ],
        "telecom": [
          {
            "system": "phone",
            "value": "tel:08001111111"
          }
        ]
      }
    },
    {
      "fullUrl": "urn:uuid:a7d90105-06de-4155-a6ec-09889bdd5edd",
      "resource": {
        "resourceType": "Practitioner",
        "id": "a7d90105-06de-4155-a6ec-09889bdd5edd",
        "active": true,
        "name": [
          {
            "use": "official",
            "family": "Jones",
            "given": [
              "Mary"
            ]
          }
        ]
      }
    },
    {
      "fullUrl": "urn:uuid:58c0f502-e660-40c6-a409-182286189341",
      "resource": {
        "resourceType": "RelatedPerson",
        "id": "58c0f502-e660-40c6-a409-182286189341",
        "active": true,
        "patient": {
          "reference": "urn:uuid:24add338-d58d-4455-8cf3-9a7ed9714d12"
        },
        "relationship": {
          "coding": [
            {
              "system": "2.16.840.1.113883.2.1.3.2.4.16.45",
              "code": "01",
              "display": "Spouse"
            }
          ]
        },
        "name": [
          {
            "use": "official",
            "family": "Bloggs",
            "given": [
              "Helga"
            ]
          }
        ],
        "telecom": [
          {
            "system": "phone",
            "value": "tel:07886554123",
            "use": "mobile"
          },
          {
            "system": "phone",
            "value": "tel:01783678321"
          }
        ],
        "gender": "unknown",
        "address": [
          {
            "use": "home",
            "line": [
              "43 Summers Avenue",
              "Somerset Street"
            ],
            "city": "Medway",
            "postalCode": "ME5 7TY"
          }
        ]
      }
    },
    {
      "fullUrl": "urn:uuid:8c3cbad6-38f3-432f-84fe-b1e08952cbb5",
      "resource": {
        "resourceType": "Practitioner",
        "id": "8c3cbad6-38f3-432f-84fe-b1e08952cbb5",
        "active": true,
        "name": [
          {
            "use": "official",
            "family": "Cornwell",
            "given": [
              "Dave"
            ]
          }
        ]
      }
    },
    {
      "fullUrl": "urn:uuid:2eb396c5-09e3-4fae-82b8-d969f52b7a33",
      "resource": {
        "resourceType": "Location",
        "id": "2eb396c5-09e3-4fae-82b8-d969f52b7a33",
        "managingOrganization": {
          "reference": "urn:uuid:81726f05-57f3-4edc-918c-0502d5a98ba5"
        }
      }
    },
    {
      "fullUrl": "urn:uuid:81726f05-57f3-4edc-918c-0502d5a98ba5",
      "resource": {
        "resourceType": "Organization",
        "id": "81726f05-57f3-4edc-918c-0502d5a98ba5",
        "identifier": [
          {
            "value": "V396F"
          }
        ],
        "type": [
          {
            "text": "GP Practice"
          }
        ],
        "name": "Medway Medical Practice",
        "telecom": [
          {
            "system": "phone",
            "value": "tel:01634111222",
            "use": "work"
          }
        ],
        "address": [
          {
            "use": "work",
            "line": [
              "Springer Street"
            ],
            "city": "Medway",
            "postalCode": "ME5 5TY"
          }
        ]
      }
    },
    {
      "fullUrl": "urn:uuid:167e3144-c986-4a0d-8bab-823129d65b59",
      "resource": {
        "resourceType": "Location",
        "id": "167e3144-c986-4a0d-8bab-823129d65b59",
        "name": "Incident Location",
        "address": {
          "type": "physical",
          "text": "Follow the high street and turn left by Boots",
          "line": [
            "2, Brancaster Road"
          ],
          "city": "Medway",
          "postalCode": "ME5 4LS",
          "country": "GB"
        }
      }
    },
    {
      "fullUrl": "urn:uuid:24add338-d58d-4455-8cf3-9a7ed9714d12",
      "resource": {
        "resourceType": "Patient",
        "id": "24add338-d58d-4455-8cf3-9a7ed9714d12",
        "language": "en",
        "identifier": [
          {
            "extension": [
              {
                "url": "https://fhir.hl7.org.uk/STU3/StructureDefinition/Extension-CareConnect-NHSNumberVerificationStatus-1",
                "valueCodeableConcept": {
                  "coding": [
                    {
                      "system": "https://fhir.hl7.org.uk/STU3/StructureDefinition/Extension-CareConnect-NHSNumberVerificationStatus-1",
                      "code": "02"
                    }
                  ]
                }
              }
            ],
            "system": "https://fhir.nhs.uk/Id/nhs-number",
            "value": "993254128"
          }
        ],
        "active": true,
        "name": [
          {
            "use": "official",
            "family": "Joe",
            "given": [
              "Blogg"
            ],
            "prefix": [
              "Mr"
            ]
          }
        ],
        "telecom": [
          {
            "system": "phone",
            "value": "tel:01634775667",
            "use": "home"
          },
          {
            "system": "phone",
            "value": "tel:01634451628",
            "use": "home"
          },
          {
            "system": "email",
            "value": "mailto:Joe.Blogg@emailfree.co.uk",
            "use": "home"
          }
        ],
        "gender": "male",
        "birthDate": "1989-01-01",
        "address": [
          {
            "use": "home",
            "line": [
              "17, County Avenue",
              "Woodtown"
            ],
            "city": "Medway",
            "postalCode": "ME5 FS3"
          }
        ],
        "generalPractitioner": [
          {
            "reference": "urn:uuid:efbc9dd3-7a71-41b9-8ac5-5749c1d551c7"
          }
        ]
      }
    },
    {
      "fullUrl": "urn:uuid:efbc9dd3-7a71-41b9-8ac5-5749c1d551c7",
      "resource": {
        "resourceType": "Organization",
        "id": "efbc9dd3-7a71-41b9-8ac5-5749c1d551c7",
        "identifier": [
          {
            "value": "V396F"
          }
        ],
        "type": [
          {
            "text": "GP Practice"
          }
        ],
        "name": "Medway Medical Practice",
        "telecom": [
          {
            "system": "phone",
            "value": "tel:01634111222",
            "use": "work"
          }
        ],
        "address": [
          {
            "use": "work",
            "line": [
              "Springer Street"
            ],
            "city": "Medway",
            "postalCode": "ME5 5TY"
          }
        ]
      }
    },
    {
      "fullUrl": "urn:uuid:ae0869c3-8aab-4ca5-9680-a669fae9cd7e",
      "resource": {
        "resourceType": "HealthcareService",
        "id": "ae0869c3-8aab-4ca5-9680-a669fae9cd7e",
        "active": true,
        "providedBy": {
          "reference": "urn:uuid:800c2d43-56ac-4957-a6b9-254dce53e4e1"
        },
        "location": [
          {
            "reference": "urn:uuid:92f78683-c372-45f8-ab0d-f372669ddacb"
          }
        ],
        "name": "Thames Medical Practice",
        "telecom": [
          {
            "system": "phone",
            "value": "tel:0123476895",
            "use": "work"
          }
        ]
      }
    },
    {
      "fullUrl": "urn:uuid:92f78683-c372-45f8-ab0d-f372669ddacb",
      "resource": {
        "resourceType": "Location",
        "id": "92f78683-c372-45f8-ab0d-f372669ddacb",
        "telecom": [
          {
            "system": "phone",
            "value": "tel:0123476895",
            "use": "work"
          }
        ],
        "address": {
          "use": "work",
          "line": [
            "Thames Medical Practice",
            "Hill Street Branch Surgery",
            "Medway",
            "Essex"
          ],
          "postalCode": "ME4 5TT"
        },
        "managingOrganization": {
          "reference": "urn:uuid:65cdc7ac-7fd8-449c-b4a3-7cd2b9e6685c"
        }
      }
    },
    {
      "fullUrl": "urn:uuid:800c2d43-56ac-4957-a6b9-254dce53e4e1",
      "resource": {
        "resourceType": "Organization",
        "id": "800c2d43-56ac-4957-a6b9-254dce53e4e1",
        "identifier": [
          {
            "value": "PRA123"
          }
        ],
        "type": [
          {
            "coding": [
              {
                "code": "PRCP",
                "display": "Thames Medical Practice"
              }
            ]
          }
        ],
        "name": "Thames Medical Practice"
      }
    },
    {
      "fullUrl": "urn:uuid:7aab2644-b90e-470f-b976-8176b41d09a8",
      "resource": {
        "resourceType": "HealthcareService",
        "id": "7aab2644-b90e-470f-b976-8176b41d09a8",
        "active": true,
        "providedBy": {
          "reference": "urn:uuid:d53d33c5-687a-4508-9cf9-0c83cc0e5a4f"
        },
        "location": [
          {
            "reference": "urn:uuid:541feb90-0d71-4e34-8f65-3125c41fe7ee"
          }
        ],
        "name": "Medway Kent Out of Hours Clinic"
      }
    },
    {
      "fullUrl": "urn:uuid:541feb90-0d71-4e34-8f65-3125c41fe7ee",
      "resource": {
        "resourceType": "Location",
        "id": "541feb90-0d71-4e34-8f65-3125c41fe7ee",
        "managingOrganization": {
          "reference": "urn:uuid:c14e137c-f9fd-4992-985e-3d46ff4b3cb1"
        }
      }
    },
    {
      "fullUrl": "urn:uuid:d53d33c5-687a-4508-9cf9-0c83cc0e5a4f",
      "resource": {
        "resourceType": "Organization",
        "id": "d53d33c5-687a-4508-9cf9-0c83cc0e5a4f",
        "identifier": [
          {
            "value": "EM396"
          }
        ],
        "type": [
          {
            "coding": [
              {
                "code": "PRCP",
                "display": "Medway Kent Out of Hours Clinic"
              }
            ]
          }
        ],
        "name": "Medway Kent Out of Hours Clinic"
      }
    },
    {
      "fullUrl": "urn:uuid:ab18fa72-141c-47fb-b9dd-4de9a328454a",
      "resource": {
        "resourceType": "ReferralRequest",
        "id": "ab18fa72-141c-47fb-b9dd-4de9a328454a",
        "status": "active",
        "intent": "plan",
        "priority": "routine",
        "subject": {
          "reference": "urn:uuid:24add338-d58d-4455-8cf3-9a7ed9714d12"
        },
        "context": {
          "reference": "urn:uuid:d66911cd-3cf5-4a48-8023-7530d9a52b6c"
        },
        "occurrencePeriod": {
          "start": "2021-08-16T13:04:34+00:00",
          "end": "2021-08-16T14:04:34+00:00"
        },
        "authoredOn": "2019-01-01T20:00:00+00:00",
        "requester": {
          "agent": {
            "reference": "urn:uuid:8970f844-83e0-4d6f-aa6f-ca6262ba2b93"
          },
          "onBehalfOf": {
            "reference": "urn:uuid:c9046223-6f85-412f-89a7-33020c900a26"
          }
        },
        "recipient": [
          {
            "reference": "urn:uuid:4f537672-bc16-4aed-90f6-13e62e92f9e3"
          },
          {
            "reference": "urn:uuid:ae0869c3-8aab-4ca5-9680-a669fae9cd7e"
          },
          {
            "reference": "urn:uuid:7aab2644-b90e-470f-b976-8176b41d09a8"
          }
        ],
        "reasonReference": [
          {
            "reference": "urn:uuid:53c98166-67c2-48b3-9ee9-47c3dd9d472d"
          }
        ],
        "supportingInfo": [
          {
            "reference": "urn:uuid:dc8ccb9a-6e7d-4ebf-83f0-c8a12ecb4fdb"
          }
        ]
      }
    },
    {
      "fullUrl": "urn:uuid:dc8ccb9a-6e7d-4ebf-83f0-c8a12ecb4fdb",
      "resource": {
        "resourceType": "ProcedureRequest",
        "id": "dc8ccb9a-6e7d-4ebf-83f0-c8a12ecb4fdb",
        "status": "active",
        "intent": "plan",
        "priority": "routine",
        "doNotPerform": false,
        "code": {
          "coding": [
            {
              "system": "2.16.840.1.113883.2.1.3.2.4.17.325",
              "code": "Dx001",
              "display": "Passed onto clinical hub"
            }
          ]
        },
        "subject": {
          "reference": "urn:uuid:24add338-d58d-4455-8cf3-9a7ed9714d12"
        },
        "occurrencePeriod": {
          "start": "2021-08-16T13:04:34+00:00",
          "end": "2021-08-16T14:04:34+00:00"
        },
        "reasonReference": [
          {
            "reference": "urn:uuid:53c98166-67c2-48b3-9ee9-47c3dd9d472d"
          }
        ]
      }
    },
    {
      "fullUrl": "urn:uuid:4f537672-bc16-4aed-90f6-13e62e92f9e3",
      "resource": {
        "resourceType": "Practitioner",
        "id": "4f537672-bc16-4aed-90f6-13e62e92f9e3",
        "active": true,
        "telecom": [
          {
            "system": "phone",
            "value": "tel:0123456789"
          }
        ],
        "address": [
          {
            "type": "physical",
            "line": [
              "Church Street Walk in Centre",
              "4 Church Street",
              "Medway"
            ],
            "postalCode": "ME8 7TT"
          }
        ]
      }
    },
    {
      "fullUrl": "urn:uuid:234915cd-f795-4d02-a8bb-30679dbc0ecd",
      "resource": {
        "resourceType": "Composition",
        "id": "234915cd-f795-4d02-a8bb-30679dbc0ecd",
        "identifier": {
          "use": "usual",
          "value": "411910CF-1A76-4330-98FE-C345DDEE5553"
        },
        "status": "final",
        "type": {
          "coding": [
            {
              "system": "http://snomed.info/sct",
              "code": "371531000",
              "display": "Report of clinical encounter (record artifact)"
            }
          ]
        },
        "subject": {
          "reference": "urn:uuid:24add338-d58d-4455-8cf3-9a7ed9714d12"
        },
        "encounter": {
          "reference": "urn:uuid:d66911cd-3cf5-4a48-8023-7530d9a52b6c"
        },
        "date": "2021-08-16T13:04:34+00:00",
        "author": [
          {
            "reference": "urn:uuid:a7d90105-06de-4155-a6ec-09889bdd5edd"
          }
        ],
        "title": "111 Report",
        "confidentiality": "V",
        "section": [
          {
            "section": [
              {
                "title": "Permission to View",
                "text": {
                  "status": "generated",
                  "div": "<div xmlns=\"http://www.w3.org/1999/xhtml\">\n                                                    &lt;table xmlns=&quot;urn:hl7-org:v3&quot; xmlns:npfitlc=&quot;NPFIT:HL7:Localisation&quot;&gt;\n                                                        &lt;tbody&gt;\n                                                            &lt;tr&gt;\n                                                                &lt;th&gt;Permission to view outcome&lt;/th&gt;\n                                                                &lt;td&gt;Permission to view obtained&lt;/td&gt;\n                                                            &lt;/tr&gt;\n                                                            &lt;tr&gt;\n                                                                &lt;th&gt;Date obtained&lt;/th&gt;\n                                                                &lt;td&gt;01-Jan-2017, 20:00&lt;/td&gt;\n                                                            &lt;/tr&gt;\n                                                            &lt;tr&gt;\n                                                                &lt;th&gt;Date expires&lt;/th&gt;\n                                                                &lt;td&gt;15-Jan-2017, 20:00&lt;/td&gt;\n                                                            &lt;/tr&gt;\n                                                        &lt;/tbody&gt;\n                                                    &lt;/table&gt;\n                                                </div>"
                }
              },
              {
                "title": "Primary Reason for Call",
                "text": {
                  "status": "generated",
                  "div": "<div xmlns=\"http://www.w3.org/1999/xhtml\">\n                                                    &lt;content xmlns=&quot;urn:hl7-org:v3&quot; xmlns:npfitlc=&quot;NPFIT:HL7:Localisation&quot;&gt;Patient feels dizzy.&lt;/content&gt;\n                                                </div>"
                },
                "section": [
                  {
                    "title": "SUBSUB2",
                    "text": {
                      "status": "generated",
                      "div": "<div xmlns=\"http://www.w3.org/1999/xhtml\">\n                                                            &lt;content xmlns=&quot;urn:hl7-org:v3&quot; xmlns:npfitlc=&quot;NPFIT:HL7:Localisation&quot;&gt;SUBSUB2&lt;/content&gt;\n                                                        </div>"
                    },
                    "section": [
                      {
                        "title": "SUBSUB3",
                        "text": {
                          "status": "generated",
                          "div": "<div xmlns=\"http://www.w3.org/1999/xhtml\">\n                                                                    &lt;content xmlns=&quot;urn:hl7-org:v3&quot; xmlns:npfitlc=&quot;NPFIT:HL7:Localisation&quot;&gt;SUBSUB3&lt;/content&gt;\n                                                                </div>"
                        }
                      }
                    ]
                  }
                ]
              },
              {
                "title": "Clinical Summary",
                "text": {
                  "status": "generated",
                  "div": "<div xmlns=\"http://www.w3.org/1999/xhtml\">\n                                                    &lt;content xmlns=&quot;urn:hl7-org:v3&quot; xmlns:npfitlc=&quot;NPFIT:HL7:Localisation&quot;&gt;\n                                                        Patient fels nausea and dizzy after waking up. Lasted 30\n                                                        minutes.\n                                                    &lt;/content&gt;\n                                                </div>"
                }
              },
              {
                "title": "Additional Patient Notes",
                "text": {
                  "status": "generated",
                  "div": "<div xmlns=\"http://www.w3.org/1999/xhtml\">&lt;xml-fragment xmlns:npfitlc=&quot;NPFIT:HL7:Localisation&quot;&gt;\n                                                    Additional Patient Notes\n                                                    &lt;urn:br xmlns:urn=&quot;urn:hl7-org:v3&quot;/&gt;\n                                                    Additional Patient Notes abc 01-Feb-2017, 12:00\n                                                    &lt;urn:br xmlns:urn=&quot;urn:hl7-org:v3&quot;/&gt;\n                                                &lt;/xml-fragment&gt;</div>"
                },
                "section": [
                  {
                    "text": {
                      "status": "generated",
                      "div": "<div xmlns=\"http://www.w3.org/1999/xhtml\">&lt;xml-fragment xmlns:npfitlc=&quot;NPFIT:HL7:Localisation&quot;&gt;These are more notes, nested under the top one.&lt;/xml-fragment&gt;</div>"
                    }
                  }
                ]
              },
              {
                "title": "Disposition Details",
                "text": {
                  "status": "generated",
                  "div": "<div xmlns=\"http://www.w3.org/1999/xhtml\">\n                                                    &lt;content xmlns=&quot;urn:hl7-org:v3&quot; xmlns:npfitlc=&quot;NPFIT:HL7:Localisation&quot;&gt;Lie down.&lt;/content&gt;\n                                                </div>"
                }
              },
              {
                "title": "Information and advice given",
                "text": {
                  "status": "generated",
                  "div": "<div xmlns=\"http://www.w3.org/1999/xhtml\">\n                                                    &lt;content xmlns=&quot;urn:hl7-org:v3&quot; xmlns:npfitlc=&quot;NPFIT:HL7:Localisation&quot;&gt;Do not perform any strenuous activities.&lt;/content&gt;\n                                                </div>"
                }
              },
              {
                "title": "Recorded Allergies",
                "text": {
                  "status": "generated",
                  "div": "<div xmlns=\"http://www.w3.org/1999/xhtml\">\n                                                    &lt;content xmlns=&quot;urn:hl7-org:v3&quot; xmlns:npfitlc=&quot;NPFIT:HL7:Localisation&quot;&gt;No known allergies or adverse reaction.&lt;/content&gt;\n                                                </div>"
                }
              },
              {
                "title": "Triage Report",
                "text": {
                  "status": "generated",
                  "div": "<div xmlns=\"http://www.w3.org/1999/xhtml\">\n                                                    &lt;content xmlns=&quot;urn:hl7-org:v3&quot; xmlns:npfitlc=&quot;NPFIT:HL7:Localisation&quot;&gt;An injury or other health problem was described.\n                                                        &lt;br/&gt;The individual was described as breathing and conscious.\n                                                        &lt;br/&gt;Loss of at least a mugful of blood in the last 30 minutes\n                                                        was not described.\n                                                        &lt;br/&gt;An illness or other health problem was described. -\n                                                        Dizziness\n                                                        &lt;br/&gt;Fighting for breath was not described.\n                                                        &lt;br/&gt;A heart attack, chest/upper back pain, recent probable\n                                                        stroke, recent fit/seizure or suicide attempt was not described\n                                                        as the main call reason.\n                                                        &lt;br/&gt;Dizziness and nausea was described.\n                                                        &lt;br/&gt;\n                                                    &lt;/content&gt;\n                                                </div>"
                }
              },
              {
                "title": "Prescribed Items",
                "text": {
                  "status": "generated",
                  "div": "<div xmlns=\"http://www.w3.org/1999/xhtml\">\n                                                    &lt;content xmlns=&quot;urn:hl7-org:v3&quot; xmlns:npfitlc=&quot;NPFIT:HL7:Localisation&quot;&gt;\n                                                        Medications\n                                                    &lt;/content&gt;\n                                                </div>"
                }
              },
              {
                "title": "Appointment Reference",
                "text": {
                  "status": "generated",
                  "div": "<div xmlns=\"http://www.w3.org/1999/xhtml\">\n                                                    &lt;content xmlns=&quot;urn:hl7-org:v3&quot; xmlns:npfitlc=&quot;NPFIT:HL7:Localisation&quot;&gt;\n                                                        Date/Time: 01 June 2017 14:00\n                                                        Location: CENTRAL LONDON COMMUNITY HEALTHCARE NHS TRUST\n                                                        Psychiatric Community Care Service\n                                                    &lt;/content&gt;\n                                                </div>"
                }
              }
            ]
          },
          {
            "title": "CarePlan",
            "entry": [
              {
                "reference": "urn:uuid:55351642-ff28-4256-8a20-71938086f905"
              }
            ]
          },
          {
            "title": "ReferralRequest",
            "entry": [
              {
                "reference": "urn:uuid:ab18fa72-141c-47fb-b9dd-4de9a328454a"
              }
            ]
          },
          {
            "title": "QuestionnaireResponse",
            "entry": [
              {
                "reference": "urn:uuid:1592bc53-1cca-454f-a900-4c2535644c2e"
              }
            ]
          },
          {
            "title": "QuestionnaireResponse",
            "entry": [
              {
                "reference": "urn:uuid:d2218e1c-285c-4caa-a2ab-134b61851572"
              }
            ]
          },
          {
            "title": "QuestionnaireResponse",
            "entry": [
              {
                "reference": "urn:uuid:b93711bd-7fc0-4ace-bb48-5af93278f806"
              }
            ]
          },
          {
            "title": "QuestionnaireResponse",
            "entry": [
              {
                "reference": "urn:uuid:cffdd233-5d34-4d0f-b95c-77262d6d0880"
              }
            ]
          },
          {
            "title": "QuestionnaireResponse",
            "entry": [
              {
                "reference": "urn:uuid:77557924-491d-4e7d-891b-6b23fcd9ec33"
              }
            ]
          },
          {
            "title": "QuestionnaireResponse",
            "entry": [
              {
                "reference": "urn:uuid:07738389-6d31-42ca-b6a5-dc8f05abc719"
              }
            ]
          },
          {
            "title": "QuestionnaireResponse",
            "entry": [
              {
                "reference": "urn:uuid:9dc043b0-0708-4c3b-ab43-22f97d282895"
              }
            ]
          },
          {
            "title": "QuestionnaireResponse",
            "entry": [
              {
                "reference": "urn:uuid:571bc276-ccaf-4871-9771-ce53490dd698"
              }
            ]
          },
          {
            "title": "QuestionnaireResponse",
            "entry": [
              {
                "reference": "urn:uuid:4881196f-2c92-4147-95ce-824e0c6f62b8"
              }
            ]
          },
          {
            "title": "QuestionnaireResponse",
            "entry": [
              {
                "reference": "urn:uuid:05cab41f-523f-4e5f-9eac-f749015704b8"
              }
            ]
          },
          {
            "title": "QuestionnaireResponse",
            "entry": [
              {
                "reference": "urn:uuid:8d76fc19-8f4e-4847-8679-7c4a82dec6b4"
              }
            ]
          },
          {
            "title": "QuestionnaireResponse",
            "entry": [
              {
                "reference": "urn:uuid:4d08dfb9-1e80-4771-bad8-09105f740a79"
              }
            ]
          },
          {
            "title": "QuestionnaireResponse",
            "entry": [
              {
                "reference": "urn:uuid:2282b2ca-4fb8-404b-83c0-043a6abe3e7a"
              }
            ]
          },
          {
            "title": "QuestionnaireResponse",
            "entry": [
              {
                "reference": "urn:uuid:50545fd8-5453-4219-a77e-01a56b69eba7"
              }
            ]
          },
          {
            "title": "QuestionnaireResponse",
            "entry": [
              {
                "reference": "urn:uuid:e1c41177-7f0f-4c9b-95d9-36ab6cfc6b15"
              }
            ]
          },
          {
            "title": "QuestionnaireResponse",
            "entry": [
              {
                "reference": "urn:uuid:662cdf4a-b3b0-4059-b9d3-50de4e56609f"
              }
            ]
          },
          {
            "title": "QuestionnaireResponse",
            "entry": [
              {
                "reference": "urn:uuid:22cc8413-86d0-4f01-89c6-c3f81eb46070"
              }
            ]
          },
          {
            "title": "QuestionnaireResponse",
            "entry": [
              {
                "reference": "urn:uuid:25833d16-0712-4a52-b126-3687cdddf9ba"
              }
            ]
          },
          {
            "title": "QuestionnaireResponse",
            "entry": [
              {
                "reference": "urn:uuid:6d0815af-fec9-43f1-8c48-6f5503b1dd66"
              }
            ]
          },
          {
            "title": "QuestionnaireResponse",
            "entry": [
              {
                "reference": "urn:uuid:68177ad8-64fb-4d11-9aee-70fc72284d32"
              }
            ]
          },
          {
            "title": "QuestionnaireResponse",
            "entry": [
              {
                "reference": "urn:uuid:96ddc4b0-ce06-4387-987f-26c9aed06705"
              }
            ]
          },
          {
            "title": "QuestionnaireResponse",
            "entry": [
              {
                "reference": "urn:uuid:02150d48-b4ea-454f-aba9-448bbbcb2c8c"
              }
            ]
          },
          {
            "title": "QuestionnaireResponse",
            "entry": [
              {
                "reference": "urn:uuid:89247e58-4baf-435a-be5d-95d277bc22df"
              }
            ]
          },
          {
            "title": "QuestionnaireResponse",
            "entry": [
              {
                "reference": "urn:uuid:90a8e8fe-3e67-4f4a-a022-3fe34dd54762"
              }
            ]
          }
        ]
      }
    },
    {
      "fullUrl": "urn:uuid:55351642-ff28-4256-8a20-71938086f905",
      "resource": {
        "resourceType": "CarePlan",
        "id": "55351642-ff28-4256-8a20-71938086f905",
        "status": "completed",
        "intent": "plan",
        "title": "Information and advice given",
        "description": "Do not perform any strenuous activities.",
        "subject": {
          "reference": "urn:uuid:24add338-d58d-4455-8cf3-9a7ed9714d12"
        },
        "context": {
          "reference": "urn:uuid:d66911cd-3cf5-4a48-8023-7530d9a52b6c"
        },
        "period": {
          "start": "2017-01-01T20:00:00+00:00"
        },
        "author": [
          {
            "reference": "urn:uuid:81726f05-57f3-4edc-918c-0502d5a98ba5"
          }
        ],
        "addresses": [
          {
            "reference": "urn:uuid:53c98166-67c2-48b3-9ee9-47c3dd9d472d"
          }
        ]
      }
    },
    {
      "fullUrl": "urn:uuid:b1304441-b12c-45cc-a80d-4a446d5cf694",
      "resource": {
        "resourceType": "Consent",
        "id": "b1304441-b12c-45cc-a80d-4a446d5cf694",
        "text": {
          "status": "generated",
          "div": "<div xmlns=\"http://www.w3.org/1999/xhtml\">\n                                                    <table>\n                                                        <tbody>\n                                                            <tr>\n                                                                <th>Permission to view outcome</th>\n                                                                <td>Permission to view obtained</td>\n                                                            </tr>\n                                                            <tr>\n                                                                <th>Date obtained</th>\n                                                                <td>01-Jan-2017, 20:00</td>\n                                                            </tr>\n                                                            <tr>\n                                                                <th>Date expires</th>\n                                                                <td>15-Jan-2017, 20:00</td>\n                                                            </tr>\n                                                        </tbody>\n                                                    </table>\n                                                </div>"
        },
        "identifier": {
          "use": "usual",
          "value": "411910CF-1A76-4330-98FE-C345DDEE5553"
        },
        "status": "active",
        "patient": {
          "reference": "urn:uuid:24add338-d58d-4455-8cf3-9a7ed9714d12"
        },
        "period": {
          "start": "2017-01-01T20:00:00+00:00"
        },
        "consentingParty": [
          {
            "reference": "urn:uuid:24add338-d58d-4455-8cf3-9a7ed9714d12"
          }
        ],
        "action": [
          {
            "coding": [
              {
                "system": "http://snomed.info/sct",
                "code": "425691002",
                "display": "Consent given for electronic record sharing"
              }
            ],
            "text": "Consent given for electronic record sharing"
          }
        ],
        "organization": [
          {
            "reference": "urn:uuid:c9046223-6f85-412f-89a7-33020c900a26"
          }
        ],
        "sourceIdentifier": {
          "value": "41D9F90F-6DB7-4939-BEF5-F8D75D79ECDD"
        },
        "policyRule": "http://hl7.org/fhir/ConsentPolicy/opt-out",
        "dataPeriod": {
          "start": "2011-05-19T20:00:00+00:00",
          "end": "2011-05-26T20:00:00+00:00"
        },
        "data": [
          {
            "meaning": "related",
            "reference": {
              "reference": "urn:uuid:d66911cd-3cf5-4a48-8023-7530d9a52b6c"
            }
          }
        ]
      }
    },
    {
      "fullUrl": "urn:uuid:53c98166-67c2-48b3-9ee9-47c3dd9d472d",
      "resource": {
        "resourceType": "Condition",
        "id": "53c98166-67c2-48b3-9ee9-47c3dd9d472d",
        "clinicalStatus": "active",
        "verificationStatus": "unknown",
        "code": {
          "coding": [
            {
              "system": "22298006",
              "code": "2.16.840.1.113883.2.1.3.2.4.15",
              "display": "Myocardial infarction"
            }
          ]
        },
        "subject": {
          "reference": "urn:uuid:24add338-d58d-4455-8cf3-9a7ed9714d12"
        },
        "context": {
          "reference": "urn:uuid:d66911cd-3cf5-4a48-8023-7530d9a52b6c"
        },
        "assertedDate": "2017-06-01T14:00:00+00:00",
        "evidence": [
          {
            "detail": [
              {
                "reference": "urn:uuid:1592bc53-1cca-454f-a900-4c2535644c2e"
              }
            ]
          },
          {
            "detail": [
              {
                "reference": "urn:uuid:d2218e1c-285c-4caa-a2ab-134b61851572"
              }
            ]
          },
          {
            "detail": [
              {
                "reference": "urn:uuid:b93711bd-7fc0-4ace-bb48-5af93278f806"
              }
            ]
          },
          {
            "detail": [
              {
                "reference": "urn:uuid:cffdd233-5d34-4d0f-b95c-77262d6d0880"
              }
            ]
          },
          {
            "detail": [
              {
                "reference": "urn:uuid:77557924-491d-4e7d-891b-6b23fcd9ec33"
              }
            ]
          },
          {
            "detail": [
              {
                "reference": "urn:uuid:07738389-6d31-42ca-b6a5-dc8f05abc719"
              }
            ]
          },
          {
            "detail": [
              {
                "reference": "urn:uuid:9dc043b0-0708-4c3b-ab43-22f97d282895"
              }
            ]
          },
          {
            "detail": [
              {
                "reference": "urn:uuid:571bc276-ccaf-4871-9771-ce53490dd698"
              }
            ]
          },
          {
            "detail": [
              {
                "reference": "urn:uuid:4881196f-2c92-4147-95ce-824e0c6f62b8"
              }
            ]
          },
          {
            "detail": [
              {
                "reference": "urn:uuid:05cab41f-523f-4e5f-9eac-f749015704b8"
              }
            ]
          },
          {
            "detail": [
              {
                "reference": "urn:uuid:8d76fc19-8f4e-4847-8679-7c4a82dec6b4"
              }
            ]
          },
          {
            "detail": [
              {
                "reference": "urn:uuid:4d08dfb9-1e80-4771-bad8-09105f740a79"
              }
            ]
          },
          {
            "detail": [
              {
                "reference": "urn:uuid:2282b2ca-4fb8-404b-83c0-043a6abe3e7a"
              }
            ]
          },
          {
            "detail": [
              {
                "reference": "urn:uuid:50545fd8-5453-4219-a77e-01a56b69eba7"
              }
            ]
          },
          {
            "detail": [
              {
                "reference": "urn:uuid:e1c41177-7f0f-4c9b-95d9-36ab6cfc6b15"
              }
            ]
          },
          {
            "detail": [
              {
                "reference": "urn:uuid:662cdf4a-b3b0-4059-b9d3-50de4e56609f"
              }
            ]
          },
          {
            "detail": [
              {
                "reference": "urn:uuid:22cc8413-86d0-4f01-89c6-c3f81eb46070"
              }
            ]
          },
          {
            "detail": [
              {
                "reference": "urn:uuid:25833d16-0712-4a52-b126-3687cdddf9ba"
              }
            ]
          },
          {
            "detail": [
              {
                "reference": "urn:uuid:6d0815af-fec9-43f1-8c48-6f5503b1dd66"
              }
            ]
          },
          {
            "detail": [
              {
                "reference": "urn:uuid:68177ad8-64fb-4d11-9aee-70fc72284d32"
              }
            ]
          },
          {
            "detail": [
              {
                "reference": "urn:uuid:96ddc4b0-ce06-4387-987f-26c9aed06705"
              }
            ]
          },
          {
            "detail": [
              {
                "reference": "urn:uuid:02150d48-b4ea-454f-aba9-448bbbcb2c8c"
              }
            ]
          },
          {
            "detail": [
              {
                "reference": "urn:uuid:89247e58-4baf-435a-be5d-95d277bc22df"
              }
            ]
          },
          {
            "detail": [
              {
                "reference": "urn:uuid:90a8e8fe-3e67-4f4a-a022-3fe34dd54762"
              }
            ]
          }
        ]
      }
    },
    {
      "fullUrl": "urn:uuid:1592bc53-1cca-454f-a900-4c2535644c2e",
      "resource": {
        "resourceType": "QuestionnaireResponse",
        "id": "1592bc53-1cca-454f-a900-4c2535644c2e",
        "identifier": {
          "value": "8067b9b2-e604-4414-b56f-8e3cc4de4b1b"
        },
        "questionnaire": {
          "reference": "urn:uuid:9de7b750-6257-472f-93a0-4eecb9df991a"
        },
        "status": "completed",
        "subject": {
          "reference": "urn:uuid:24add338-d58d-4455-8cf3-9a7ed9714d12"
        },
        "context": {
          "reference": "urn:uuid:d66911cd-3cf5-4a48-8023-7530d9a52b6c"
        },
        "authored": "2011-02-17T17:31:14+00:00",
        "item": [
          {
            "linkId": "N/A"
          }
        ]
      }
    },
    {
      "fullUrl": "urn:uuid:9de7b750-6257-472f-93a0-4eecb9df991a",
      "resource": {
        "resourceType": "Questionnaire",
        "id": "9de7b750-6257-472f-93a0-4eecb9df991a",
        "identifier": [
          {
            "value": "8067b9b2-e604-4414-b56f-8e3cc4de4b1b"
          }
        ],
        "version": "2011-02-17T17:31:14.313Z",
        "status": "active",
        "experimental": false,
        "date": "2011-02-17T17:31:14+00:00",
        "publisher": "User ID: '3137' User name: 'redacted' User skill set: 'T1'",
        "lastReviewDate": "2011-02-17",
        "jurisdiction": [
          {
            "text": "England"
          }
        ],
        "contact": [
          {
            "telecom": [
              {
                "value": "redacted"
              }
            ]
          }
        ],
        "subjectType": [
          "Patient"
        ],
        "item": [
          {
            "linkId": "8067b9b2-e604-4414-b56f-8e3cc4de4b1b",
            "prefix": "0",
            "type": "choice",
            "required": true,
            "repeats": false,
            "option": [
              {
                "valueString": ", Selected: false"
              }
            ]
          }
        ]
      }
    },
    {
      "fullUrl": "urn:uuid:d2218e1c-285c-4caa-a2ab-134b61851572",
      "resource": {
        "resourceType": "QuestionnaireResponse",
        "id": "d2218e1c-285c-4caa-a2ab-134b61851572",
        "identifier": {
          "value": "8067b9b2-e604-4414-b56f-8e3cc4de4b1b"
        },
        "questionnaire": {
          "reference": "urn:uuid:5968193c-e4ee-46b7-9c41-8feb2a6cc11b"
        },
        "status": "completed",
        "subject": {
          "reference": "urn:uuid:24add338-d58d-4455-8cf3-9a7ed9714d12"
        },
        "context": {
          "reference": "urn:uuid:d66911cd-3cf5-4a48-8023-7530d9a52b6c"
        },
        "authored": "2011-02-17T17:31:14+00:00",
        "item": [
          {
            "linkId": "N/A"
          }
        ]
      }
    },
    {
      "fullUrl": "urn:uuid:5968193c-e4ee-46b7-9c41-8feb2a6cc11b",
      "resource": {
        "resourceType": "Questionnaire",
        "id": "5968193c-e4ee-46b7-9c41-8feb2a6cc11b",
        "identifier": [
          {
            "value": "8067b9b2-e604-4414-b56f-8e3cc4de4b1b"
          }
        ],
        "version": "2011-02-17T17:31:14.313Z",
        "status": "active",
        "experimental": false,
        "date": "2011-02-17T17:31:14+00:00",
        "publisher": "User ID: '3137' User name: 'redacted' User skill set: 'T1'",
        "lastReviewDate": "2011-02-17",
        "jurisdiction": [
          {
            "text": "England"
          }
        ],
        "contact": [
          {
            "telecom": [
              {
                "value": "redacted"
              }
            ]
          }
        ],
        "subjectType": [
          "Patient"
        ],
        "item": [
          {
            "linkId": "8067b9b2-e604-4414-b56f-8e3cc4de4b1b",
            "prefix": "0",
            "type": "choice",
            "required": true,
            "repeats": false,
            "option": [
              {
                "valueString": ", Selected: false"
              }
            ]
          }
        ]
      }
    },
    {
      "fullUrl": "urn:uuid:b93711bd-7fc0-4ace-bb48-5af93278f806",
      "resource": {
        "resourceType": "QuestionnaireResponse",
        "id": "b93711bd-7fc0-4ace-bb48-5af93278f806",
        "identifier": {
          "value": "8067b9b2-e604-4414-b56f-8e3cc4de4b1b"
        },
        "questionnaire": {
          "reference": "urn:uuid:ee0682af-8b7a-4186-b55c-db2f5ab347d7"
        },
        "status": "completed",
        "subject": {
          "reference": "urn:uuid:24add338-d58d-4455-8cf3-9a7ed9714d12"
        },
        "context": {
          "reference": "urn:uuid:d66911cd-3cf5-4a48-8023-7530d9a52b6c"
        },
        "authored": "2011-02-17T17:31:14+00:00",
        "item": [
          {
            "linkId": "Tx220109",
            "text": "What is the reason for the call?",
            "answer": [
              {
                "valueString": "an injury or other health problem"
              }
            ]
          }
        ]
      }
    },
    {
      "fullUrl": "urn:uuid:ee0682af-8b7a-4186-b55c-db2f5ab347d7",
      "resource": {
        "resourceType": "Questionnaire",
        "id": "ee0682af-8b7a-4186-b55c-db2f5ab347d7",
        "identifier": [
          {
            "value": "8067b9b2-e604-4414-b56f-8e3cc4de4b1b"
          }
        ],
        "version": "2011-02-17T17:31:14.313Z",
        "status": "active",
        "experimental": false,
        "date": "2011-02-17T17:31:14+00:00",
        "publisher": "User ID: '3137' User name: 'redacted' User skill set: 'T1'",
        "lastReviewDate": "2011-02-17",
        "jurisdiction": [
          {
            "text": "England"
          }
        ],
        "contact": [
          {
            "telecom": [
              {
                "value": "redacted"
              }
            ]
          }
        ],
        "subjectType": [
          "Patient"
        ],
        "item": [
          {
            "linkId": "8067b9b2-e604-4414-b56f-8e3cc4de4b1b",
            "prefix": "5",
            "text": "What is the reason for the call?",
            "type": "choice",
            "required": true,
            "repeats": false,
            "option": [
              {
                "valueString": "an injury or other health problem, Selected: true"
              },
              {
                "valueString": "a need to access another healthcare provider, Selected: false"
              },
              {
                "valueString": "a healthcare professional requesting contact with another clinician, Selected: false"
              },
              {
                "valueString": "a report of results or tests, Selected: false"
              },
              {
                "valueString": "more, Selected: false"
              }
            ]
          }
        ]
      }
    },
    {
      "fullUrl": "urn:uuid:cffdd233-5d34-4d0f-b95c-77262d6d0880",
      "resource": {
        "resourceType": "QuestionnaireResponse",
        "id": "cffdd233-5d34-4d0f-b95c-77262d6d0880",
        "identifier": {
          "value": "8067b9b2-e604-4414-b56f-8e3cc4de4b1b"
        },
        "questionnaire": {
          "reference": "urn:uuid:21089e89-acc0-4659-8301-f894e4ea69e2"
        },
        "status": "completed",
        "subject": {
          "reference": "urn:uuid:24add338-d58d-4455-8cf3-9a7ed9714d12"
        },
        "context": {
          "reference": "urn:uuid:d66911cd-3cf5-4a48-8023-7530d9a52b6c"
        },
        "authored": "2011-02-17T17:31:14+00:00",
        "item": [
          {
            "linkId": "Tx140118",
            "text": "Has the baby just been born?",
            "answer": [
              {
                "valueString": "no"
              }
            ]
          }
        ]
      }
    },
    {
      "fullUrl": "urn:uuid:21089e89-acc0-4659-8301-f894e4ea69e2",
      "resource": {
        "resourceType": "Questionnaire",
        "id": "21089e89-acc0-4659-8301-f894e4ea69e2",
        "identifier": [
          {
            "value": "8067b9b2-e604-4414-b56f-8e3cc4de4b1b"
          }
        ],
        "version": "2011-02-17T17:31:14.313Z",
        "status": "active",
        "experimental": false,
        "date": "2011-02-17T17:31:14+00:00",
        "publisher": "User ID: '3137' User name: 'redacted' User skill set: 'T1'",
        "lastReviewDate": "2011-02-17",
        "jurisdiction": [
          {
            "text": "England"
          }
        ],
        "contact": [
          {
            "telecom": [
              {
                "value": "redacted"
              }
            ]
          }
        ],
        "subjectType": [
          "Patient"
        ],
        "item": [
          {
            "linkId": "8067b9b2-e604-4414-b56f-8e3cc4de4b1b",
            "prefix": "35",
            "text": "Has the baby just been born?",
            "type": "choice",
            "required": true,
            "repeats": false,
            "option": [
              {
                "valueString": "yes, Selected: false"
              },
              {
                "valueString": "not sure, Selected: false"
              },
              {
                "valueString": "no, Selected: true"
              }
            ]
          }
        ]
      }
    },
    {
      "fullUrl": "urn:uuid:77557924-491d-4e7d-891b-6b23fcd9ec33",
      "resource": {
        "resourceType": "QuestionnaireResponse",
        "id": "77557924-491d-4e7d-891b-6b23fcd9ec33",
        "identifier": {
          "value": "8067b9b2-e604-4414-b56f-8e3cc4de4b1b"
        },
        "questionnaire": {
          "reference": "urn:uuid:4626f184-c11c-42b8-ad98-eb65c0c549a3"
        },
        "status": "completed",
        "subject": {
          "reference": "urn:uuid:24add338-d58d-4455-8cf3-9a7ed9714d12"
        },
        "context": {
          "reference": "urn:uuid:d66911cd-3cf5-4a48-8023-7530d9a52b6c"
        },
        "authored": "2011-02-17T17:31:14+00:00",
        "item": [
          {
            "linkId": "Tx220110",
            "text": "Is he breathing and conscious?",
            "answer": [
              {
                "valueString": "breathing AND conscious"
              }
            ]
          }
        ]
      }
    },
    {
      "fullUrl": "urn:uuid:4626f184-c11c-42b8-ad98-eb65c0c549a3",
      "resource": {
        "resourceType": "Questionnaire",
        "id": "4626f184-c11c-42b8-ad98-eb65c0c549a3",
        "identifier": [
          {
            "value": "8067b9b2-e604-4414-b56f-8e3cc4de4b1b"
          }
        ],
        "version": "2011-02-17T17:31:14.313Z",
        "status": "active",
        "experimental": false,
        "date": "2011-02-17T17:31:14+00:00",
        "publisher": "User ID: '3137' User name: 'redacted' User skill set: 'T1'",
        "lastReviewDate": "2011-02-17",
        "jurisdiction": [
          {
            "text": "England"
          }
        ],
        "contact": [
          {
            "telecom": [
              {
                "value": "redacted"
              }
            ]
          }
        ],
        "subjectType": [
          "Patient"
        ],
        "item": [
          {
            "linkId": "8067b9b2-e604-4414-b56f-8e3cc4de4b1b",
            "prefix": "40",
            "text": "Is he breathing and conscious?",
            "type": "choice",
            "required": true,
            "repeats": false,
            "option": [
              {
                "valueString": "breathing AND conscious, Selected: true"
              },
              {
                "valueString": "breathing but NOT conscious (includes current fitting), Selected: false"
              },
              {
                "valueString": "NOT breathing, Selected: false"
              },
              {
                "valueString": "choking now, Selected: false"
              }
            ]
          }
        ]
      }
    },
    {
      "fullUrl": "urn:uuid:07738389-6d31-42ca-b6a5-dc8f05abc719",
      "resource": {
        "resourceType": "QuestionnaireResponse",
        "id": "07738389-6d31-42ca-b6a5-dc8f05abc719",
        "identifier": {
          "value": "8067b9b2-e604-4414-b56f-8e3cc4de4b1b"
        },
        "questionnaire": {
          "reference": "urn:uuid:3206c0d8-fb38-46b5-8b01-4fc54bc19a66"
        },
        "status": "completed",
        "subject": {
          "reference": "urn:uuid:24add338-d58d-4455-8cf3-9a7ed9714d12"
        },
        "context": {
          "reference": "urn:uuid:d66911cd-3cf5-4a48-8023-7530d9a52b6c"
        },
        "authored": "2011-02-17T17:31:14+00:00",
        "item": [
          {
            "linkId": "Tx220285",
            "text": "Has he been bleeding very heavily IN THE LAST HOUR?",
            "answer": [
              {
                "valueString": "no"
              }
            ]
          }
        ]
      }
    },
    {
      "fullUrl": "urn:uuid:3206c0d8-fb38-46b5-8b01-4fc54bc19a66",
      "resource": {
        "resourceType": "Questionnaire",
        "id": "3206c0d8-fb38-46b5-8b01-4fc54bc19a66",
        "identifier": [
          {
            "value": "8067b9b2-e604-4414-b56f-8e3cc4de4b1b"
          }
        ],
        "version": "2011-02-17T17:31:14.313Z",
        "status": "active",
        "experimental": false,
        "date": "2011-02-17T17:31:14+00:00",
        "publisher": "User ID: '3137' User name: 'redacted' User skill set: 'T1'",
        "lastReviewDate": "2011-02-17",
        "jurisdiction": [
          {
            "text": "England"
          }
        ],
        "contact": [
          {
            "telecom": [
              {
                "value": "redacted"
              }
            ]
          }
        ],
        "subjectType": [
          "Patient"
        ],
        "item": [
          {
            "linkId": "8067b9b2-e604-4414-b56f-8e3cc4de4b1b",
            "prefix": "60",
            "text": "Has he been bleeding very heavily IN THE LAST HOUR?",
            "type": "choice",
            "required": true,
            "repeats": false,
            "option": [
              {
                "valueString": "blood spurting from a wound, Selected: false"
              },
              {
                "valueString": "an egg cupful or more of red blood from a body opening, Selected: false"
              },
              {
                "valueString": "an egg cupful or more from a wound, Selected: false"
              },
              {
                "valueString": "not sure, Selected: false"
              },
              {
                "valueString": "no, Selected: true"
              }
            ]
          }
        ]
      }
    },
    {
      "fullUrl": "urn:uuid:9dc043b0-0708-4c3b-ab43-22f97d282895",
      "resource": {
        "resourceType": "QuestionnaireResponse",
        "id": "9dc043b0-0708-4c3b-ab43-22f97d282895",
        "identifier": {
          "value": "8067b9b2-e604-4414-b56f-8e3cc4de4b1b"
        },
        "questionnaire": {
          "reference": "urn:uuid:8f45b7be-2365-4abe-ab17-c62f8ba5afd3"
        },
        "status": "completed",
        "subject": {
          "reference": "urn:uuid:24add338-d58d-4455-8cf3-9a7ed9714d12"
        },
        "context": {
          "reference": "urn:uuid:d66911cd-3cf5-4a48-8023-7530d9a52b6c"
        },
        "authored": "2011-02-17T17:31:14+00:00",
        "item": [
          {
            "linkId": "N/A",
            "text": "SocialConcernsExcluded",
            "answer": [
              {
                "valueString": "*"
              }
            ]
          }
        ]
      }
    },
    {
      "fullUrl": "urn:uuid:8f45b7be-2365-4abe-ab17-c62f8ba5afd3",
      "resource": {
        "resourceType": "Questionnaire",
        "id": "8f45b7be-2365-4abe-ab17-c62f8ba5afd3",
        "identifier": [
          {
            "value": "8067b9b2-e604-4414-b56f-8e3cc4de4b1b"
          }
        ],
        "version": "2011-02-17T17:31:14.313Z",
        "status": "active",
        "experimental": false,
        "date": "2011-02-17T17:31:14+00:00",
        "publisher": "User ID: '3137' User name: 'redacted' User skill set: 'T1'",
        "lastReviewDate": "2011-02-17",
        "jurisdiction": [
          {
            "text": "England"
          }
        ],
        "contact": [
          {
            "telecom": [
              {
                "value": "redacted"
              }
            ]
          }
        ],
        "subjectType": [
          "Patient"
        ],
        "item": [
          {
            "linkId": "8067b9b2-e604-4414-b56f-8e3cc4de4b1b",
            "prefix": "2050",
            "text": "SocialConcernsExcluded",
            "type": "choice",
            "required": true,
            "repeats": false,
            "option": [
              {
                "valueString": "==\"present\", Selected: false"
              },
              {
                "valueString": "*, Selected: true"
              }
            ]
          }
        ]
      }
    },
    {
      "fullUrl": "urn:uuid:571bc276-ccaf-4871-9771-ce53490dd698",
      "resource": {
        "resourceType": "QuestionnaireResponse",
        "id": "571bc276-ccaf-4871-9771-ce53490dd698",
        "identifier": {
          "value": "8067b9b2-e604-4414-b56f-8e3cc4de4b1b"
        },
        "questionnaire": {
          "reference": "urn:uuid:09f7c841-423e-4317-958a-80987ee641a8"
        },
        "status": "completed",
        "subject": {
          "reference": "urn:uuid:24add338-d58d-4455-8cf3-9a7ed9714d12"
        },
        "context": {
          "reference": "urn:uuid:d66911cd-3cf5-4a48-8023-7530d9a52b6c"
        },
        "authored": "2011-02-17T17:31:14+00:00",
        "item": [
          {
            "linkId": "Tx140159",
            "text": "What is the reason for ending the assessment?",
            "answer": [
              {
                "valueString": "transfer to a clinician"
              }
            ]
          }
        ]
      }
    },
    {
      "fullUrl": "urn:uuid:09f7c841-423e-4317-958a-80987ee641a8",
      "resource": {
        "resourceType": "Questionnaire",
        "id": "09f7c841-423e-4317-958a-80987ee641a8",
        "identifier": [
          {
            "value": "8067b9b2-e604-4414-b56f-8e3cc4de4b1b"
          }
        ],
        "version": "2011-02-17T17:31:14.313Z",
        "status": "active",
        "experimental": false,
        "date": "2011-02-17T17:31:14+00:00",
        "publisher": "User ID: '3137' User name: 'redacted' User skill set: 'T1'",
        "lastReviewDate": "2011-02-17",
        "jurisdiction": [
          {
            "text": "England"
          }
        ],
        "contact": [
          {
            "telecom": [
              {
                "value": "redacted"
              }
            ]
          }
        ],
        "subjectType": [
          "Patient"
        ],
        "item": [
          {
            "linkId": "8067b9b2-e604-4414-b56f-8e3cc4de4b1b",
            "prefix": "0",
            "text": "What is the reason for ending the assessment?",
            "type": "choice",
            "required": true,
            "repeats": false,
            "option": [
              {
                "valueString": "the phone line went dead, Selected: false"
              },
              {
                "valueString": "the caller terminated the call (specify), Selected: false"
              },
              {
                "valueString": "I terminated the call (specify), Selected: false"
              },
              {
                "valueString": "triage not possible, Selected: false"
              },
              {
                "valueString": "transfer to a clinician, Selected: true"
              }
            ]
          }
        ]
      }
    },
    {
      "fullUrl": "urn:uuid:4881196f-2c92-4147-95ce-824e0c6f62b8",
      "resource": {
        "resourceType": "QuestionnaireResponse",
        "id": "4881196f-2c92-4147-95ce-824e0c6f62b8",
        "identifier": {
          "value": "8067b9b2-e604-4414-b56f-8e3cc4de4b1b"
        },
        "questionnaire": {
          "reference": "urn:uuid:fe6ed306-8360-4545-9488-aea80310837e"
        },
        "status": "completed",
        "subject": {
          "reference": "urn:uuid:24add338-d58d-4455-8cf3-9a7ed9714d12"
        },
        "context": {
          "reference": "urn:uuid:d66911cd-3cf5-4a48-8023-7530d9a52b6c"
        },
        "authored": "2011-02-17T17:31:14+00:00",
        "item": [
          {
            "linkId": "Tx220408",
            "text": "WHAT IS THE REASON FOR TRANSFER TO A CLINICIAN?",
            "answer": [
              {
                "valueString": "other complex call (specify)"
              }
            ]
          }
        ]
      }
    },
    {
      "fullUrl": "urn:uuid:fe6ed306-8360-4545-9488-aea80310837e",
      "resource": {
        "resourceType": "Questionnaire",
        "id": "fe6ed306-8360-4545-9488-aea80310837e",
        "identifier": [
          {
            "value": "8067b9b2-e604-4414-b56f-8e3cc4de4b1b"
          }
        ],
        "version": "2011-02-17T17:31:14.313Z",
        "status": "active",
        "experimental": false,
        "date": "2011-02-17T17:31:14+00:00",
        "publisher": "User ID: '3137' User name: 'redacted' User skill set: 'T1'",
        "lastReviewDate": "2011-02-17",
        "jurisdiction": [
          {
            "text": "England"
          }
        ],
        "contact": [
          {
            "telecom": [
              {
                "value": "redacted"
              }
            ]
          }
        ],
        "subjectType": [
          "Patient"
        ],
        "item": [
          {
            "linkId": "8067b9b2-e604-4414-b56f-8e3cc4de4b1b",
            "prefix": "50",
            "text": "WHAT IS THE REASON FOR TRANSFER TO A CLINICIAN?",
            "type": "choice",
            "required": true,
            "repeats": false,
            "option": [
              {
                "valueString": "caller refuses disposition, Selected: false"
              },
              {
                "valueString": "multiple unrelated symptoms, Selected: false"
              },
              {
                "valueString": "difficulty obtaining adequate information, Selected: false"
              },
              {
                "valueString": "medication or medical procedure enquiry, Selected: false"
              },
              {
                "valueString": "declared medical history (details not required), Selected: false"
              },
              {
                "valueString": "other complex call (specify), Selected: true"
              }
            ]
          }
        ]
      }
    },
    {
      "fullUrl": "urn:uuid:05cab41f-523f-4e5f-9eac-f749015704b8",
      "resource": {
        "resourceType": "QuestionnaireResponse",
        "id": "05cab41f-523f-4e5f-9eac-f749015704b8",
        "identifier": {
          "value": "8067b9b2-e604-4414-b56f-8e3cc4de4b1b"
        },
        "questionnaire": {
          "reference": "urn:uuid:2e5d1215-b05d-4638-9b7c-282a654b456c"
        },
        "status": "completed",
        "subject": {
          "reference": "urn:uuid:24add338-d58d-4455-8cf3-9a7ed9714d12"
        },
        "context": {
          "reference": "urn:uuid:d66911cd-3cf5-4a48-8023-7530d9a52b6c"
        },
        "authored": "2011-02-17T17:31:14+00:00",
        "item": [
          {
            "linkId": "N/A",
            "text": "Speak to Clinician from our Service immediately"
          }
        ]
      }
    },
    {
      "fullUrl": "urn:uuid:2e5d1215-b05d-4638-9b7c-282a654b456c",
      "resource": {
        "resourceType": "Questionnaire",
        "id": "2e5d1215-b05d-4638-9b7c-282a654b456c",
        "identifier": [
          {
            "value": "8067b9b2-e604-4414-b56f-8e3cc4de4b1b"
          }
        ],
        "version": "2011-02-17T17:31:14.313Z",
        "status": "active",
        "experimental": false,
        "date": "2011-02-17T17:31:14+00:00",
        "publisher": "User ID: '3137' User name: 'redacted' User skill set: 'T1'",
        "lastReviewDate": "2011-02-17",
        "jurisdiction": [
          {
            "text": "England"
          }
        ],
        "contact": [
          {
            "telecom": [
              {
                "value": "redacted"
              }
            ]
          }
        ],
        "subjectType": [
          "Patient"
        ],
        "item": [
          {
            "linkId": "8067b9b2-e604-4414-b56f-8e3cc4de4b1b",
            "prefix": "0",
            "text": "Speak to Clinician from our Service immediately",
            "type": "choice",
            "required": true,
            "repeats": false,
            "option": [
              {
                "valueString": ", Selected: false"
              }
            ]
          }
        ]
      }
    },
    {
      "fullUrl": "urn:uuid:8d76fc19-8f4e-4847-8679-7c4a82dec6b4",
      "resource": {
        "resourceType": "QuestionnaireResponse",
        "id": "8d76fc19-8f4e-4847-8679-7c4a82dec6b4",
        "identifier": {
          "value": "8067b9b2-e604-4414-b56f-8e3cc4de4b1b"
        },
        "questionnaire": {
          "reference": "urn:uuid:4be82cba-c721-4c9f-a9c0-d2b5b93ca39a"
        },
        "status": "completed",
        "subject": {
          "reference": "urn:uuid:24add338-d58d-4455-8cf3-9a7ed9714d12"
        },
        "context": {
          "reference": "urn:uuid:d66911cd-3cf5-4a48-8023-7530d9a52b6c"
        },
        "authored": "2011-02-17T17:31:14+00:00",
        "item": [
          {
            "linkId": "N/A"
          }
        ]
      }
    },
    {
      "fullUrl": "urn:uuid:4be82cba-c721-4c9f-a9c0-d2b5b93ca39a",
      "resource": {
        "resourceType": "Questionnaire",
        "id": "4be82cba-c721-4c9f-a9c0-d2b5b93ca39a",
        "identifier": [
          {
            "value": "8067b9b2-e604-4414-b56f-8e3cc4de4b1b"
          }
        ],
        "version": "2011-02-17T17:31:14.313Z",
        "status": "active",
        "experimental": false,
        "date": "2011-02-17T17:31:14+00:00",
        "publisher": "User ID: '3137' User name: 'redacted' User skill set: 'T1'",
        "lastReviewDate": "2011-02-17",
        "jurisdiction": [
          {
            "text": "England"
          }
        ],
        "contact": [
          {
            "telecom": [
              {
                "value": "redacted"
              }
            ]
          }
        ],
        "subjectType": [
          "Patient"
        ],
        "item": [
          {
            "linkId": "8067b9b2-e604-4414-b56f-8e3cc4de4b1b",
            "prefix": "0",
            "type": "choice",
            "required": true,
            "repeats": false,
            "option": [
              {
                "valueString": ", Selected: false"
              }
            ]
          }
        ]
      }
    },
    {
      "fullUrl": "urn:uuid:4d08dfb9-1e80-4771-bad8-09105f740a79",
      "resource": {
        "resourceType": "QuestionnaireResponse",
        "id": "4d08dfb9-1e80-4771-bad8-09105f740a79",
        "identifier": {
          "value": "8067b9b2-e604-4414-b56f-8e3cc4de4b1b"
        },
        "questionnaire": {
          "reference": "urn:uuid:49f9b333-3d58-42a6-8a7d-8b813659ed9e"
        },
        "status": "completed",
        "subject": {
          "reference": "urn:uuid:24add338-d58d-4455-8cf3-9a7ed9714d12"
        },
        "context": {
          "reference": "urn:uuid:d66911cd-3cf5-4a48-8023-7530d9a52b6c"
        },
        "authored": "2011-02-17T17:31:14+00:00",
        "item": [
          {
            "linkId": "N/A"
          }
        ]
      }
    },
    {
      "fullUrl": "urn:uuid:49f9b333-3d58-42a6-8a7d-8b813659ed9e",
      "resource": {
        "resourceType": "Questionnaire",
        "id": "49f9b333-3d58-42a6-8a7d-8b813659ed9e",
        "identifier": [
          {
            "value": "8067b9b2-e604-4414-b56f-8e3cc4de4b1b"
          }
        ],
        "version": "2011-02-17T17:31:14.313Z",
        "status": "active",
        "experimental": false,
        "date": "2011-02-17T17:31:14+00:00",
        "publisher": "User ID: '3137' User name: 'redacted' User skill set: 'T1'",
        "lastReviewDate": "2011-02-17",
        "jurisdiction": [
          {
            "text": "England"
          }
        ],
        "contact": [
          {
            "telecom": [
              {
                "value": "redacted"
              }
            ]
          }
        ],
        "subjectType": [
          "Patient"
        ],
        "item": [
          {
            "linkId": "8067b9b2-e604-4414-b56f-8e3cc4de4b1b",
            "prefix": "0",
            "type": "choice",
            "required": true,
            "repeats": false,
            "option": [
              {
                "valueString": ", Selected: false"
              }
            ]
          }
        ]
      }
    },
    {
      "fullUrl": "urn:uuid:2282b2ca-4fb8-404b-83c0-043a6abe3e7a",
      "resource": {
        "resourceType": "QuestionnaireResponse",
        "id": "2282b2ca-4fb8-404b-83c0-043a6abe3e7a",
        "identifier": {
          "value": "8067b9b2-e604-4414-b56f-8e3cc4de4b1b"
        },
        "questionnaire": {
          "reference": "urn:uuid:d185bef6-0b21-44dc-9f24-eb22168f7291"
        },
        "status": "completed",
        "subject": {
          "reference": "urn:uuid:24add338-d58d-4455-8cf3-9a7ed9714d12"
        },
        "context": {
          "reference": "urn:uuid:d66911cd-3cf5-4a48-8023-7530d9a52b6c"
        },
        "authored": "2011-02-17T17:31:14+00:00",
        "item": [
          {
            "linkId": "Tx220109",
            "text": "What is the reason for the call?",
            "answer": [
              {
                "valueString": "an injury or other health problem"
              }
            ]
          }
        ]
      }
    },
    {
      "fullUrl": "urn:uuid:d185bef6-0b21-44dc-9f24-eb22168f7291",
      "resource": {
        "resourceType": "Questionnaire",
        "id": "d185bef6-0b21-44dc-9f24-eb22168f7291",
        "identifier": [
          {
            "value": "8067b9b2-e604-4414-b56f-8e3cc4de4b1b"
          }
        ],
        "version": "2011-02-17T17:31:14.313Z",
        "status": "active",
        "experimental": false,
        "date": "2011-02-17T17:31:14+00:00",
        "publisher": "User ID: '3137' User name: 'redacted' User skill set: 'T1'",
        "lastReviewDate": "2011-02-17",
        "jurisdiction": [
          {
            "text": "England"
          }
        ],
        "contact": [
          {
            "telecom": [
              {
                "value": "redacted"
              }
            ]
          }
        ],
        "subjectType": [
          "Patient"
        ],
        "item": [
          {
            "linkId": "8067b9b2-e604-4414-b56f-8e3cc4de4b1b",
            "prefix": "5",
            "text": "What is the reason for the call?",
            "type": "choice",
            "required": true,
            "repeats": false,
            "option": [
              {
                "valueString": "an injury or other health problem, Selected: true"
              },
              {
                "valueString": "a need to access another healthcare provider, Selected: false"
              },
              {
                "valueString": "a healthcare professional requesting contact with another clinician, Selected: false"
              },
              {
                "valueString": "a report of results or tests, Selected: false"
              },
              {
                "valueString": "more, Selected: false"
              }
            ]
          }
        ]
      }
    },
    {
      "fullUrl": "urn:uuid:50545fd8-5453-4219-a77e-01a56b69eba7",
      "resource": {
        "resourceType": "QuestionnaireResponse",
        "id": "50545fd8-5453-4219-a77e-01a56b69eba7",
        "identifier": {
          "value": "8067b9b2-e604-4414-b56f-8e3cc4de4b1b"
        },
        "questionnaire": {
          "reference": "urn:uuid:0c1b9693-0fc9-47c1-b04e-98f6276f9173"
        },
        "status": "completed",
        "subject": {
          "reference": "urn:uuid:24add338-d58d-4455-8cf3-9a7ed9714d12"
        },
        "context": {
          "reference": "urn:uuid:d66911cd-3cf5-4a48-8023-7530d9a52b6c"
        },
        "authored": "2011-02-17T17:31:14+00:00",
        "item": [
          {
            "linkId": "Tx140118",
            "text": "Has the baby just been born?",
            "answer": [
              {
                "valueString": "no"
              }
            ]
          }
        ]
      }
    },
    {
      "fullUrl": "urn:uuid:0c1b9693-0fc9-47c1-b04e-98f6276f9173",
      "resource": {
        "resourceType": "Questionnaire",
        "id": "0c1b9693-0fc9-47c1-b04e-98f6276f9173",
        "identifier": [
          {
            "value": "8067b9b2-e604-4414-b56f-8e3cc4de4b1b"
          }
        ],
        "version": "2011-02-17T17:31:14.313Z",
        "status": "active",
        "experimental": false,
        "date": "2011-02-17T17:31:14+00:00",
        "publisher": "User ID: '3137' User name: 'redacted' User skill set: 'T1'",
        "lastReviewDate": "2011-02-17",
        "jurisdiction": [
          {
            "text": "England"
          }
        ],
        "contact": [
          {
            "telecom": [
              {
                "value": "redacted"
              }
            ]
          }
        ],
        "subjectType": [
          "Patient"
        ],
        "item": [
          {
            "linkId": "8067b9b2-e604-4414-b56f-8e3cc4de4b1b",
            "prefix": "35",
            "text": "Has the baby just been born?",
            "type": "choice",
            "required": true,
            "repeats": false,
            "option": [
              {
                "valueString": "yes, Selected: false"
              },
              {
                "valueString": "not sure, Selected: false"
              },
              {
                "valueString": "no, Selected: true"
              }
            ]
          }
        ]
      }
    },
    {
      "fullUrl": "urn:uuid:e1c41177-7f0f-4c9b-95d9-36ab6cfc6b15",
      "resource": {
        "resourceType": "QuestionnaireResponse",
        "id": "e1c41177-7f0f-4c9b-95d9-36ab6cfc6b15",
        "identifier": {
          "value": "8067b9b2-e604-4414-b56f-8e3cc4de4b1b"
        },
        "questionnaire": {
          "reference": "urn:uuid:0c4dd6a7-94c4-447f-a92f-638d10b3f8db"
        },
        "status": "completed",
        "subject": {
          "reference": "urn:uuid:24add338-d58d-4455-8cf3-9a7ed9714d12"
        },
        "context": {
          "reference": "urn:uuid:d66911cd-3cf5-4a48-8023-7530d9a52b6c"
        },
        "authored": "2011-02-17T17:31:14+00:00",
        "item": [
          {
            "linkId": "Tx220110",
            "text": "Is he breathing and conscious?",
            "answer": [
              {
                "valueString": "breathing AND conscious"
              }
            ]
          }
        ]
      }
    },
    {
      "fullUrl": "urn:uuid:0c4dd6a7-94c4-447f-a92f-638d10b3f8db",
      "resource": {
        "resourceType": "Questionnaire",
        "id": "0c4dd6a7-94c4-447f-a92f-638d10b3f8db",
        "identifier": [
          {
            "value": "8067b9b2-e604-4414-b56f-8e3cc4de4b1b"
          }
        ],
        "version": "2011-02-17T17:31:14.313Z",
        "status": "active",
        "experimental": false,
        "date": "2011-02-17T17:31:14+00:00",
        "publisher": "User ID: '3137' User name: 'redacted' User skill set: 'T1'",
        "lastReviewDate": "2011-02-17",
        "jurisdiction": [
          {
            "text": "England"
          }
        ],
        "contact": [
          {
            "telecom": [
              {
                "value": "redacted"
              }
            ]
          }
        ],
        "subjectType": [
          "Patient"
        ],
        "item": [
          {
            "linkId": "8067b9b2-e604-4414-b56f-8e3cc4de4b1b",
            "prefix": "40",
            "text": "Is he breathing and conscious?",
            "type": "choice",
            "required": true,
            "repeats": false,
            "option": [
              {
                "valueString": "breathing AND conscious, Selected: true"
              },
              {
                "valueString": "breathing but NOT conscious (includes current fitting), Selected: false"
              },
              {
                "valueString": "NOT breathing, Selected: false"
              },
              {
                "valueString": "choking now, Selected: false"
              }
            ]
          }
        ]
      }
    },
    {
      "fullUrl": "urn:uuid:662cdf4a-b3b0-4059-b9d3-50de4e56609f",
      "resource": {
        "resourceType": "QuestionnaireResponse",
        "id": "662cdf4a-b3b0-4059-b9d3-50de4e56609f",
        "identifier": {
          "value": "8067b9b2-e604-4414-b56f-8e3cc4de4b1b"
        },
        "questionnaire": {
          "reference": "urn:uuid:17235c8b-0cee-4f03-b405-e87aa760ffa9"
        },
        "status": "completed",
        "subject": {
          "reference": "urn:uuid:24add338-d58d-4455-8cf3-9a7ed9714d12"
        },
        "context": {
          "reference": "urn:uuid:d66911cd-3cf5-4a48-8023-7530d9a52b6c"
        },
        "authored": "2011-02-17T17:31:14+00:00",
        "item": [
          {
            "linkId": "Tx220285",
            "text": "Has he been bleeding very heavily IN THE LAST HOUR?",
            "answer": [
              {
                "valueString": "an egg cupful or more from a wound"
              }
            ]
          }
        ]
      }
    },
    {
      "fullUrl": "urn:uuid:17235c8b-0cee-4f03-b405-e87aa760ffa9",
      "resource": {
        "resourceType": "Questionnaire",
        "id": "17235c8b-0cee-4f03-b405-e87aa760ffa9",
        "identifier": [
          {
            "value": "8067b9b2-e604-4414-b56f-8e3cc4de4b1b"
          }
        ],
        "version": "2011-02-17T17:31:14.313Z",
        "status": "active",
        "experimental": false,
        "date": "2011-02-17T17:31:14+00:00",
        "publisher": "User ID: '3137' User name: 'redacted' User skill set: 'T1'",
        "lastReviewDate": "2011-02-17",
        "jurisdiction": [
          {
            "text": "England"
          }
        ],
        "contact": [
          {
            "telecom": [
              {
                "value": "redacted"
              }
            ]
          }
        ],
        "subjectType": [
          "Patient"
        ],
        "item": [
          {
            "linkId": "8067b9b2-e604-4414-b56f-8e3cc4de4b1b",
            "prefix": "60",
            "text": "Has he been bleeding very heavily IN THE LAST HOUR?",
            "type": "choice",
            "required": true,
            "repeats": false,
            "option": [
              {
                "valueString": "blood spurting from a wound, Selected: false"
              },
              {
                "valueString": "an egg cupful or more of red blood from a body opening, Selected: false"
              },
              {
                "valueString": "an egg cupful or more from a wound, Selected: true"
              },
              {
                "valueString": "not sure, Selected: false"
              },
              {
                "valueString": "no, Selected: false"
              }
            ]
          }
        ]
      }
    },
    {
      "fullUrl": "urn:uuid:22cc8413-86d0-4f01-89c6-c3f81eb46070",
      "resource": {
        "resourceType": "QuestionnaireResponse",
        "id": "22cc8413-86d0-4f01-89c6-c3f81eb46070",
        "identifier": {
          "value": "8067b9b2-e604-4414-b56f-8e3cc4de4b1b"
        },
        "questionnaire": {
          "reference": "urn:uuid:d1162273-e614-408f-8584-076e84bac102"
        },
        "status": "completed",
        "subject": {
          "reference": "urn:uuid:24add338-d58d-4455-8cf3-9a7ed9714d12"
        },
        "context": {
          "reference": "urn:uuid:d66911cd-3cf5-4a48-8023-7530d9a52b6c"
        },
        "authored": "2011-02-17T17:31:14+00:00",
        "item": [
          {
            "linkId": "Tx140109",
            "text": "Is he fighting desperately for every breath?",
            "answer": [
              {
                "valueString": "no"
              }
            ]
          }
        ]
      }
    },
    {
      "fullUrl": "urn:uuid:d1162273-e614-408f-8584-076e84bac102",
      "resource": {
        "resourceType": "Questionnaire",
        "id": "d1162273-e614-408f-8584-076e84bac102",
        "identifier": [
          {
            "value": "8067b9b2-e604-4414-b56f-8e3cc4de4b1b"
          }
        ],
        "version": "2011-02-17T17:31:14.313Z",
        "status": "active",
        "experimental": false,
        "date": "2011-02-17T17:31:14+00:00",
        "publisher": "User ID: '3137' User name: 'redacted' User skill set: 'T1'",
        "lastReviewDate": "2011-02-17",
        "jurisdiction": [
          {
            "text": "England"
          }
        ],
        "contact": [
          {
            "telecom": [
              {
                "value": "redacted"
              }
            ]
          }
        ],
        "subjectType": [
          "Patient"
        ],
        "item": [
          {
            "linkId": "8067b9b2-e604-4414-b56f-8e3cc4de4b1b",
            "prefix": "20000",
            "text": "Is he fighting desperately for every breath?",
            "type": "choice",
            "required": true,
            "repeats": false,
            "option": [
              {
                "valueString": "yes, Selected: false"
              },
              {
                "valueString": "not sure, Selected: false"
              },
              {
                "valueString": "no, Selected: true"
              }
            ]
          }
        ]
      }
    },
    {
      "fullUrl": "urn:uuid:25833d16-0712-4a52-b126-3687cdddf9ba",
      "resource": {
        "resourceType": "QuestionnaireResponse",
        "id": "25833d16-0712-4a52-b126-3687cdddf9ba",
        "identifier": {
          "value": "8067b9b2-e604-4414-b56f-8e3cc4de4b1b"
        },
        "questionnaire": {
          "reference": "urn:uuid:b5d80b50-e659-4ead-88c1-859709c0f664"
        },
        "status": "completed",
        "subject": {
          "reference": "urn:uuid:24add338-d58d-4455-8cf3-9a7ed9714d12"
        },
        "context": {
          "reference": "urn:uuid:d66911cd-3cf5-4a48-8023-7530d9a52b6c"
        },
        "authored": "2011-02-17T17:31:14+00:00",
        "item": [
          {
            "linkId": "Tx220563",
            "text": "Is he limp, floppy and/or unresponsive?",
            "answer": [
              {
                "valueString": "no"
              }
            ]
          }
        ]
      }
    },
    {
      "fullUrl": "urn:uuid:b5d80b50-e659-4ead-88c1-859709c0f664",
      "resource": {
        "resourceType": "Questionnaire",
        "id": "b5d80b50-e659-4ead-88c1-859709c0f664",
        "identifier": [
          {
            "value": "8067b9b2-e604-4414-b56f-8e3cc4de4b1b"
          }
        ],
        "version": "2011-02-17T17:31:14.313Z",
        "status": "active",
        "experimental": false,
        "date": "2011-02-17T17:31:14+00:00",
        "publisher": "User ID: '3137' User name: 'redacted' User skill set: 'T1'",
        "lastReviewDate": "2011-02-17",
        "jurisdiction": [
          {
            "text": "England"
          }
        ],
        "contact": [
          {
            "telecom": [
              {
                "value": "redacted"
              }
            ]
          }
        ],
        "subjectType": [
          "Patient"
        ],
        "item": [
          {
            "linkId": "8067b9b2-e604-4414-b56f-8e3cc4de4b1b",
            "prefix": "20400",
            "text": "Is he limp, floppy and/or unresponsive?",
            "type": "choice",
            "required": true,
            "repeats": false,
            "option": [
              {
                "valueString": "yes, Selected: false"
              },
              {
                "valueString": "not sure, Selected: false"
              },
              {
                "valueString": "no, Selected: true"
              }
            ]
          }
        ]
      }
    },
    {
      "fullUrl": "urn:uuid:6d0815af-fec9-43f1-8c48-6f5503b1dd66",
      "resource": {
        "resourceType": "QuestionnaireResponse",
        "id": "6d0815af-fec9-43f1-8c48-6f5503b1dd66",
        "identifier": {
          "value": "8067b9b2-e604-4414-b56f-8e3cc4de4b1b"
        },
        "questionnaire": {
          "reference": "urn:uuid:d03da1a9-a5c9-4c21-9204-2ebdeb6a20c7"
        },
        "status": "completed",
        "subject": {
          "reference": "urn:uuid:24add338-d58d-4455-8cf3-9a7ed9714d12"
        },
        "context": {
          "reference": "urn:uuid:d66911cd-3cf5-4a48-8023-7530d9a52b6c"
        },
        "authored": "2011-02-17T17:31:14+00:00",
        "item": [
          {
            "linkId": "Tx220561",
            "text": "Is he warm to touch?",
            "answer": [
              {
                "valueString": "yes"
              }
            ]
          }
        ]
      }
    },
    {
      "fullUrl": "urn:uuid:d03da1a9-a5c9-4c21-9204-2ebdeb6a20c7",
      "resource": {
        "resourceType": "Questionnaire",
        "id": "d03da1a9-a5c9-4c21-9204-2ebdeb6a20c7",
        "identifier": [
          {
            "value": "8067b9b2-e604-4414-b56f-8e3cc4de4b1b"
          }
        ],
        "version": "2011-02-17T17:31:14.313Z",
        "status": "active",
        "experimental": false,
        "date": "2011-02-17T17:31:14+00:00",
        "publisher": "User ID: '3137' User name: 'redacted' User skill set: 'T1'",
        "lastReviewDate": "2011-02-17",
        "jurisdiction": [
          {
            "text": "England"
          }
        ],
        "contact": [
          {
            "telecom": [
              {
                "value": "redacted"
              }
            ]
          }
        ],
        "subjectType": [
          "Patient"
        ],
        "item": [
          {
            "linkId": "8067b9b2-e604-4414-b56f-8e3cc4de4b1b",
            "prefix": "20450",
            "text": "Is he warm to touch?",
            "type": "choice",
            "required": true,
            "repeats": false,
            "option": [
              {
                "valueString": "yes, Selected: true"
              },
              {
                "valueString": "not sure, Selected: false"
              },
              {
                "valueString": "no, Selected: false"
              },
              {
                "valueString": "not safe to touch, Selected: false"
              }
            ]
          }
        ]
      }
    },
    {
      "fullUrl": "urn:uuid:68177ad8-64fb-4d11-9aee-70fc72284d32",
      "resource": {
        "resourceType": "QuestionnaireResponse",
        "id": "68177ad8-64fb-4d11-9aee-70fc72284d32",
        "identifier": {
          "value": "8067b9b2-e604-4414-b56f-8e3cc4de4b1b"
        },
        "questionnaire": {
          "reference": "urn:uuid:edac0016-328f-4d18-9aad-4a5a8ae29a23"
        },
        "status": "completed",
        "subject": {
          "reference": "urn:uuid:24add338-d58d-4455-8cf3-9a7ed9714d12"
        },
        "context": {
          "reference": "urn:uuid:d66911cd-3cf5-4a48-8023-7530d9a52b6c"
        },
        "authored": "2011-02-17T17:31:14+00:00",
        "item": [
          {
            "linkId": "Tx120019",
            "text": "Was the injury caused by any of the following?",
            "answer": [
              {
                "valueString": "no"
              }
            ]
          }
        ]
      }
    },
    {
      "fullUrl": "urn:uuid:edac0016-328f-4d18-9aad-4a5a8ae29a23",
      "resource": {
        "resourceType": "Questionnaire",
        "id": "edac0016-328f-4d18-9aad-4a5a8ae29a23",
        "identifier": [
          {
            "value": "8067b9b2-e604-4414-b56f-8e3cc4de4b1b"
          }
        ],
        "version": "2011-02-17T17:31:14.313Z",
        "status": "active",
        "experimental": false,
        "date": "2011-02-17T17:31:14+00:00",
        "publisher": "User ID: '3137' User name: 'redacted' User skill set: 'T1'",
        "lastReviewDate": "2011-02-17",
        "jurisdiction": [
          {
            "text": "England"
          }
        ],
        "contact": [
          {
            "telecom": [
              {
                "value": "redacted"
              }
            ]
          }
        ],
        "subjectType": [
          "Patient"
        ],
        "item": [
          {
            "linkId": "8067b9b2-e604-4414-b56f-8e3cc4de4b1b",
            "prefix": "20800",
            "text": "Was the injury caused by any of the following?",
            "type": "choice",
            "required": true,
            "repeats": false,
            "option": [
              {
                "valueString": "a gunshot, Selected: false"
              },
              {
                "valueString": "a stabbing, Selected: false"
              },
              {
                "valueString": "being ejected from a vehicle, Selected: false"
              },
              {
                "valueString": "not sure, Selected: false"
              },
              {
                "valueString": "no, Selected: true"
              }
            ]
          }
        ]
      }
    },
    {
      "fullUrl": "urn:uuid:96ddc4b0-ce06-4387-987f-26c9aed06705",
      "resource": {
        "resourceType": "QuestionnaireResponse",
        "id": "96ddc4b0-ce06-4387-987f-26c9aed06705",
        "identifier": {
          "value": "8067b9b2-e604-4414-b56f-8e3cc4de4b1b"
        },
        "questionnaire": {
          "reference": "urn:uuid:ab779658-ae92-4049-9573-0683b63318bd"
        },
        "status": "completed",
        "subject": {
          "reference": "urn:uuid:24add338-d58d-4455-8cf3-9a7ed9714d12"
        },
        "context": {
          "reference": "urn:uuid:d66911cd-3cf5-4a48-8023-7530d9a52b6c"
        },
        "authored": "2011-02-17T17:31:14+00:00",
        "item": [
          {
            "linkId": "Tx220286",
            "text": "DID THE INJURY INVOLVE ANY OF THE FOLLOWING?",
            "answer": [
              {
                "valueString": "no"
              }
            ]
          }
        ]
      }
    },
    {
      "fullUrl": "urn:uuid:ab779658-ae92-4049-9573-0683b63318bd",
      "resource": {
        "resourceType": "Questionnaire",
        "id": "ab779658-ae92-4049-9573-0683b63318bd",
        "identifier": [
          {
            "value": "8067b9b2-e604-4414-b56f-8e3cc4de4b1b"
          }
        ],
        "version": "2011-02-17T17:31:14.313Z",
        "status": "active",
        "experimental": false,
        "date": "2011-02-17T17:31:14+00:00",
        "publisher": "User ID: '3137' User name: 'redacted' User skill set: 'T1'",
        "lastReviewDate": "2011-02-17",
        "jurisdiction": [
          {
            "text": "England"
          }
        ],
        "contact": [
          {
            "telecom": [
              {
                "value": "redacted"
              }
            ]
          }
        ],
        "subjectType": [
          "Patient"
        ],
        "item": [
          {
            "linkId": "8067b9b2-e604-4414-b56f-8e3cc4de4b1b",
            "prefix": "23100",
            "text": "DID THE INJURY INVOLVE ANY OF THE FOLLOWING?",
            "type": "choice",
            "required": true,
            "repeats": false,
            "option": [
              {
                "valueString": "a fall of 5 metres or more (specify), Selected: false"
              },
              {
                "valueString": "multiple major injuries (specify), Selected: false"
              },
              {
                "valueString": "major wound or amputation - not just involving a single finger or toe (specify), Selected: false"
              },
              {
                "valueString": "being knocked over by a blast (specify), Selected: false"
              },
              {
                "valueString": "not sure, Selected: false"
              },
              {
                "valueString": "no, Selected: true"
              }
            ]
          }
        ]
      }
    },
    {
      "fullUrl": "urn:uuid:02150d48-b4ea-454f-aba9-448bbbcb2c8c",
      "resource": {
        "resourceType": "QuestionnaireResponse",
        "id": "02150d48-b4ea-454f-aba9-448bbbcb2c8c",
        "identifier": {
          "value": "8067b9b2-e604-4414-b56f-8e3cc4de4b1b"
        },
        "questionnaire": {
          "reference": "urn:uuid:3d6acf5e-34b0-4a38-b319-b4607a6e1bff"
        },
        "status": "completed",
        "subject": {
          "reference": "urn:uuid:24add338-d58d-4455-8cf3-9a7ed9714d12"
        },
        "context": {
          "reference": "urn:uuid:d66911cd-3cf5-4a48-8023-7530d9a52b6c"
        },
        "authored": "2011-02-17T17:31:14+00:00",
        "item": [
          {
            "linkId": "Tx140159",
            "text": "What is the reason for ending the assessment?",
            "answer": [
              {
                "valueString": "transfer to a clinician"
              }
            ]
          }
        ]
      }
    },
    {
      "fullUrl": "urn:uuid:3d6acf5e-34b0-4a38-b319-b4607a6e1bff",
      "resource": {
        "resourceType": "Questionnaire",
        "id": "3d6acf5e-34b0-4a38-b319-b4607a6e1bff",
        "identifier": [
          {
            "value": "8067b9b2-e604-4414-b56f-8e3cc4de4b1b"
          }
        ],
        "version": "2011-02-17T17:31:14.313Z",
        "status": "active",
        "experimental": false,
        "date": "2011-02-17T17:31:14+00:00",
        "publisher": "User ID: '3137' User name: 'redacted' User skill set: 'T1'",
        "lastReviewDate": "2011-02-17",
        "jurisdiction": [
          {
            "text": "England"
          }
        ],
        "contact": [
          {
            "telecom": [
              {
                "value": "redacted"
              }
            ]
          }
        ],
        "subjectType": [
          "Patient"
        ],
        "item": [
          {
            "linkId": "8067b9b2-e604-4414-b56f-8e3cc4de4b1b",
            "prefix": "0",
            "text": "What is the reason for ending the assessment?",
            "type": "choice",
            "required": true,
            "repeats": false,
            "option": [
              {
                "valueString": "the phone line went dead, Selected: false"
              },
              {
                "valueString": "the caller terminated the call (specify), Selected: false"
              },
              {
                "valueString": "I terminated the call (specify), Selected: false"
              },
              {
                "valueString": "triage not possible, Selected: false"
              },
              {
                "valueString": "transfer to a clinician, Selected: true"
              }
            ]
          }
        ]
      }
    },
    {
      "fullUrl": "urn:uuid:89247e58-4baf-435a-be5d-95d277bc22df",
      "resource": {
        "resourceType": "QuestionnaireResponse",
        "id": "89247e58-4baf-435a-be5d-95d277bc22df",
        "identifier": {
          "value": "8067b9b2-e604-4414-b56f-8e3cc4de4b1b"
        },
        "questionnaire": {
          "reference": "urn:uuid:d6d03cc1-da80-476e-94b8-451f8d6af0d0"
        },
        "status": "completed",
        "subject": {
          "reference": "urn:uuid:24add338-d58d-4455-8cf3-9a7ed9714d12"
        },
        "context": {
          "reference": "urn:uuid:d66911cd-3cf5-4a48-8023-7530d9a52b6c"
        },
        "authored": "2011-02-17T17:31:14+00:00",
        "item": [
          {
            "linkId": "Tx220286",
            "text": "DID THE INJURY INVOLVE ANY OF THE FOLLOWING?",
            "answer": [
              {
                "valueString": "no"
              }
            ]
          }
        ]
      }
    },
    {
      "fullUrl": "urn:uuid:d6d03cc1-da80-476e-94b8-451f8d6af0d0",
      "resource": {
        "resourceType": "Questionnaire",
        "id": "d6d03cc1-da80-476e-94b8-451f8d6af0d0",
        "identifier": [
          {
            "value": "8067b9b2-e604-4414-b56f-8e3cc4de4b1b"
          }
        ],
        "version": "2011-02-17T17:31:14.313Z",
        "status": "active",
        "experimental": false,
        "date": "2011-02-17T17:31:14+00:00",
        "publisher": "User ID: '3137' User name: 'redacted' User skill set: 'T1'",
        "lastReviewDate": "2011-02-17",
        "jurisdiction": [
          {
            "text": "England"
          }
        ],
        "contact": [
          {
            "telecom": [
              {
                "value": "redacted"
              }
            ]
          }
        ],
        "subjectType": [
          "Patient"
        ],
        "item": [
          {
            "linkId": "8067b9b2-e604-4414-b56f-8e3cc4de4b1b",
            "prefix": "23100",
            "text": "DID THE INJURY INVOLVE ANY OF THE FOLLOWING?",
            "type": "choice",
            "required": true,
            "repeats": false,
            "option": [
              {
                "valueString": "a fall of 5 metres or more (specify), Selected: false"
              },
              {
                "valueString": "multiple major injuries (specify), Selected: false"
              },
              {
                "valueString": "major wound or amputation - not just involving a single finger or toe (specify), Selected: false"
              },
              {
                "valueString": "being knocked over by a blast (specify), Selected: false"
              },
              {
                "valueString": "not sure, Selected: false"
              },
              {
                "valueString": "no, Selected: true"
              }
            ]
          }
        ]
      }
    },
    {
      "fullUrl": "urn:uuid:90a8e8fe-3e67-4f4a-a022-3fe34dd54762",
      "resource": {
        "resourceType": "QuestionnaireResponse",
        "id": "90a8e8fe-3e67-4f4a-a022-3fe34dd54762",
        "identifier": {
          "value": "8067b9b2-e604-4414-b56f-8e3cc4de4b1b"
        },
        "questionnaire": {
          "reference": "urn:uuid:53564a5d-ed8b-4b0a-a2e6-c4ee965b3c1f"
        },
        "status": "completed",
        "subject": {
          "reference": "urn:uuid:24add338-d58d-4455-8cf3-9a7ed9714d12"
        },
        "context": {
          "reference": "urn:uuid:d66911cd-3cf5-4a48-8023-7530d9a52b6c"
        },
        "authored": "2011-02-17T17:31:14+00:00",
        "item": [
          {
            "linkId": "N/A",
            "text": "Dispatch 19 minute ambulance"
          }
        ]
      }
    },
    {
      "fullUrl": "urn:uuid:53564a5d-ed8b-4b0a-a2e6-c4ee965b3c1f",
      "resource": {
        "resourceType": "Questionnaire",
        "id": "53564a5d-ed8b-4b0a-a2e6-c4ee965b3c1f",
        "identifier": [
          {
            "value": "8067b9b2-e604-4414-b56f-8e3cc4de4b1b"
          }
        ],
        "version": "2011-02-17T17:31:14.313Z",
        "status": "active",
        "experimental": false,
        "date": "2011-02-17T17:31:14+00:00",
        "publisher": "User ID: '3137' User name: 'redacted' User skill set: 'T1'",
        "lastReviewDate": "2011-02-17",
        "jurisdiction": [
          {
            "text": "England"
          }
        ],
        "contact": [
          {
            "telecom": [
              {
                "value": "redacted"
              }
            ]
          }
        ],
        "subjectType": [
          "Patient"
        ],
        "item": [
          {
            "linkId": "8067b9b2-e604-4414-b56f-8e3cc4de4b1b",
            "prefix": "24100",
            "text": "Dispatch 19 minute ambulance",
            "type": "choice",
            "required": true,
            "repeats": false,
            "option": [
              {
                "valueString": ", Selected: false"
              }
            ]
          }
        ]
      }
    },
    {
      "fullUrl": "urn:uuid:e7013d45-de34-4b43-b821-0d5a46541e47",
      "resource": {
        "resourceType": "PractitionerRole",
        "id": "e7013d45-de34-4b43-b821-0d5a46541e47",
        "practitioner": {
          "reference": "urn:uuid:a7d90105-06de-4155-a6ec-09889bdd5edd"
        },
        "organization": {
          "reference": "urn:uuid:85e3e856-18ad-4264-8ea1-aabde97d590a"
        },
        "code": [
          {
            "coding": [
              {
                "system": "2.16.840.1.113883.2.1.3.2.4.17.196",
                "code": "T1",
                "display": "Nurse Triage Practitioner"
              }
            ]
          }
        ]
      }
    },
    {
      "fullUrl": "urn:uuid:85e3e856-18ad-4264-8ea1-aabde97d590a",
      "resource": {
        "resourceType": "Organization",
        "id": "85e3e856-18ad-4264-8ea1-aabde97d590a",
        "identifier": [
          {
            "value": "5L399"
          }
        ],
        "name": "Medway NHS Foundation Trust"
      }
    },
    {
      "fullUrl": "urn:uuid:7ecb666f-4f69-4156-a0e5-1aff1a6e2dce",
      "resource": {
        "resourceType": "PractitionerRole",
        "id": "7ecb666f-4f69-4156-a0e5-1aff1a6e2dce",
        "practitioner": {
          "reference": "urn:uuid:8c3cbad6-38f3-432f-84fe-b1e08952cbb5"
        },
        "organization": {
          "reference": "urn:uuid:3b5f3537-82b0-4e97-839d-f60e5ef9218a"
        },
        "code": [
          {
            "coding": [
              {
                "system": "2.16.840.1.113883.2.1.3.2.4.17.196",
                "code": "R0010",
                "display": "Medical Director"
              }
            ]
          }
        ]
      }
    },
    {
      "fullUrl": "urn:uuid:3b5f3537-82b0-4e97-839d-f60e5ef9218a",
      "resource": {
        "resourceType": "Organization",
        "id": "3b5f3537-82b0-4e97-839d-f60e5ef9218a",
        "identifier": [
          {
            "value": "VDE232323"
          }
        ],
        "name": "Medway South Out of Hours Centre"
      }
    },{
      "fullUrl": "urn:uuid:8970f844-83e0-4d6f-aa6f-ca6262ba2b93",
      "resource": {
        "resourceType": "Device",
        "id": "8970f844-83e0-4d6f-aa6f-ca6262ba2b93",
        "model": "111 Adaptor",
        "version": "0.9.0"
      }
    },{
      "fullUrl": "urn:uuid:b68e24bf-fc4e-4844-bff6-99d974b4bc78",
      "resource": {
        "resourceType": "List",
        "id": "b68e24bf-fc4e-4844-bff6-99d974b4bc78",
        "status": "current",
        "mode": "working",
        "title": "111 Report List",
        "code": {
          "coding": [
            {
              "system": "http://snomed.info/sct",
              "code": "225390008",
              "display": "Triage"
            }
          ]
        },
        "subject": {
          "reference": "urn:uuid:24add338-d58d-4455-8cf3-9a7ed9714d12"
        },
        "encounter": {
          "reference": "urn:uuid:d66911cd-3cf5-4a48-8023-7530d9a52b6c"
        },
        "date": "2021-08-16T13:04:34+00:00",
        "source": {
          "reference": "urn:uuid:8970f844-83e0-4d6f-aa6f-ca6262ba2b93"
        },
        "orderedBy": {
          "coding": [
            {
              "system": "http://hl7.org/fhir/list-order",
              "code": "event-date",
              "display": "Sorted by Event Date"
            }
          ]
        },
        "entry": [
          {
            "item": {
              "reference": "urn:uuid:81726f05-57f3-4edc-918c-0502d5a98ba5"
            }
          },
          {
            "item": {
              "reference": "urn:uuid:3b5f3537-82b0-4e97-839d-f60e5ef9218a"
            }
          },
          {
            "item": {
              "reference": "urn:uuid:efbc9dd3-7a71-41b9-8ac5-5749c1d551c7"
            }
          },
          {
            "item": {
              "reference": "urn:uuid:8c3cbad6-38f3-432f-84fe-b1e08952cbb5"
            }
          },
          {
            "item": {
              "reference": "urn:uuid:4f537672-bc16-4aed-90f6-13e62e92f9e3"
            }
          },
          {
            "item": {
              "reference": "urn:uuid:e86d3b92-cbb8-4296-88be-cbf0bde35cf6"
            }
          },
          {
            "item": {
              "reference": "urn:uuid:58c0f502-e660-40c6-a409-182286189341"
            }
          },
          {
            "item": {
              "reference": "urn:uuid:d53d33c5-687a-4508-9cf9-0c83cc0e5a4f"
            }
          },
          {
            "item": {
              "reference": "urn:uuid:85e3e856-18ad-4264-8ea1-aabde97d590a"
            }
          },
          {
            "item": {
              "reference": "urn:uuid:a7d90105-06de-4155-a6ec-09889bdd5edd"
            }
          },
          {
            "item": {
              "reference": "urn:uuid:800c2d43-56ac-4957-a6b9-254dce53e4e1"
            }
          },
          {
            "item": {
              "reference": "urn:uuid:c9046223-6f85-412f-89a7-33020c900a26"
            }
          },
          {
            "item": {
              "reference": "urn:uuid:ab18fa72-141c-47fb-b9dd-4de9a328454a"
            }
          },
          {
            "item": {
              "reference": "urn:uuid:53c98166-67c2-48b3-9ee9-47c3dd9d472d"
            }
          },
          {
            "item": {
              "reference": "urn:uuid:8f45b7be-2365-4abe-ab17-c62f8ba5afd3"
            }
          },
          {
            "item": {
              "reference": "urn:uuid:d2218e1c-285c-4caa-a2ab-134b61851572"
            }
          },
          {
            "item": {
              "reference": "urn:uuid:ab779658-ae92-4049-9573-0683b63318bd"
            }
          },
          {
            "item": {
              "reference": "urn:uuid:5968193c-e4ee-46b7-9c41-8feb2a6cc11b"
            }
          },
          {
            "item": {
              "reference": "urn:uuid:cffdd233-5d34-4d0f-b95c-77262d6d0880"
            }
          },
          {
            "item": {
              "reference": "urn:uuid:d1162273-e614-408f-8584-076e84bac102"
            }
          },
          {
            "item": {
              "reference": "urn:uuid:0c4dd6a7-94c4-447f-a92f-638d10b3f8db"
            }
          },
          {
            "item": {
              "reference": "urn:uuid:02150d48-b4ea-454f-aba9-448bbbcb2c8c"
            }
          },
          {
            "item": {
              "reference": "urn:uuid:571bc276-ccaf-4871-9771-ce53490dd698"
            }
          },
          {
            "item": {
              "reference": "urn:uuid:17235c8b-0cee-4f03-b405-e87aa760ffa9"
            }
          },
          {
            "item": {
              "reference": "urn:uuid:4d08dfb9-1e80-4771-bad8-09105f740a79"
            }
          },
          {
            "item": {
              "reference": "urn:uuid:fe6ed306-8360-4545-9488-aea80310837e"
            }
          },
          {
            "item": {
              "reference": "urn:uuid:25833d16-0712-4a52-b126-3687cdddf9ba"
            }
          },
          {
            "item": {
              "reference": "urn:uuid:edac0016-328f-4d18-9aad-4a5a8ae29a23"
            }
          },
          {
            "item": {
              "reference": "urn:uuid:09f7c841-423e-4317-958a-80987ee641a8"
            }
          },
          {
            "item": {
              "reference": "urn:uuid:53564a5d-ed8b-4b0a-a2e6-c4ee965b3c1f"
            }
          },
          {
            "item": {
              "reference": "urn:uuid:05cab41f-523f-4e5f-9eac-f749015704b8"
            }
          },
          {
            "item": {
              "reference": "urn:uuid:49f9b333-3d58-42a6-8a7d-8b813659ed9e"
            }
          },
          {
            "item": {
              "reference": "urn:uuid:90a8e8fe-3e67-4f4a-a022-3fe34dd54762"
            }
          },
          {
            "item": {
              "reference": "urn:uuid:6d0815af-fec9-43f1-8c48-6f5503b1dd66"
            }
          },
          {
            "item": {
              "reference": "urn:uuid:e1c41177-7f0f-4c9b-95d9-36ab6cfc6b15"
            }
          },
          {
            "item": {
              "reference": "urn:uuid:ee0682af-8b7a-4186-b55c-db2f5ab347d7"
            }
          },
          {
            "item": {
              "reference": "urn:uuid:3d6acf5e-34b0-4a38-b319-b4607a6e1bff"
            }
          },
          {
            "item": {
              "reference": "urn:uuid:9dc043b0-0708-4c3b-ab43-22f97d282895"
            }
          },
          {
            "item": {
              "reference": "urn:uuid:50545fd8-5453-4219-a77e-01a56b69eba7"
            }
          },
          {
            "item": {
              "reference": "urn:uuid:2282b2ca-4fb8-404b-83c0-043a6abe3e7a"
            }
          },
          {
            "item": {
              "reference": "urn:uuid:d6d03cc1-da80-476e-94b8-451f8d6af0d0"
            }
          },
          {
            "item": {
              "reference": "urn:uuid:662cdf4a-b3b0-4059-b9d3-50de4e56609f"
            }
          },
          {
            "item": {
              "reference": "urn:uuid:4881196f-2c92-4147-95ce-824e0c6f62b8"
            }
          },
          {
            "item": {
              "reference": "urn:uuid:96ddc4b0-ce06-4387-987f-26c9aed06705"
            }
          },
          {
            "item": {
              "reference": "urn:uuid:b93711bd-7fc0-4ace-bb48-5af93278f806"
            }
          },
          {
            "item": {
              "reference": "urn:uuid:22cc8413-86d0-4f01-89c6-c3f81eb46070"
            }
          },
          {
            "item": {
              "reference": "urn:uuid:0c1b9693-0fc9-47c1-b04e-98f6276f9173"
            }
          },
          {
            "item": {
              "reference": "urn:uuid:07738389-6d31-42ca-b6a5-dc8f05abc719"
            }
          },
          {
            "item": {
              "reference": "urn:uuid:21089e89-acc0-4659-8301-f894e4ea69e2"
            }
          },
          {
            "item": {
              "reference": "urn:uuid:9de7b750-6257-472f-93a0-4eecb9df991a"
            }
          },
          {
            "item": {
              "reference": "urn:uuid:d185bef6-0b21-44dc-9f24-eb22168f7291"
            }
          },
          {
            "item": {
              "reference": "urn:uuid:4be82cba-c721-4c9f-a9c0-d2b5b93ca39a"
            }
          },
          {
            "item": {
              "reference": "urn:uuid:2e5d1215-b05d-4638-9b7c-282a654b456c"
            }
          },
          {
            "item": {
              "reference": "urn:uuid:4626f184-c11c-42b8-ad98-eb65c0c549a3"
            }
          },
          {
            "item": {
              "reference": "urn:uuid:3206c0d8-fb38-46b5-8b01-4fc54bc19a66"
            }
          },
          {
            "item": {
              "reference": "urn:uuid:8d76fc19-8f4e-4847-8679-7c4a82dec6b4"
            }
          },
          {
            "item": {
              "reference": "urn:uuid:89247e58-4baf-435a-be5d-95d277bc22df"
            }
          },
          {
            "item": {
              "reference": "urn:uuid:d03da1a9-a5c9-4c21-9204-2ebdeb6a20c7"
            }
          },
          {
            "item": {
              "reference": "urn:uuid:1592bc53-1cca-454f-a900-4c2535644c2e"
            }
          },
          {
            "item": {
              "reference": "urn:uuid:68177ad8-64fb-4d11-9aee-70fc72284d32"
            }
          },
          {
            "item": {
              "reference": "urn:uuid:77557924-491d-4e7d-891b-6b23fcd9ec33"
            }
          },
          {
            "item": {
              "reference": "urn:uuid:b5d80b50-e659-4ead-88c1-859709c0f664"
            }
          }
        ]
      }
    }
  ]
}