{
  "resourceType": "Bundle",
  "identifier": {
    "type": {
      "text": "ClinicalDocument VersionNumber"
    },
    "value": "2"
  },
  "type": "message",
  "entry": [ {
    "fullUrl": "urn:uuid:2B77B3F5-3016-4A6D-821F-152CE420E58D",
    "resource": {
      "resourceType": "MessageHeader",
      "id": "2B77B3F5-3016-4A6D-821F-152CE420E58D",
      "event": {
        "system": "https://fhir.nhs.uk/STU3/CodeSystem/EventType-1",
        "code": "referral-1",
        "display": "Referral"
      },
      "destination": [ {
        "endpoint": "urn:nhs-uk:addressing:ods:EM396"
      } ],
      "timestamp": "2017-01-01T20:00:00.000+00:00",
      "source": {
        "name": "NHS 111 Adaptor",
        "endpoint": "http://localhost:8080/report"
      },
      "reason": {
        "coding": [ {
          "system": "urn:nhs-itk:ns:201005:interaction",
          "code": "urn:nhs-itk:interaction:primaryEmergencyDepartmentRecipientNHS111CDADocument-v2-0"
        } ]
      }
    }
  }, {
    "fullUrl": "urn:uuid:c8e606eb-d49e-4d86-9ba9-280c918cb8b0",
    "resource": {
      "resourceType": "Encounter",
      "id": "c8e606eb-d49e-4d86-9ba9-280c918cb8b0",
      "identifier": [ {
        "system": "2.16.840.1.113883.2.1.3.2.4.18.49",
        "value": "LOC665"
      }, {
        "system": "2.16.840.1.113883.2.1.3.2.4.18.34",
        "value": "CASEREF1234"
      }, {
        "system": "2.16.840.1.113883.2.1.3.2.4.18.35",
        "value": "CASEID123"
      } ],
      "status": "finished",
      "type": [ {
        "text": "111 Encounter Referral"
      } ],
      "subject": {
        "reference": "urn:uuid:9ca8c12f-7445-4098-9289-276b01c855b5"
      },
      "participant": [ {
        "type": [ {
          "text": "CALLBCK"
        } ],
        "individual": {
          "reference": "urn:uuid:50ad2b01-0bfd-4e97-894a-41e313bc9bf8"
        }
      }, {
        "type": [ {
          "coding": [ {
            "system": "http://hl7.org/fhir/ValueSet/encounter-participant-type",
            "code": "PPRF",
            "display": "Author"
          } ]
        } ],
        "individual": {
          "reference": "urn:uuid:ced12920-01a4-4570-af49-dd1cdce2cd95"
        }
      }, {
        "type": [ {
          "text": "Informant"
        } ],
        "individual": {
          "reference": "urn:uuid:2f770be7-a6e2-4a53-8d74-2d5ca06cb50b"
        }
      }, {
        "type": [ {
          "coding": [ {
            "system": "http://hl7.org/fhir/ValueSet/encounter-participant-type",
            "code": "ATND",
            "display": "Responsible Party"
          } ]
        } ],
        "individual": {
          "reference": "urn:uuid:f2c37a1a-0dfd-4ffe-8b5f-340899262d65"
        }
      } ],
      "appointment": {
        "reference": "urn:uuid:bc6f1c9a-15e3-41fa-86cd-b4d087e13b35"
      },
      "period": {
        "start": "2017-01-01T20:00:00+00:00"
      },
      "location": [ {
        "location": {
          "reference": "urn:uuid:460d354a-8593-47de-b4df-8aeeb02c8f4d"
        },
        "status": "active"
      }, {
        "location": {
          "reference": "urn:uuid:badb74dd-79ea-423b-9326-3251b5622d5e"
        },
        "status": "completed"
      } ],
      "serviceProvider": {
        "reference": "urn:uuid:a0258a4a-3764-4600-a9b4-094b4cb704d6"
      }
    }
  }, {
    "fullUrl": "urn:uuid:a0258a4a-3764-4600-a9b4-094b4cb704d6",
    "resource": {
      "resourceType": "Organization",
      "id": "a0258a4a-3764-4600-a9b4-094b4cb704d6",
      "active": true,
      "type": [ {
        "text": "CST"
      } ],
      "name": "Medway NHS Foundation Trust"
    }
  }, {
    "fullUrl": "urn:uuid:50ad2b01-0bfd-4e97-894a-41e313bc9bf8",
    "resource": {
      "resourceType": "Practitioner",
      "id": "50ad2b01-0bfd-4e97-894a-41e313bc9bf8",
      "active": true,
      "name": [ {
        "text": "Call Centre Manager"
      } ],
      "telecom": [ {
        "system": "phone",
        "value": "tel:08001111111"
      } ]
    }
  }, {
    "fullUrl": "urn:uuid:ced12920-01a4-4570-af49-dd1cdce2cd95",
    "resource": {
      "resourceType": "Practitioner",
      "id": "ced12920-01a4-4570-af49-dd1cdce2cd95",
      "active": true,
      "name": [ {
        "use": "official",
        "family": "Jones",
        "given": [ "Mary" ]
      } ]
    }
  }, {
    "fullUrl": "urn:uuid:2f770be7-a6e2-4a53-8d74-2d5ca06cb50b",
    "resource": {
      "resourceType": "RelatedPerson",
      "id": "2f770be7-a6e2-4a53-8d74-2d5ca06cb50b",
      "active": true,
      "patient": {
        "reference": "urn:uuid:9ca8c12f-7445-4098-9289-276b01c855b5"
      },
      "relationship": {
        "coding": [ {
          "system": "2.16.840.1.113883.2.1.3.2.4.16.45",
          "code": "01",
          "display": "Spouse"
        } ]
      },
      "name": [ {
        "use": "official",
        "family": "Bloggs",
        "given": [ "Helga" ]
      } ],
      "telecom": [ {
        "system": "phone",
        "value": "tel:07886554123",
        "use": "mobile"
      }, {
        "system": "phone",
        "value": "tel:01783678321"
      } ],
      "gender": "unknown",
      "address": [ {
        "use": "home",
        "line": [ "43 Summers Avenue", "Somerset Street" ],
        "city": "Medway",
        "postalCode": "ME5 7TY"
      } ]
    }
  }, {
    "fullUrl": "urn:uuid:f2c37a1a-0dfd-4ffe-8b5f-340899262d65",
    "resource": {
      "resourceType": "Practitioner",
      "id": "f2c37a1a-0dfd-4ffe-8b5f-340899262d65",
      "active": true,
      "name": [ {
        "use": "official",
        "family": "Cornwell",
        "given": [ "Dave" ]
      } ]
    }
  }, {
    "fullUrl": "urn:uuid:460d354a-8593-47de-b4df-8aeeb02c8f4d",
    "resource": {
      "resourceType": "Location",
      "id": "460d354a-8593-47de-b4df-8aeeb02c8f4d",
      "managingOrganization": {
        "reference": "urn:uuid:05734c7a-5826-4f57-94d3-dd946b526bce"
      }
    }
  }, {
    "fullUrl": "urn:uuid:05734c7a-5826-4f57-94d3-dd946b526bce",
    "resource": {
      "resourceType": "Organization",
      "id": "05734c7a-5826-4f57-94d3-dd946b526bce",
      "identifier": [ {
        "value": "V396F"
      } ],
      "type": [ {
        "text": "GP Practice"
      } ],
      "name": "Medway Medical Practice",
      "telecom": [ {
        "system": "phone",
        "value": "tel:01634111222",
        "use": "work"
      } ],
      "address": [ {
        "use": "work",
        "line": [ "Springer Street" ],
        "city": "Medway",
        "postalCode": "ME5 5TY"
      } ]
    }
  }, {
    "fullUrl": "urn:uuid:badb74dd-79ea-423b-9326-3251b5622d5e",
    "resource": {
      "resourceType": "Location",
      "id": "badb74dd-79ea-423b-9326-3251b5622d5e",
      "name": "Incident Location",
      "address": {
        "type": "physical",
        "text": "Follow the high street and turn left by Boots",
        "line": [ "2, Brancaster Road" ],
        "city": "Medway",
        "postalCode": "ME5 4LS",
        "country": "GB"
      }
    }
  }, {
    "fullUrl": "urn:uuid:9ca8c12f-7445-4098-9289-276b01c855b5",
    "resource": {
      "resourceType": "Patient",
      "id": "9ca8c12f-7445-4098-9289-276b01c855b5",
      "language": "en",
      "identifier": [ {
        "extension": [ {
          "url": "https://fhir.hl7.org.uk/STU3/StructureDefinition/Extension-CareConnect-NHSNumberVerificationStatus-1",
          "valueCodeableConcept": {
            "coding": [ {
              "system": "https://fhir.hl7.org.uk/STU3/StructureDefinition/Extension-CareConnect-NHSNumberVerificationStatus-1",
              "code": "02"
            } ]
          }
        } ],
        "system": "https://fhir.nhs.uk/Id/nhs-number",
        "value": "993254128"
      } ],
      "active": true,
      "name": [ {
        "use": "official",
        "family": "Joe",
        "given": [ "Blogg" ],
        "prefix": [ "Mr" ]
      } ],
      "telecom": [ {
        "system": "phone",
        "value": "tel:01634775667",
        "use": "home"
      }, {
        "system": "phone",
        "value": "tel:01634451628",
        "use": "home"
      }, {
        "system": "email",
        "value": "mailto:Joe.Blogg@emailfree.co.uk",
        "use": "home"
      } ],
      "gender": "male",
      "birthDate": "1989-01-01",
      "address": [ {
        "use": "home",
        "line": [ "17, County Avenue", "Woodtown" ],
        "city": "Medway",
        "postalCode": "ME5 FS3"
      } ],
      "generalPractitioner": [ {
        "reference": "urn:uuid:781fc8c2-9912-460f-a69c-8d8a9568fc56"
      } ]
    }
  }, {
    "fullUrl": "urn:uuid:781fc8c2-9912-460f-a69c-8d8a9568fc56",
    "resource": {
      "resourceType": "Organization",
      "id": "781fc8c2-9912-460f-a69c-8d8a9568fc56",
      "identifier": [ {
        "value": "V396F"
      } ],
      "type": [ {
        "text": "GP Practice"
      } ],
      "name": "Medway Medical Practice",
      "telecom": [ {
        "system": "phone",
        "value": "tel:01634111222",
        "use": "work"
      } ],
      "address": [ {
        "use": "work",
        "line": [ "Springer Street" ],
        "city": "Medway",
        "postalCode": "ME5 5TY"
      } ]
    }
  }, {
    "fullUrl": "urn:uuid:1c6dfe08-b478-483d-b962-1e8520f1d927",
    "resource": {
      "resourceType": "HealthcareService",
      "id": "1c6dfe08-b478-483d-b962-1e8520f1d927",
      "active": true,
      "providedBy": {
        "reference": "urn:uuid:8a378f8e-fd22-43d6-b52a-aaf30ca9748e"
      },
      "location": [ {
        "reference": "urn:uuid:25836b50-8793-4bf5-b4fa-842c472beb2d"
      } ],
      "name": "Thames Medical Practice",
      "telecom": [ {
        "system": "phone",
        "value": "tel:0123476895",
        "use": "work"
      } ]
    }
  }, {
    "fullUrl": "urn:uuid:25836b50-8793-4bf5-b4fa-842c472beb2d",
    "resource": {
      "resourceType": "Location",
      "id": "25836b50-8793-4bf5-b4fa-842c472beb2d",
      "telecom": [ {
        "system": "phone",
        "value": "tel:0123476895",
        "use": "work"
      } ],
      "address": {
        "use": "work",
        "line": [ "Thames Medical Practice", "Hill Street Branch Surgery", "Medway", "Essex" ],
        "postalCode": "ME4 5TT"
      },
      "managingOrganization": {
        "reference": "urn:uuid:8a378f8e-fd22-43d6-b52a-aaf30ca9748e"
      }
    }
  }, {
    "fullUrl": "urn:uuid:8a378f8e-fd22-43d6-b52a-aaf30ca9748e",
    "resource": {
      "resourceType": "Organization",
      "id": "8a378f8e-fd22-43d6-b52a-aaf30ca9748e",
      "identifier": [ {
        "value": "PRA123"
      } ],
      "type": [ {
        "coding": [ {
          "code": "PRCP",
          "display": "Thames Medical Practice"
        } ]
      } ],
      "name": "Thames Medical Practice"
    }
  }, {
    "fullUrl": "urn:uuid:9554d00e-1819-4efe-a7e2-4836c819614d",
    "resource": {
      "resourceType": "HealthcareService",
      "id": "9554d00e-1819-4efe-a7e2-4836c819614d",
      "active": true,
      "providedBy": {
        "reference": "urn:uuid:211e3675-e6aa-4e1d-85ee-053cbbb0a1bf"
      },
      "location": [ {
        "reference": "urn:uuid:7b9e3c47-81ed-4826-b0c1-d1af93902f46"
      } ],
      "name": "Medway Kent Out of Hours Clinic"
    }
  }, {
    "fullUrl": "urn:uuid:7b9e3c47-81ed-4826-b0c1-d1af93902f46",
    "resource": {
      "resourceType": "Location",
      "id": "7b9e3c47-81ed-4826-b0c1-d1af93902f46",
      "managingOrganization": {
        "reference": "urn:uuid:211e3675-e6aa-4e1d-85ee-053cbbb0a1bf"
      }
    }
  }, {
    "fullUrl": "urn:uuid:211e3675-e6aa-4e1d-85ee-053cbbb0a1bf",
    "resource": {
      "resourceType": "Organization",
      "id": "211e3675-e6aa-4e1d-85ee-053cbbb0a1bf",
      "identifier": [ {
        "value": "EM396"
      } ],
      "type": [ {
        "coding": [ {
          "code": "PRCP",
          "display": "Medway Kent Out of Hours Clinic"
        } ]
      } ],
      "name": "Medway Kent Out of Hours Clinic"
    }
  }, {
    "fullUrl": "urn:uuid:e4f69be7-dbcf-4b42-9e83-4ed465352128",
    "resource": {
      "resourceType": "ReferralRequest",
      "id": "e4f69be7-dbcf-4b42-9e83-4ed465352128",
      "status": "active",
      "intent": "plan",
      "priority": "routine",
      "subject": {
        "reference": "urn:uuid:9ca8c12f-7445-4098-9289-276b01c855b5"
      },
      "context": {
        "reference": "urn:uuid:c8e606eb-d49e-4d86-9ba9-280c918cb8b0"
      },
      "occurrencePeriod": {
        "start": "2022-05-05T07:31:33+00:00",
        "end": "2022-05-05T08:31:33+00:00"
      },
      "authoredOn": "2019-01-01T20:00:00+00:00",
      "requester": {
        "agent": {
          "reference": "urn:uuid:e56bfc35-8810-431a-9fe0-563675a3f7d6"
        },
        "onBehalfOf": {
          "reference": "urn:uuid:a0258a4a-3764-4600-a9b4-094b4cb704d6"
        }
      },
      "recipient": [ {
        "reference": "urn:uuid:c3da516b-26d8-43ae-98ca-a51e8cf5ef26"
      }, {
        "reference": "urn:uuid:1c6dfe08-b478-483d-b962-1e8520f1d927"
      }, {
        "reference": "urn:uuid:9554d00e-1819-4efe-a7e2-4836c819614d"
      } ],
      "reasonReference": [ {
        "reference": "urn:uuid:65a84777-c35d-4c2f-b454-de5a49974c70"
      } ],
      "supportingInfo": [ {
        "reference": "urn:uuid:73e90e76-c8d8-45be-bff9-fab745010cd1"
      } ]
    }
  }, {
    "fullUrl": "urn:uuid:73e90e76-c8d8-45be-bff9-fab745010cd1",
    "resource": {
      "resourceType": "ProcedureRequest",
      "id": "73e90e76-c8d8-45be-bff9-fab745010cd1",
      "status": "active",
      "intent": "plan",
      "priority": "routine",
      "doNotPerform": false,
      "code": {
        "coding": [ {
          "system": "2.16.840.1.113883.2.1.3.2.4.17.325",
          "code": "Dx001",
          "display": "Passed onto clinical hub"
        } ]
      },
      "subject": {
        "reference": "urn:uuid:9ca8c12f-7445-4098-9289-276b01c855b5"
      },
      "occurrencePeriod": {
        "start": "2022-05-05T07:31:33+00:00",
        "end": "2022-05-05T08:31:33+00:00"
      },
      "reasonReference": [ {
        "reference": "urn:uuid:65a84777-c35d-4c2f-b454-de5a49974c70"
      } ]
    }
  }, {
    "fullUrl": "urn:uuid:c3da516b-26d8-43ae-98ca-a51e8cf5ef26",
    "resource": {
      "resourceType": "Practitioner",
      "id": "c3da516b-26d8-43ae-98ca-a51e8cf5ef26",
      "active": true,
      "telecom": [ {
        "system": "phone",
        "value": "tel:0123456789"
      } ],
      "address": [ {
        "type": "physical",
        "line": [ "Church Street Walk in Centre", "4 Church Street", "Medway" ],
        "postalCode": "ME8 7TT"
      } ]
    }
  }, {
    "fullUrl": "urn:uuid:11e75145-439e-4a1f-ab59-1e946af781d4",
    "resource": {
      "resourceType": "Composition",
      "id": "11e75145-439e-4a1f-ab59-1e946af781d4",
      "identifier": {
        "use": "usual",
        "value": "411910CF-1A76-4330-98FE-C345DDEE5553"
      },
      "status": "final",
      "type": {
        "coding": [ {
          "system": "http://snomed.info/sct",
          "code": "371531000",
          "display": "Report of clinical encounter (record artifact)"
        } ]
      },
      "subject": {
        "reference": "urn:uuid:9ca8c12f-7445-4098-9289-276b01c855b5"
      },
      "encounter": {
        "reference": "urn:uuid:c8e606eb-d49e-4d86-9ba9-280c918cb8b0"
      },
      "date": "2017-01-01T20:00:00+00:00",
      "author": [ {
        "reference": "urn:uuid:ced12920-01a4-4570-af49-dd1cdce2cd95"
      } ],
      "title": "111 Report",
      "confidentiality": "V",
      "section": [ {
        "section": [ {
          "title": "Permission to View",
          "text": {
            "status": "generated",
            "div": "<div xmlns=\"http://www.w3.org/1999/xhtml\">&lt;table&gt;\n                                                        &lt;tbody&gt;\n                                                            &lt;tr&gt;\n                                                                &lt;th&gt;Permission to view outcome&lt;/th&gt;\n                                                                &lt;td&gt;Permission to view obtained&lt;/td&gt;\n                                                            &lt;/tr&gt;\n                                                            &lt;tr&gt;\n                                                                &lt;th&gt;Date obtained&lt;/th&gt;\n                                                                &lt;td&gt;01-Jan-2017, 20:00&lt;/td&gt;\n                                                            &lt;/tr&gt;\n                                                            &lt;tr&gt;\n                                                                &lt;th&gt;Date expires&lt;/th&gt;\n                                                                &lt;td&gt;15-Jan-2017, 20:00&lt;/td&gt;\n                                                            &lt;/tr&gt;\n                                                        &lt;/tbody&gt;\n                                                    &lt;/table&gt;</div>"
          }
        }, {
          "title": "Primary Reason for Call",
          "text": {
            "status": "generated",
            "div": "<div xmlns=\"http://www.w3.org/1999/xhtml\">&lt;content&gt;Patient feels dizzy.&lt;/content&gt;</div>"
          },
          "section": [ {
            "title": "SUBSUB2",
            "text": {
              "status": "generated",
              "div": "<div xmlns=\"http://www.w3.org/1999/xhtml\">&lt;content&gt;SUBSUB2&lt;/content&gt;</div>"
            },
            "section": [ {
              "title": "SUBSUB3",
              "text": {
                "status": "generated",
                "div": "<div xmlns=\"http://www.w3.org/1999/xhtml\">&lt;content&gt;SUBSUB3&lt;/content&gt;</div>"
              }
            } ]
          } ]
        }, {
          "title": "Clinical Summary",
          "text": {
            "status": "generated",
            "div": "<div xmlns=\"http://www.w3.org/1999/xhtml\">&lt;content&gt;\n                                                        Patient fels nausea and dizzy after waking up. Lasted 30\n                                                        minutes.\n                                                    &lt;/content&gt;</div>"
          }
        }, {
          "title": "Additional Patient Notes",
          "text": {
            "status": "generated",
            "div": "<div xmlns=\"http://www.w3.org/1999/xhtml\">Additional Patient Notes\n                                                    &lt;br/&gt;\n                                                    Additional Patient Notes abc 01-Feb-2017, 12:00\n                                                    &lt;br/&gt;</div>"
          },
          "section": [ {
            "text": {
              "status": "generated",
              "div": "<div xmlns=\"http://www.w3.org/1999/xhtml\">These are more notes, nested under the top one.</div>"
            }
          } ]
        }, {
          "title": "Disposition Details",
          "text": {
            "status": "generated",
            "div": "<div xmlns=\"http://www.w3.org/1999/xhtml\">&lt;content&gt;Lie down.&lt;/content&gt;</div>"
          }
        }, {
          "title": "Information and advice given",
          "text": {
            "status": "generated",
            "div": "<div xmlns=\"http://www.w3.org/1999/xhtml\">&lt;content&gt;Do not perform any strenuous activities.&lt;/content&gt;</div>"
          }
        }, {
          "title": "Recorded Allergies",
          "text": {
            "status": "generated",
            "div": "<div xmlns=\"http://www.w3.org/1999/xhtml\">&lt;content&gt;No known allergies or adverse reaction.&lt;/content&gt;</div>"
          }
        }, {
          "title": "Triage Report",
          "text": {
            "status": "generated",
            "div": "<div xmlns=\"http://www.w3.org/1999/xhtml\">&lt;content&gt;An injury or other health problem was described.\n                                                        &lt;br/&gt;The individual was described as breathing and conscious.\n                                                        &lt;br/&gt;Loss of at least a mugful of blood in the last 30 minutes\n                                                        was not described.\n                                                        &lt;br/&gt;An illness or other health problem was described. -\n                                                        Dizziness\n                                                        &lt;br/&gt;Fighting for breath was not described.\n                                                        &lt;br/&gt;A heart attack, chest/upper back pain, recent probable\n                                                        stroke, recent fit/seizure or suicide attempt was not described\n                                                        as the main call reason.\n                                                        &lt;br/&gt;Dizziness and nausea was described.\n                                                        &lt;br/&gt;\n                                                    &lt;/content&gt;</div>"
          }
        }, {
          "title": "Prescribed Items",
          "text": {
            "status": "generated",
            "div": "<div xmlns=\"http://www.w3.org/1999/xhtml\">&lt;content&gt;\n                                                        Medications\n                                                    &lt;/content&gt;</div>"
          }
        }, {
          "title": "Appointment Reference",
          "text": {
            "status": "generated",
            "div": "<div xmlns=\"http://www.w3.org/1999/xhtml\">&lt;content&gt;\n                                                        Date/Time: 01 June 2017 14:00\n                                                        Location: CENTRAL LONDON COMMUNITY HEALTHCARE NHS TRUST\n                                                        Psychiatric Community Care Service\n                                                    &lt;/content&gt;</div>"
          }
        } ]
      }, {
        "title": "CarePlan",
        "entry": [ {
          "reference": "urn:uuid:855cbb85-420d-4c6a-ba5d-8095464ac660"
        } ]
      }, {
        "title": "ReferralRequest",
        "entry": [ {
          "reference": "urn:uuid:e4f69be7-dbcf-4b42-9e83-4ed465352128"
        } ]
      }, {
        "title": "QuestionnaireResponse",
        "entry": [ {
          "reference": "urn:uuid:9062f9a7-a097-4e08-baf5-1b60f2c16c82"
        } ]
      }, {
        "title": "QuestionnaireResponse",
        "entry": [ {
          "reference": "urn:uuid:0a5c9a90-689f-4e31-989f-812287b0e42b"
        } ]
      }, {
        "title": "QuestionnaireResponse",
        "entry": [ {
          "reference": "urn:uuid:b6a007c2-88fb-4b0e-8675-b231a90f7fa5"
        } ]
      }, {
        "title": "QuestionnaireResponse",
        "entry": [ {
          "reference": "urn:uuid:d962dadb-07ca-440b-bfec-b941083c0a17"
        } ]
      }, {
        "title": "QuestionnaireResponse",
        "entry": [ {
          "reference": "urn:uuid:2696cf44-c411-4393-8037-2d39a160b7fe"
        } ]
      }, {
        "title": "QuestionnaireResponse",
        "entry": [ {
          "reference": "urn:uuid:b2b1ace2-7ae2-40db-81dc-53731e2d607e"
        } ]
      }, {
        "title": "QuestionnaireResponse",
        "entry": [ {
          "reference": "urn:uuid:448a2ba1-2d88-469c-82c1-05f672aadddc"
        } ]
      }, {
        "title": "QuestionnaireResponse",
        "entry": [ {
          "reference": "urn:uuid:7f61ce6d-0f8e-4c87-b035-4d6af9263677"
        } ]
      }, {
        "title": "QuestionnaireResponse",
        "entry": [ {
          "reference": "urn:uuid:5f8e385f-7eed-4ad4-8c8a-4eeb7e0fdb75"
        } ]
      }, {
        "title": "QuestionnaireResponse",
        "entry": [ {
          "reference": "urn:uuid:7ce5b778-fe02-4c25-86d0-f0e0644d3b13"
        } ]
      }, {
        "title": "QuestionnaireResponse",
        "entry": [ {
          "reference": "urn:uuid:0e6e2e60-0201-4a73-86d9-82dd09e28ac2"
        } ]
      }, {
        "title": "QuestionnaireResponse",
        "entry": [ {
          "reference": "urn:uuid:c9763488-2087-4615-ad00-753224436a58"
        } ]
      }, {
        "title": "QuestionnaireResponse",
        "entry": [ {
          "reference": "urn:uuid:78a9aeda-86ec-4fd7-b188-07cb17391ec4"
        } ]
      }, {
        "title": "QuestionnaireResponse",
        "entry": [ {
          "reference": "urn:uuid:af620249-aa22-4a3f-9eae-d44b3ab27f61"
        } ]
      }, {
        "title": "QuestionnaireResponse",
        "entry": [ {
          "reference": "urn:uuid:0a178ec7-08ed-49aa-8b04-7f70c1e4b933"
        } ]
      }, {
        "title": "QuestionnaireResponse",
        "entry": [ {
          "reference": "urn:uuid:b3018b5f-4122-4e41-94ad-e3118bf67978"
        } ]
      }, {
        "title": "QuestionnaireResponse",
        "entry": [ {
          "reference": "urn:uuid:fb6da995-5051-4ea0-b7c2-2799ef7fbbcd"
        } ]
      }, {
        "title": "QuestionnaireResponse",
        "entry": [ {
          "reference": "urn:uuid:31c47155-2046-47d6-af11-a0689c2aaf0a"
        } ]
      }, {
        "title": "QuestionnaireResponse",
        "entry": [ {
          "reference": "urn:uuid:488e43ba-10d9-45a0-bf83-82202268b83e"
        } ]
      }, {
        "title": "QuestionnaireResponse",
        "entry": [ {
          "reference": "urn:uuid:bce3a09b-e249-4b55-a72a-3b8348643115"
        } ]
      }, {
        "title": "QuestionnaireResponse",
        "entry": [ {
          "reference": "urn:uuid:57a17628-844d-43b8-a7eb-1e1bbb091a4e"
        } ]
      }, {
        "title": "QuestionnaireResponse",
        "entry": [ {
          "reference": "urn:uuid:3f078556-6799-4351-9fb0-870b8ab65549"
        } ]
      }, {
        "title": "QuestionnaireResponse",
        "entry": [ {
          "reference": "urn:uuid:f8af0901-4c19-4256-b62e-594e8515f839"
        } ]
      }, {
        "title": "QuestionnaireResponse",
        "entry": [ {
          "reference": "urn:uuid:eb308eec-5fb0-438b-bfe3-f4ab0f5c1297"
        } ]
      } ]
    }
  }, {
    "fullUrl": "urn:uuid:855cbb85-420d-4c6a-ba5d-8095464ac660",
    "resource": {
      "resourceType": "CarePlan",
      "id": "855cbb85-420d-4c6a-ba5d-8095464ac660",
      "status": "completed",
      "intent": "plan",
      "title": "Information and advice given",
      "description": "Do not perform any strenuous activities.",
      "subject": {
        "reference": "urn:uuid:9ca8c12f-7445-4098-9289-276b01c855b5"
      },
      "context": {
        "reference": "urn:uuid:c8e606eb-d49e-4d86-9ba9-280c918cb8b0"
      },
      "period": {
        "start": "2017-01-01T20:00:00+00:00"
      },
      "author": [ {
        "reference": "urn:uuid:05734c7a-5826-4f57-94d3-dd946b526bce"
      } ],
      "addresses": [ {
        "reference": "urn:uuid:65a84777-c35d-4c2f-b454-de5a49974c70"
      } ]
    }
  }, {
    "fullUrl": "urn:uuid:e8413a89-6280-4f28-86a9-0954e05467fb",
    "resource": {
      "resourceType": "Consent",
      "id": "e8413a89-6280-4f28-86a9-0954e05467fb",
      "text": {
        "status": "generated",
        "div": "<div xmlns=\"http://www.w3.org/1999/xhtml\">\n                                                    <table>\n                                                        <tbody>\n                                                            <tr>\n                                                                <th>Permission to view outcome</th>\n                                                                <td>Permission to view obtained</td>\n                                                            </tr>\n                                                            <tr>\n                                                                <th>Date obtained</th>\n                                                                <td>01-Jan-2017, 20:00</td>\n                                                            </tr>\n                                                            <tr>\n                                                                <th>Date expires</th>\n                                                                <td>15-Jan-2017, 20:00</td>\n                                                            </tr>\n                                                        </tbody>\n                                                    </table>\n                                                </div>"
      },
      "identifier": {
        "use": "usual",
        "value": "411910CF-1A76-4330-98FE-C345DDEE5553"
      },
      "status": "active",
      "patient": {
        "reference": "urn:uuid:9ca8c12f-7445-4098-9289-276b01c855b5"
      },
      "period": {
        "start": "2017-01-01T20:00:00+00:00"
      },
      "consentingParty": [ {
        "reference": "urn:uuid:9ca8c12f-7445-4098-9289-276b01c855b5"
      } ],
      "action": [ {
        "coding": [ {
          "system": "http://snomed.info/sct",
          "code": "425691002",
          "display": "Consent given for electronic record sharing"
        } ],
        "text": "Consent given for electronic record sharing"
      } ],
      "organization": [ {
        "reference": "urn:uuid:a0258a4a-3764-4600-a9b4-094b4cb704d6"
      } ],
      "sourceIdentifier": {
        "value": "41D9F90F-6DB7-4939-BEF5-F8D75D79ECDD"
      },
      "policyRule": "http://hl7.org/fhir/ConsentPolicy/opt-out",
      "dataPeriod": {
        "start": "2011-05-19T20:00:00+00:00",
        "end": "2011-05-26T20:00:00+00:00"
      },
      "data": [ {
        "meaning": "related",
        "reference": {
          "reference": "urn:uuid:c8e606eb-d49e-4d86-9ba9-280c918cb8b0"
        }
      } ]
    }
  }, {
    "fullUrl": "urn:uuid:65a84777-c35d-4c2f-b454-de5a49974c70",
    "resource": {
      "resourceType": "Condition",
      "id": "65a84777-c35d-4c2f-b454-de5a49974c70",
      "clinicalStatus": "active",
      "verificationStatus": "unknown",
      "code": {
        "coding": [ {
          "system": "22298006",
          "code": "2.16.840.1.113883.2.1.3.2.4.15",
          "display": "Myocardial infarction"
        } ]
      },
      "subject": {
        "reference": "urn:uuid:9ca8c12f-7445-4098-9289-276b01c855b5"
      },
      "context": {
        "reference": "urn:uuid:c8e606eb-d49e-4d86-9ba9-280c918cb8b0"
      },
      "assertedDate": "2017-06-01T14:00:00+00:00",
      "evidence": [ {
        "detail": [ {
          "reference": "urn:uuid:9062f9a7-a097-4e08-baf5-1b60f2c16c82"
        } ]
      }, {
        "detail": [ {
          "reference": "urn:uuid:0a5c9a90-689f-4e31-989f-812287b0e42b"
        } ]
      }, {
        "detail": [ {
          "reference": "urn:uuid:b6a007c2-88fb-4b0e-8675-b231a90f7fa5"
        } ]
      }, {
        "detail": [ {
          "reference": "urn:uuid:d962dadb-07ca-440b-bfec-b941083c0a17"
        } ]
      }, {
        "detail": [ {
          "reference": "urn:uuid:2696cf44-c411-4393-8037-2d39a160b7fe"
        } ]
      }, {
        "detail": [ {
          "reference": "urn:uuid:b2b1ace2-7ae2-40db-81dc-53731e2d607e"
        } ]
      }, {
        "detail": [ {
          "reference": "urn:uuid:448a2ba1-2d88-469c-82c1-05f672aadddc"
        } ]
      }, {
        "detail": [ {
          "reference": "urn:uuid:7f61ce6d-0f8e-4c87-b035-4d6af9263677"
        } ]
      }, {
        "detail": [ {
          "reference": "urn:uuid:5f8e385f-7eed-4ad4-8c8a-4eeb7e0fdb75"
        } ]
      }, {
        "detail": [ {
          "reference": "urn:uuid:7ce5b778-fe02-4c25-86d0-f0e0644d3b13"
        } ]
      }, {
        "detail": [ {
          "reference": "urn:uuid:0e6e2e60-0201-4a73-86d9-82dd09e28ac2"
        } ]
      }, {
        "detail": [ {
          "reference": "urn:uuid:c9763488-2087-4615-ad00-753224436a58"
        } ]
      }, {
        "detail": [ {
          "reference": "urn:uuid:78a9aeda-86ec-4fd7-b188-07cb17391ec4"
        } ]
      }, {
        "detail": [ {
          "reference": "urn:uuid:af620249-aa22-4a3f-9eae-d44b3ab27f61"
        } ]
      }, {
        "detail": [ {
          "reference": "urn:uuid:0a178ec7-08ed-49aa-8b04-7f70c1e4b933"
        } ]
      }, {
        "detail": [ {
          "reference": "urn:uuid:b3018b5f-4122-4e41-94ad-e3118bf67978"
        } ]
      }, {
        "detail": [ {
          "reference": "urn:uuid:fb6da995-5051-4ea0-b7c2-2799ef7fbbcd"
        } ]
      }, {
        "detail": [ {
          "reference": "urn:uuid:31c47155-2046-47d6-af11-a0689c2aaf0a"
        } ]
      }, {
        "detail": [ {
          "reference": "urn:uuid:488e43ba-10d9-45a0-bf83-82202268b83e"
        } ]
      }, {
        "detail": [ {
          "reference": "urn:uuid:bce3a09b-e249-4b55-a72a-3b8348643115"
        } ]
      }, {
        "detail": [ {
          "reference": "urn:uuid:57a17628-844d-43b8-a7eb-1e1bbb091a4e"
        } ]
      }, {
        "detail": [ {
          "reference": "urn:uuid:3f078556-6799-4351-9fb0-870b8ab65549"
        } ]
      }, {
        "detail": [ {
          "reference": "urn:uuid:f8af0901-4c19-4256-b62e-594e8515f839"
        } ]
      }, {
        "detail": [ {
          "reference": "urn:uuid:eb308eec-5fb0-438b-bfe3-f4ab0f5c1297"
        } ]
      } ]
    }
  }, {
    "fullUrl": "urn:uuid:9062f9a7-a097-4e08-baf5-1b60f2c16c82",
    "resource": {
      "resourceType": "QuestionnaireResponse",
      "id": "9062f9a7-a097-4e08-baf5-1b60f2c16c82",
      "identifier": {
        "value": "8067b9b2-e604-4414-b56f-8e3cc4de4b1b"
      },
      "questionnaire": {
        "reference": "urn:uuid:55128360-5c59-4476-9649-9d0eda4e00b7"
      },
      "status": "completed",
      "subject": {
        "reference": "urn:uuid:9ca8c12f-7445-4098-9289-276b01c855b5"
      },
      "context": {
        "reference": "urn:uuid:c8e606eb-d49e-4d86-9ba9-280c918cb8b0"
      },
      "authored": "2011-02-17T17:31:14+00:00",
      "item": [ {
        "linkId": "N/A"
      } ]
    }
  }, {
    "fullUrl": "urn:uuid:55128360-5c59-4476-9649-9d0eda4e00b7",
    "resource": {
      "resourceType": "Questionnaire",
      "id": "55128360-5c59-4476-9649-9d0eda4e00b7",
      "identifier": [ {
        "value": "8067b9b2-e604-4414-b56f-8e3cc4de4b1b"
      } ],
      "version": "2011-02-17T17:31:14.313Z",
      "status": "active",
      "experimental": false,
      "date": "2011-02-17T17:31:14+00:00",
      "publisher": "User ID: '3137' User name: 'redacted' User skill set: 'T1'",
      "lastReviewDate": "2011-02-17",
      "jurisdiction": [ {
        "text": "England"
      } ],
      "contact": [ {
        "telecom": [ {
          "system": "phone",
          "value": "redacted"
        } ]
      } ],
      "subjectType": [ "Patient" ],
      "item": [ {
        "linkId": "8067b9b2-e604-4414-b56f-8e3cc4de4b1b",
        "prefix": "0",
        "type": "choice",
        "required": true,
        "repeats": false,
        "option": [ {
          "valueString": ", Selected: false"
        } ]
      } ]
    }
  }, {
    "fullUrl": "urn:uuid:0a5c9a90-689f-4e31-989f-812287b0e42b",
    "resource": {
      "resourceType": "QuestionnaireResponse",
      "id": "0a5c9a90-689f-4e31-989f-812287b0e42b",
      "identifier": {
        "value": "8067b9b2-e604-4414-b56f-8e3cc4de4b1b"
      },
      "questionnaire": {
        "reference": "urn:uuid:4916a828-53c5-4283-8bdb-ab764c75d271"
      },
      "status": "completed",
      "subject": {
        "reference": "urn:uuid:9ca8c12f-7445-4098-9289-276b01c855b5"
      },
      "context": {
        "reference": "urn:uuid:c8e606eb-d49e-4d86-9ba9-280c918cb8b0"
      },
      "authored": "2011-02-17T17:31:14+00:00",
      "item": [ {
        "linkId": "N/A"
      } ]
    }
  }, {
    "fullUrl": "urn:uuid:4916a828-53c5-4283-8bdb-ab764c75d271",
    "resource": {
      "resourceType": "Questionnaire",
      "id": "4916a828-53c5-4283-8bdb-ab764c75d271",
      "identifier": [ {
        "value": "8067b9b2-e604-4414-b56f-8e3cc4de4b1b"
      } ],
      "version": "2011-02-17T17:31:14.313Z",
      "status": "active",
      "experimental": false,
      "date": "2011-02-17T17:31:14+00:00",
      "publisher": "User ID: '3137' User name: 'redacted' User skill set: 'T1'",
      "lastReviewDate": "2011-02-17",
      "jurisdiction": [ {
        "text": "England"
      } ],
      "contact": [ {
        "telecom": [ {
          "system": "phone",
          "value": "redacted"
        } ]
      } ],
      "subjectType": [ "Patient" ],
      "item": [ {
        "linkId": "8067b9b2-e604-4414-b56f-8e3cc4de4b1b",
        "prefix": "0",
        "type": "choice",
        "required": true,
        "repeats": false,
        "option": [ {
          "valueString": ", Selected: false"
        } ]
      } ]
    }
  }, {
    "fullUrl": "urn:uuid:b6a007c2-88fb-4b0e-8675-b231a90f7fa5",
    "resource": {
      "resourceType": "QuestionnaireResponse",
      "id": "b6a007c2-88fb-4b0e-8675-b231a90f7fa5",
      "identifier": {
        "value": "8067b9b2-e604-4414-b56f-8e3cc4de4b1b"
      },
      "questionnaire": {
        "reference": "urn:uuid:c4ab091a-62f2-4616-a23d-2ebee3461db4"
      },
      "status": "completed",
      "subject": {
        "reference": "urn:uuid:9ca8c12f-7445-4098-9289-276b01c855b5"
      },
      "context": {
        "reference": "urn:uuid:c8e606eb-d49e-4d86-9ba9-280c918cb8b0"
      },
      "authored": "2011-02-17T17:31:14+00:00",
      "item": [ {
        "linkId": "Tx220109",
        "text": "What is the reason for the call?",
        "answer": [ {
          "valueString": "an injury or other health problem"
        } ]
      } ]
    }
  }, {
    "fullUrl": "urn:uuid:c4ab091a-62f2-4616-a23d-2ebee3461db4",
    "resource": {
      "resourceType": "Questionnaire",
      "id": "c4ab091a-62f2-4616-a23d-2ebee3461db4",
      "identifier": [ {
        "value": "8067b9b2-e604-4414-b56f-8e3cc4de4b1b"
      } ],
      "version": "2011-02-17T17:31:14.313Z",
      "status": "active",
      "experimental": false,
      "date": "2011-02-17T17:31:14+00:00",
      "publisher": "User ID: '3137' User name: 'redacted' User skill set: 'T1'",
      "lastReviewDate": "2011-02-17",
      "jurisdiction": [ {
        "text": "England"
      } ],
      "contact": [ {
        "telecom": [ {
          "system": "phone",
          "value": "redacted"
        } ]
      } ],
      "subjectType": [ "Patient" ],
      "item": [ {
        "linkId": "8067b9b2-e604-4414-b56f-8e3cc4de4b1b",
        "prefix": "5",
        "text": "What is the reason for the call?",
        "type": "choice",
        "required": true,
        "repeats": false,
        "option": [ {
          "valueString": "an injury or other health problem, Selected: true"
        }, {
          "valueString": "a need to access another healthcare provider, Selected: false"
        }, {
          "valueString": "a healthcare professional requesting contact with another clinician, Selected: false"
        }, {
          "valueString": "a report of results or tests, Selected: false"
        }, {
          "valueString": "more, Selected: false"
        } ]
      } ]
    }
  }, {
    "fullUrl": "urn:uuid:d962dadb-07ca-440b-bfec-b941083c0a17",
    "resource": {
      "resourceType": "QuestionnaireResponse",
      "id": "d962dadb-07ca-440b-bfec-b941083c0a17",
      "identifier": {
        "value": "8067b9b2-e604-4414-b56f-8e3cc4de4b1b"
      },
      "questionnaire": {
        "reference": "urn:uuid:ed62d82c-7d3d-43cb-8430-f4060808639f"
      },
      "status": "completed",
      "subject": {
        "reference": "urn:uuid:9ca8c12f-7445-4098-9289-276b01c855b5"
      },
      "context": {
        "reference": "urn:uuid:c8e606eb-d49e-4d86-9ba9-280c918cb8b0"
      },
      "authored": "2011-02-17T17:31:14+00:00",
      "item": [ {
        "linkId": "Tx140118",
        "text": "Has the baby just been born?",
        "answer": [ {
          "valueString": "no"
        } ]
      } ]
    }
  }, {
    "fullUrl": "urn:uuid:ed62d82c-7d3d-43cb-8430-f4060808639f",
    "resource": {
      "resourceType": "Questionnaire",
      "id": "ed62d82c-7d3d-43cb-8430-f4060808639f",
      "identifier": [ {
        "value": "8067b9b2-e604-4414-b56f-8e3cc4de4b1b"
      } ],
      "version": "2011-02-17T17:31:14.313Z",
      "status": "active",
      "experimental": false,
      "date": "2011-02-17T17:31:14+00:00",
      "publisher": "User ID: '3137' User name: 'redacted' User skill set: 'T1'",
      "lastReviewDate": "2011-02-17",
      "jurisdiction": [ {
        "text": "England"
      } ],
      "contact": [ {
        "telecom": [ {
          "system": "phone",
          "value": "redacted"
        } ]
      } ],
      "subjectType": [ "Patient" ],
      "item": [ {
        "linkId": "8067b9b2-e604-4414-b56f-8e3cc4de4b1b",
        "prefix": "35",
        "text": "Has the baby just been born?",
        "type": "choice",
        "required": true,
        "repeats": false,
        "option": [ {
          "valueString": "yes, Selected: false"
        }, {
          "valueString": "not sure, Selected: false"
        }, {
          "valueString": "no, Selected: true"
        } ]
      } ]
    }
  }, {
    "fullUrl": "urn:uuid:2696cf44-c411-4393-8037-2d39a160b7fe",
    "resource": {
      "resourceType": "QuestionnaireResponse",
      "id": "2696cf44-c411-4393-8037-2d39a160b7fe",
      "identifier": {
        "value": "8067b9b2-e604-4414-b56f-8e3cc4de4b1b"
      },
      "questionnaire": {
        "reference": "urn:uuid:b3960c06-ba8d-4530-a68c-6bd02d05e136"
      },
      "status": "completed",
      "subject": {
        "reference": "urn:uuid:9ca8c12f-7445-4098-9289-276b01c855b5"
      },
      "context": {
        "reference": "urn:uuid:c8e606eb-d49e-4d86-9ba9-280c918cb8b0"
      },
      "authored": "2011-02-17T17:31:14+00:00",
      "item": [ {
        "linkId": "Tx220110",
        "text": "Is he breathing and conscious?",
        "answer": [ {
          "valueString": "breathing AND conscious"
        } ]
      } ]
    }
  }, {
    "fullUrl": "urn:uuid:b3960c06-ba8d-4530-a68c-6bd02d05e136",
    "resource": {
      "resourceType": "Questionnaire",
      "id": "b3960c06-ba8d-4530-a68c-6bd02d05e136",
      "identifier": [ {
        "value": "8067b9b2-e604-4414-b56f-8e3cc4de4b1b"
      } ],
      "version": "2011-02-17T17:31:14.313Z",
      "status": "active",
      "experimental": false,
      "date": "2011-02-17T17:31:14+00:00",
      "publisher": "User ID: '3137' User name: 'redacted' User skill set: 'T1'",
      "lastReviewDate": "2011-02-17",
      "jurisdiction": [ {
        "text": "England"
      } ],
      "contact": [ {
        "telecom": [ {
          "system": "phone",
          "value": "redacted"
        } ]
      } ],
      "subjectType": [ "Patient" ],
      "item": [ {
        "linkId": "8067b9b2-e604-4414-b56f-8e3cc4de4b1b",
        "prefix": "40",
        "text": "Is he breathing and conscious?",
        "type": "choice",
        "required": true,
        "repeats": false,
        "option": [ {
          "valueString": "breathing AND conscious, Selected: true"
        }, {
          "valueString": "breathing but NOT conscious (includes current fitting), Selected: false"
        }, {
          "valueString": "NOT breathing, Selected: false"
        }, {
          "valueString": "choking now, Selected: false"
        } ]
      } ]
    }
  }, {
    "fullUrl": "urn:uuid:b2b1ace2-7ae2-40db-81dc-53731e2d607e",
    "resource": {
      "resourceType": "QuestionnaireResponse",
      "id": "b2b1ace2-7ae2-40db-81dc-53731e2d607e",
      "identifier": {
        "value": "8067b9b2-e604-4414-b56f-8e3cc4de4b1b"
      },
      "questionnaire": {
        "reference": "urn:uuid:bfa32da0-760e-4445-8494-116bd3f85c37"
      },
      "status": "completed",
      "subject": {
        "reference": "urn:uuid:9ca8c12f-7445-4098-9289-276b01c855b5"
      },
      "context": {
        "reference": "urn:uuid:c8e606eb-d49e-4d86-9ba9-280c918cb8b0"
      },
      "authored": "2011-02-17T17:31:14+00:00",
      "item": [ {
        "linkId": "Tx220285",
        "text": "Has he been bleeding very heavily IN THE LAST HOUR?",
        "answer": [ {
          "valueString": "no"
        } ]
      } ]
    }
  }, {
    "fullUrl": "urn:uuid:bfa32da0-760e-4445-8494-116bd3f85c37",
    "resource": {
      "resourceType": "Questionnaire",
      "id": "bfa32da0-760e-4445-8494-116bd3f85c37",
      "identifier": [ {
        "value": "8067b9b2-e604-4414-b56f-8e3cc4de4b1b"
      } ],
      "version": "2011-02-17T17:31:14.313Z",
      "status": "active",
      "experimental": false,
      "date": "2011-02-17T17:31:14+00:00",
      "publisher": "User ID: '3137' User name: 'redacted' User skill set: 'T1'",
      "lastReviewDate": "2011-02-17",
      "jurisdiction": [ {
        "text": "England"
      } ],
      "contact": [ {
        "telecom": [ {
          "system": "phone",
          "value": "redacted"
        } ]
      } ],
      "subjectType": [ "Patient" ],
      "item": [ {
        "linkId": "8067b9b2-e604-4414-b56f-8e3cc4de4b1b",
        "prefix": "60",
        "text": "Has he been bleeding very heavily IN THE LAST HOUR?",
        "type": "choice",
        "required": true,
        "repeats": false,
        "option": [ {
          "valueString": "blood spurting from a wound, Selected: false"
        }, {
          "valueString": "an egg cupful or more of red blood from a body opening, Selected: false"
        }, {
          "valueString": "an egg cupful or more from a wound, Selected: false"
        }, {
          "valueString": "not sure, Selected: false"
        }, {
          "valueString": "no, Selected: true"
        } ]
      } ]
    }
  }, {
    "fullUrl": "urn:uuid:448a2ba1-2d88-469c-82c1-05f672aadddc",
    "resource": {
      "resourceType": "QuestionnaireResponse",
      "id": "448a2ba1-2d88-469c-82c1-05f672aadddc",
      "identifier": {
        "value": "8067b9b2-e604-4414-b56f-8e3cc4de4b1b"
      },
      "questionnaire": {
        "reference": "urn:uuid:eac102fb-b6bf-44cf-9c4a-92db31a23170"
      },
      "status": "completed",
      "subject": {
        "reference": "urn:uuid:9ca8c12f-7445-4098-9289-276b01c855b5"
      },
      "context": {
        "reference": "urn:uuid:c8e606eb-d49e-4d86-9ba9-280c918cb8b0"
      },
      "authored": "2011-02-17T17:31:14+00:00",
      "item": [ {
        "linkId": "N/A",
        "text": "SocialConcernsExcluded",
        "answer": [ {
          "valueString": "*"
        } ]
      } ]
    }
  }, {
    "fullUrl": "urn:uuid:eac102fb-b6bf-44cf-9c4a-92db31a23170",
    "resource": {
      "resourceType": "Questionnaire",
      "id": "eac102fb-b6bf-44cf-9c4a-92db31a23170",
      "identifier": [ {
        "value": "8067b9b2-e604-4414-b56f-8e3cc4de4b1b"
      } ],
      "version": "2011-02-17T17:31:14.313Z",
      "status": "active",
      "experimental": false,
      "date": "2011-02-17T17:31:14+00:00",
      "publisher": "User ID: '3137' User name: 'redacted' User skill set: 'T1'",
      "lastReviewDate": "2011-02-17",
      "jurisdiction": [ {
        "text": "England"
      } ],
      "contact": [ {
        "telecom": [ {
          "system": "phone",
          "value": "redacted"
        } ]
      } ],
      "subjectType": [ "Patient" ],
      "item": [ {
        "linkId": "8067b9b2-e604-4414-b56f-8e3cc4de4b1b",
        "prefix": "2050",
        "text": "SocialConcernsExcluded",
        "type": "choice",
        "required": true,
        "repeats": false,
        "option": [ {
          "valueString": "==\"present\", Selected: false"
        }, {
          "valueString": "*, Selected: true"
        } ]
      } ]
    }
  }, {
    "fullUrl": "urn:uuid:7f61ce6d-0f8e-4c87-b035-4d6af9263677",
    "resource": {
      "resourceType": "QuestionnaireResponse",
      "id": "7f61ce6d-0f8e-4c87-b035-4d6af9263677",
      "identifier": {
        "value": "8067b9b2-e604-4414-b56f-8e3cc4de4b1b"
      },
      "questionnaire": {
        "reference": "urn:uuid:6b5a8160-9788-4585-b775-2740f45f1ae4"
      },
      "status": "completed",
      "subject": {
        "reference": "urn:uuid:9ca8c12f-7445-4098-9289-276b01c855b5"
      },
      "context": {
        "reference": "urn:uuid:c8e606eb-d49e-4d86-9ba9-280c918cb8b0"
      },
      "authored": "2011-02-17T17:31:14+00:00",
      "item": [ {
        "linkId": "Tx140159",
        "text": "What is the reason for ending the assessment?",
        "answer": [ {
          "valueString": "transfer to a clinician"
        } ]
      } ]
    }
  }, {
    "fullUrl": "urn:uuid:6b5a8160-9788-4585-b775-2740f45f1ae4",
    "resource": {
      "resourceType": "Questionnaire",
      "id": "6b5a8160-9788-4585-b775-2740f45f1ae4",
      "identifier": [ {
        "value": "8067b9b2-e604-4414-b56f-8e3cc4de4b1b"
      } ],
      "version": "2011-02-17T17:31:14.313Z",
      "status": "active",
      "experimental": false,
      "date": "2011-02-17T17:31:14+00:00",
      "publisher": "User ID: '3137' User name: 'redacted' User skill set: 'T1'",
      "lastReviewDate": "2011-02-17",
      "jurisdiction": [ {
        "text": "England"
      } ],
      "contact": [ {
        "telecom": [ {
          "system": "phone",
          "value": "redacted"
        } ]
      } ],
      "subjectType": [ "Patient" ],
      "item": [ {
        "linkId": "8067b9b2-e604-4414-b56f-8e3cc4de4b1b",
        "prefix": "0",
        "text": "What is the reason for ending the assessment?",
        "type": "choice",
        "required": true,
        "repeats": false,
        "option": [ {
          "valueString": "the phone line went dead, Selected: false"
        }, {
          "valueString": "the caller terminated the call (specify), Selected: false"
        }, {
          "valueString": "I terminated the call (specify), Selected: false"
        }, {
          "valueString": "triage not possible, Selected: false"
        }, {
          "valueString": "transfer to a clinician, Selected: true"
        } ]
      } ]
    }
  }, {
    "fullUrl": "urn:uuid:5f8e385f-7eed-4ad4-8c8a-4eeb7e0fdb75",
    "resource": {
      "resourceType": "QuestionnaireResponse",
      "id": "5f8e385f-7eed-4ad4-8c8a-4eeb7e0fdb75",
      "identifier": {
        "value": "8067b9b2-e604-4414-b56f-8e3cc4de4b1b"
      },
      "questionnaire": {
        "reference": "urn:uuid:72b0d558-2b6f-40ce-9977-eabb327c5829"
      },
      "status": "completed",
      "subject": {
        "reference": "urn:uuid:9ca8c12f-7445-4098-9289-276b01c855b5"
      },
      "context": {
        "reference": "urn:uuid:c8e606eb-d49e-4d86-9ba9-280c918cb8b0"
      },
      "authored": "2011-02-17T17:31:14+00:00",
      "item": [ {
        "linkId": "Tx220408",
        "text": "WHAT IS THE REASON FOR TRANSFER TO A CLINICIAN?",
        "answer": [ {
          "valueString": "other complex call (specify)"
        } ]
      } ]
    }
  }, {
    "fullUrl": "urn:uuid:72b0d558-2b6f-40ce-9977-eabb327c5829",
    "resource": {
      "resourceType": "Questionnaire",
      "id": "72b0d558-2b6f-40ce-9977-eabb327c5829",
      "identifier": [ {
        "value": "8067b9b2-e604-4414-b56f-8e3cc4de4b1b"
      } ],
      "version": "2011-02-17T17:31:14.313Z",
      "status": "active",
      "experimental": false,
      "date": "2011-02-17T17:31:14+00:00",
      "publisher": "User ID: '3137' User name: 'redacted' User skill set: 'T1'",
      "lastReviewDate": "2011-02-17",
      "jurisdiction": [ {
        "text": "England"
      } ],
      "contact": [ {
        "telecom": [ {
          "system": "phone",
          "value": "redacted"
        } ]
      } ],
      "subjectType": [ "Patient" ],
      "item": [ {
        "linkId": "8067b9b2-e604-4414-b56f-8e3cc4de4b1b",
        "prefix": "50",
        "text": "WHAT IS THE REASON FOR TRANSFER TO A CLINICIAN?",
        "type": "choice",
        "required": true,
        "repeats": false,
        "option": [ {
          "valueString": "caller refuses disposition, Selected: false"
        }, {
          "valueString": "multiple unrelated symptoms, Selected: false"
        }, {
          "valueString": "difficulty obtaining adequate information, Selected: false"
        }, {
          "valueString": "medication or medical procedure enquiry, Selected: false"
        }, {
          "valueString": "declared medical history (details not required), Selected: false"
        }, {
          "valueString": "other complex call (specify), Selected: true"
        } ]
      } ]
    }
  }, {
    "fullUrl": "urn:uuid:7ce5b778-fe02-4c25-86d0-f0e0644d3b13",
    "resource": {
      "resourceType": "QuestionnaireResponse",
      "id": "7ce5b778-fe02-4c25-86d0-f0e0644d3b13",
      "identifier": {
        "value": "8067b9b2-e604-4414-b56f-8e3cc4de4b1b"
      },
      "questionnaire": {
        "reference": "urn:uuid:c5315393-2c46-4b0e-b004-21ac94b36b93"
      },
      "status": "completed",
      "subject": {
        "reference": "urn:uuid:9ca8c12f-7445-4098-9289-276b01c855b5"
      },
      "context": {
        "reference": "urn:uuid:c8e606eb-d49e-4d86-9ba9-280c918cb8b0"
      },
      "authored": "2011-02-17T17:31:14+00:00",
      "item": [ {
        "linkId": "N/A",
        "text": "Speak to Clinician from our Service immediately"
      } ]
    }
  }, {
    "fullUrl": "urn:uuid:c5315393-2c46-4b0e-b004-21ac94b36b93",
    "resource": {
      "resourceType": "Questionnaire",
      "id": "c5315393-2c46-4b0e-b004-21ac94b36b93",
      "identifier": [ {
        "value": "8067b9b2-e604-4414-b56f-8e3cc4de4b1b"
      } ],
      "version": "2011-02-17T17:31:14.313Z",
      "status": "active",
      "experimental": false,
      "date": "2011-02-17T17:31:14+00:00",
      "publisher": "User ID: '3137' User name: 'redacted' User skill set: 'T1'",
      "lastReviewDate": "2011-02-17",
      "jurisdiction": [ {
        "text": "England"
      } ],
      "contact": [ {
        "telecom": [ {
          "system": "phone",
          "value": "redacted"
        } ]
      } ],
      "subjectType": [ "Patient" ],
      "item": [ {
        "linkId": "8067b9b2-e604-4414-b56f-8e3cc4de4b1b",
        "prefix": "0",
        "text": "Speak to Clinician from our Service immediately",
        "type": "choice",
        "required": true,
        "repeats": false,
        "option": [ {
          "valueString": ", Selected: false"
        } ]
      } ]
    }
  }, {
    "fullUrl": "urn:uuid:0e6e2e60-0201-4a73-86d9-82dd09e28ac2",
    "resource": {
      "resourceType": "QuestionnaireResponse",
      "id": "0e6e2e60-0201-4a73-86d9-82dd09e28ac2",
      "identifier": {
        "value": "8067b9b2-e604-4414-b56f-8e3cc4de4b1b"
      },
      "questionnaire": {
        "reference": "urn:uuid:3fc6b07b-0f7c-4434-9666-12a6659b1e34"
      },
      "status": "completed",
      "subject": {
        "reference": "urn:uuid:9ca8c12f-7445-4098-9289-276b01c855b5"
      },
      "context": {
        "reference": "urn:uuid:c8e606eb-d49e-4d86-9ba9-280c918cb8b0"
      },
      "authored": "2011-02-17T17:31:14+00:00",
      "item": [ {
        "linkId": "N/A"
      } ]
    }
  }, {
    "fullUrl": "urn:uuid:3fc6b07b-0f7c-4434-9666-12a6659b1e34",
    "resource": {
      "resourceType": "Questionnaire",
      "id": "3fc6b07b-0f7c-4434-9666-12a6659b1e34",
      "identifier": [ {
        "value": "8067b9b2-e604-4414-b56f-8e3cc4de4b1b"
      } ],
      "version": "2011-02-17T17:31:14.313Z",
      "status": "active",
      "experimental": false,
      "date": "2011-02-17T17:31:14+00:00",
      "publisher": "User ID: '3137' User name: 'redacted' User skill set: 'T1'",
      "lastReviewDate": "2011-02-17",
      "jurisdiction": [ {
        "text": "England"
      } ],
      "contact": [ {
        "telecom": [ {
          "system": "phone",
          "value": "redacted"
        } ]
      } ],
      "subjectType": [ "Patient" ],
      "item": [ {
        "linkId": "8067b9b2-e604-4414-b56f-8e3cc4de4b1b",
        "prefix": "0",
        "type": "choice",
        "required": true,
        "repeats": false,
        "option": [ {
          "valueString": ", Selected: false"
        } ]
      } ]
    }
  }, {
    "fullUrl": "urn:uuid:c9763488-2087-4615-ad00-753224436a58",
    "resource": {
      "resourceType": "QuestionnaireResponse",
      "id": "c9763488-2087-4615-ad00-753224436a58",
      "identifier": {
        "value": "8067b9b2-e604-4414-b56f-8e3cc4de4b1b"
      },
      "questionnaire": {
        "reference": "urn:uuid:0f065006-9f65-4fd2-a826-5e15740b3ab3"
      },
      "status": "completed",
      "subject": {
        "reference": "urn:uuid:9ca8c12f-7445-4098-9289-276b01c855b5"
      },
      "context": {
        "reference": "urn:uuid:c8e606eb-d49e-4d86-9ba9-280c918cb8b0"
      },
      "authored": "2011-02-17T17:31:14+00:00",
      "item": [ {
        "linkId": "N/A"
      } ]
    }
  }, {
    "fullUrl": "urn:uuid:0f065006-9f65-4fd2-a826-5e15740b3ab3",
    "resource": {
      "resourceType": "Questionnaire",
      "id": "0f065006-9f65-4fd2-a826-5e15740b3ab3",
      "identifier": [ {
        "value": "8067b9b2-e604-4414-b56f-8e3cc4de4b1b"
      } ],
      "version": "2011-02-17T17:31:14.313Z",
      "status": "active",
      "experimental": false,
      "date": "2011-02-17T17:31:14+00:00",
      "publisher": "User ID: '3137' User name: 'redacted' User skill set: 'T1'",
      "lastReviewDate": "2011-02-17",
      "jurisdiction": [ {
        "text": "England"
      } ],
      "contact": [ {
        "telecom": [ {
          "system": "phone",
          "value": "redacted"
        } ]
      } ],
      "subjectType": [ "Patient" ],
      "item": [ {
        "linkId": "8067b9b2-e604-4414-b56f-8e3cc4de4b1b",
        "prefix": "0",
        "type": "choice",
        "required": true,
        "repeats": false,
        "option": [ {
          "valueString": ", Selected: false"
        } ]
      } ]
    }
  }, {
    "fullUrl": "urn:uuid:78a9aeda-86ec-4fd7-b188-07cb17391ec4",
    "resource": {
      "resourceType": "QuestionnaireResponse",
      "id": "78a9aeda-86ec-4fd7-b188-07cb17391ec4",
      "identifier": {
        "value": "8067b9b2-e604-4414-b56f-8e3cc4de4b1b"
      },
      "questionnaire": {
        "reference": "urn:uuid:312c9407-27e7-4eea-8a1a-d59d07f409e8"
      },
      "status": "completed",
      "subject": {
        "reference": "urn:uuid:9ca8c12f-7445-4098-9289-276b01c855b5"
      },
      "context": {
        "reference": "urn:uuid:c8e606eb-d49e-4d86-9ba9-280c918cb8b0"
      },
      "authored": "2011-02-17T17:31:14+00:00",
      "item": [ {
        "linkId": "Tx220109",
        "text": "What is the reason for the call?",
        "answer": [ {
          "valueString": "an injury or other health problem"
        } ]
      } ]
    }
  }, {
    "fullUrl": "urn:uuid:312c9407-27e7-4eea-8a1a-d59d07f409e8",
    "resource": {
      "resourceType": "Questionnaire",
      "id": "312c9407-27e7-4eea-8a1a-d59d07f409e8",
      "identifier": [ {
        "value": "8067b9b2-e604-4414-b56f-8e3cc4de4b1b"
      } ],
      "version": "2011-02-17T17:31:14.313Z",
      "status": "active",
      "experimental": false,
      "date": "2011-02-17T17:31:14+00:00",
      "publisher": "User ID: '3137' User name: 'redacted' User skill set: 'T1'",
      "lastReviewDate": "2011-02-17",
      "jurisdiction": [ {
        "text": "England"
      } ],
      "contact": [ {
        "telecom": [ {
          "system": "phone",
          "value": "redacted"
        } ]
      } ],
      "subjectType": [ "Patient" ],
      "item": [ {
        "linkId": "8067b9b2-e604-4414-b56f-8e3cc4de4b1b",
        "prefix": "5",
        "text": "What is the reason for the call?",
        "type": "choice",
        "required": true,
        "repeats": false,
        "option": [ {
          "valueString": "an injury or other health problem, Selected: true"
        }, {
          "valueString": "a need to access another healthcare provider, Selected: false"
        }, {
          "valueString": "a healthcare professional requesting contact with another clinician, Selected: false"
        }, {
          "valueString": "a report of results or tests, Selected: false"
        }, {
          "valueString": "more, Selected: false"
        } ]
      } ]
    }
  }, {
    "fullUrl": "urn:uuid:af620249-aa22-4a3f-9eae-d44b3ab27f61",
    "resource": {
      "resourceType": "QuestionnaireResponse",
      "id": "af620249-aa22-4a3f-9eae-d44b3ab27f61",
      "identifier": {
        "value": "8067b9b2-e604-4414-b56f-8e3cc4de4b1b"
      },
      "questionnaire": {
        "reference": "urn:uuid:4af16647-fac0-4243-ab68-2cf0753344ac"
      },
      "status": "completed",
      "subject": {
        "reference": "urn:uuid:9ca8c12f-7445-4098-9289-276b01c855b5"
      },
      "context": {
        "reference": "urn:uuid:c8e606eb-d49e-4d86-9ba9-280c918cb8b0"
      },
      "authored": "2011-02-17T17:31:14+00:00",
      "item": [ {
        "linkId": "Tx140118",
        "text": "Has the baby just been born?",
        "answer": [ {
          "valueString": "no"
        } ]
      } ]
    }
  }, {
    "fullUrl": "urn:uuid:4af16647-fac0-4243-ab68-2cf0753344ac",
    "resource": {
      "resourceType": "Questionnaire",
      "id": "4af16647-fac0-4243-ab68-2cf0753344ac",
      "identifier": [ {
        "value": "8067b9b2-e604-4414-b56f-8e3cc4de4b1b"
      } ],
      "version": "2011-02-17T17:31:14.313Z",
      "status": "active",
      "experimental": false,
      "date": "2011-02-17T17:31:14+00:00",
      "publisher": "User ID: '3137' User name: 'redacted' User skill set: 'T1'",
      "lastReviewDate": "2011-02-17",
      "jurisdiction": [ {
        "text": "England"
      } ],
      "contact": [ {
        "telecom": [ {
          "system": "phone",
          "value": "redacted"
        } ]
      } ],
      "subjectType": [ "Patient" ],
      "item": [ {
        "linkId": "8067b9b2-e604-4414-b56f-8e3cc4de4b1b",
        "prefix": "35",
        "text": "Has the baby just been born?",
        "type": "choice",
        "required": true,
        "repeats": false,
        "option": [ {
          "valueString": "yes, Selected: false"
        }, {
          "valueString": "not sure, Selected: false"
        }, {
          "valueString": "no, Selected: true"
        } ]
      } ]
    }
  }, {
    "fullUrl": "urn:uuid:0a178ec7-08ed-49aa-8b04-7f70c1e4b933",
    "resource": {
      "resourceType": "QuestionnaireResponse",
      "id": "0a178ec7-08ed-49aa-8b04-7f70c1e4b933",
      "identifier": {
        "value": "8067b9b2-e604-4414-b56f-8e3cc4de4b1b"
      },
      "questionnaire": {
        "reference": "urn:uuid:a82514e5-a67c-4915-97fc-787cad461d34"
      },
      "status": "completed",
      "subject": {
        "reference": "urn:uuid:9ca8c12f-7445-4098-9289-276b01c855b5"
      },
      "context": {
        "reference": "urn:uuid:c8e606eb-d49e-4d86-9ba9-280c918cb8b0"
      },
      "authored": "2011-02-17T17:31:14+00:00",
      "item": [ {
        "linkId": "Tx220110",
        "text": "Is he breathing and conscious?",
        "answer": [ {
          "valueString": "breathing AND conscious"
        } ]
      } ]
    }
  }, {
    "fullUrl": "urn:uuid:a82514e5-a67c-4915-97fc-787cad461d34",
    "resource": {
      "resourceType": "Questionnaire",
      "id": "a82514e5-a67c-4915-97fc-787cad461d34",
      "identifier": [ {
        "value": "8067b9b2-e604-4414-b56f-8e3cc4de4b1b"
      } ],
      "version": "2011-02-17T17:31:14.313Z",
      "status": "active",
      "experimental": false,
      "date": "2011-02-17T17:31:14+00:00",
      "publisher": "User ID: '3137' User name: 'redacted' User skill set: 'T1'",
      "lastReviewDate": "2011-02-17",
      "jurisdiction": [ {
        "text": "England"
      } ],
      "contact": [ {
        "telecom": [ {
          "system": "phone",
          "value": "redacted"
        } ]
      } ],
      "subjectType": [ "Patient" ],
      "item": [ {
        "linkId": "8067b9b2-e604-4414-b56f-8e3cc4de4b1b",
        "prefix": "40",
        "text": "Is he breathing and conscious?",
        "type": "choice",
        "required": true,
        "repeats": false,
        "option": [ {
          "valueString": "breathing AND conscious, Selected: true"
        }, {
          "valueString": "breathing but NOT conscious (includes current fitting), Selected: false"
        }, {
          "valueString": "NOT breathing, Selected: false"
        }, {
          "valueString": "choking now, Selected: false"
        } ]
      } ]
    }
  }, {
    "fullUrl": "urn:uuid:b3018b5f-4122-4e41-94ad-e3118bf67978",
    "resource": {
      "resourceType": "QuestionnaireResponse",
      "id": "b3018b5f-4122-4e41-94ad-e3118bf67978",
      "identifier": {
        "value": "8067b9b2-e604-4414-b56f-8e3cc4de4b1b"
      },
      "questionnaire": {
        "reference": "urn:uuid:c9c68010-3053-4f01-b120-59c5c08f85e1"
      },
      "status": "completed",
      "subject": {
        "reference": "urn:uuid:9ca8c12f-7445-4098-9289-276b01c855b5"
      },
      "context": {
        "reference": "urn:uuid:c8e606eb-d49e-4d86-9ba9-280c918cb8b0"
      },
      "authored": "2011-02-17T17:31:14+00:00",
      "item": [ {
        "linkId": "Tx220285",
        "text": "Has he been bleeding very heavily IN THE LAST HOUR?",
        "answer": [ {
          "valueString": "an egg cupful or more from a wound"
        } ]
      } ]
    }
  }, {
    "fullUrl": "urn:uuid:c9c68010-3053-4f01-b120-59c5c08f85e1",
    "resource": {
      "resourceType": "Questionnaire",
      "id": "c9c68010-3053-4f01-b120-59c5c08f85e1",
      "identifier": [ {
        "value": "8067b9b2-e604-4414-b56f-8e3cc4de4b1b"
      } ],
      "version": "2011-02-17T17:31:14.313Z",
      "status": "active",
      "experimental": false,
      "date": "2011-02-17T17:31:14+00:00",
      "publisher": "User ID: '3137' User name: 'redacted' User skill set: 'T1'",
      "lastReviewDate": "2011-02-17",
      "jurisdiction": [ {
        "text": "England"
      } ],
      "contact": [ {
        "telecom": [ {
          "system": "phone",
          "value": "redacted"
        } ]
      } ],
      "subjectType": [ "Patient" ],
      "item": [ {
        "linkId": "8067b9b2-e604-4414-b56f-8e3cc4de4b1b",
        "prefix": "60",
        "text": "Has he been bleeding very heavily IN THE LAST HOUR?",
        "type": "choice",
        "required": true,
        "repeats": false,
        "option": [ {
          "valueString": "blood spurting from a wound, Selected: false"
        }, {
          "valueString": "an egg cupful or more of red blood from a body opening, Selected: false"
        }, {
          "valueString": "an egg cupful or more from a wound, Selected: true"
        }, {
          "valueString": "not sure, Selected: false"
        }, {
          "valueString": "no, Selected: false"
        } ]
      } ]
    }
  }, {
    "fullUrl": "urn:uuid:fb6da995-5051-4ea0-b7c2-2799ef7fbbcd",
    "resource": {
      "resourceType": "QuestionnaireResponse",
      "id": "fb6da995-5051-4ea0-b7c2-2799ef7fbbcd",
      "identifier": {
        "value": "8067b9b2-e604-4414-b56f-8e3cc4de4b1b"
      },
      "questionnaire": {
        "reference": "urn:uuid:8ad8eef1-fd10-49b5-bbaf-43b9acb33f93"
      },
      "status": "completed",
      "subject": {
        "reference": "urn:uuid:9ca8c12f-7445-4098-9289-276b01c855b5"
      },
      "context": {
        "reference": "urn:uuid:c8e606eb-d49e-4d86-9ba9-280c918cb8b0"
      },
      "authored": "2011-02-17T17:31:14+00:00",
      "item": [ {
        "linkId": "Tx140109",
        "text": "Is he fighting desperately for every breath?",
        "answer": [ {
          "valueString": "no"
        } ]
      } ]
    }
  }, {
    "fullUrl": "urn:uuid:8ad8eef1-fd10-49b5-bbaf-43b9acb33f93",
    "resource": {
      "resourceType": "Questionnaire",
      "id": "8ad8eef1-fd10-49b5-bbaf-43b9acb33f93",
      "identifier": [ {
        "value": "8067b9b2-e604-4414-b56f-8e3cc4de4b1b"
      } ],
      "version": "2011-02-17T17:31:14.313Z",
      "status": "active",
      "experimental": false,
      "date": "2011-02-17T17:31:14+00:00",
      "publisher": "User ID: '3137' User name: 'redacted' User skill set: 'T1'",
      "lastReviewDate": "2011-02-17",
      "jurisdiction": [ {
        "text": "England"
      } ],
      "contact": [ {
        "telecom": [ {
          "system": "phone",
          "value": "redacted"
        } ]
      } ],
      "subjectType": [ "Patient" ],
      "item": [ {
        "linkId": "8067b9b2-e604-4414-b56f-8e3cc4de4b1b",
        "prefix": "20000",
        "text": "Is he fighting desperately for every breath?",
        "type": "choice",
        "required": true,
        "repeats": false,
        "option": [ {
          "valueString": "yes, Selected: false"
        }, {
          "valueString": "not sure, Selected: false"
        }, {
          "valueString": "no, Selected: true"
        } ]
      } ]
    }
  }, {
    "fullUrl": "urn:uuid:31c47155-2046-47d6-af11-a0689c2aaf0a",
    "resource": {
      "resourceType": "QuestionnaireResponse",
      "id": "31c47155-2046-47d6-af11-a0689c2aaf0a",
      "identifier": {
        "value": "8067b9b2-e604-4414-b56f-8e3cc4de4b1b"
      },
      "questionnaire": {
        "reference": "urn:uuid:b4870cf3-7c95-4dd7-828e-5e0f31c17d2e"
      },
      "status": "completed",
      "subject": {
        "reference": "urn:uuid:9ca8c12f-7445-4098-9289-276b01c855b5"
      },
      "context": {
        "reference": "urn:uuid:c8e606eb-d49e-4d86-9ba9-280c918cb8b0"
      },
      "authored": "2011-02-17T17:31:14+00:00",
      "item": [ {
        "linkId": "Tx220563",
        "text": "Is he limp, floppy and/or unresponsive?",
        "answer": [ {
          "valueString": "no"
        } ]
      } ]
    }
  }, {
    "fullUrl": "urn:uuid:b4870cf3-7c95-4dd7-828e-5e0f31c17d2e",
    "resource": {
      "resourceType": "Questionnaire",
      "id": "b4870cf3-7c95-4dd7-828e-5e0f31c17d2e",
      "identifier": [ {
        "value": "8067b9b2-e604-4414-b56f-8e3cc4de4b1b"
      } ],
      "version": "2011-02-17T17:31:14.313Z",
      "status": "active",
      "experimental": false,
      "date": "2011-02-17T17:31:14+00:00",
      "publisher": "User ID: '3137' User name: 'redacted' User skill set: 'T1'",
      "lastReviewDate": "2011-02-17",
      "jurisdiction": [ {
        "text": "England"
      } ],
      "contact": [ {
        "telecom": [ {
          "system": "phone",
          "value": "redacted"
        } ]
      } ],
      "subjectType": [ "Patient" ],
      "item": [ {
        "linkId": "8067b9b2-e604-4414-b56f-8e3cc4de4b1b",
        "prefix": "20400",
        "text": "Is he limp, floppy and/or unresponsive?",
        "type": "choice",
        "required": true,
        "repeats": false,
        "option": [ {
          "valueString": "yes, Selected: false"
        }, {
          "valueString": "not sure, Selected: false"
        }, {
          "valueString": "no, Selected: true"
        } ]
      } ]
    }
  }, {
    "fullUrl": "urn:uuid:488e43ba-10d9-45a0-bf83-82202268b83e",
    "resource": {
      "resourceType": "QuestionnaireResponse",
      "id": "488e43ba-10d9-45a0-bf83-82202268b83e",
      "identifier": {
        "value": "8067b9b2-e604-4414-b56f-8e3cc4de4b1b"
      },
      "questionnaire": {
        "reference": "urn:uuid:805cf301-752a-4db9-a57d-aa23ed0bf23c"
      },
      "status": "completed",
      "subject": {
        "reference": "urn:uuid:9ca8c12f-7445-4098-9289-276b01c855b5"
      },
      "context": {
        "reference": "urn:uuid:c8e606eb-d49e-4d86-9ba9-280c918cb8b0"
      },
      "authored": "2011-02-17T17:31:14+00:00",
      "item": [ {
        "linkId": "Tx220561",
        "text": "Is he warm to touch?",
        "answer": [ {
          "valueString": "yes"
        } ]
      } ]
    }
  }, {
    "fullUrl": "urn:uuid:805cf301-752a-4db9-a57d-aa23ed0bf23c",
    "resource": {
      "resourceType": "Questionnaire",
      "id": "805cf301-752a-4db9-a57d-aa23ed0bf23c",
      "identifier": [ {
        "value": "8067b9b2-e604-4414-b56f-8e3cc4de4b1b"
      } ],
      "version": "2011-02-17T17:31:14.313Z",
      "status": "active",
      "experimental": false,
      "date": "2011-02-17T17:31:14+00:00",
      "publisher": "User ID: '3137' User name: 'redacted' User skill set: 'T1'",
      "lastReviewDate": "2011-02-17",
      "jurisdiction": [ {
        "text": "England"
      } ],
      "contact": [ {
        "telecom": [ {
          "system": "phone",
          "value": "redacted"
        } ]
      } ],
      "subjectType": [ "Patient" ],
      "item": [ {
        "linkId": "8067b9b2-e604-4414-b56f-8e3cc4de4b1b",
        "prefix": "20450",
        "text": "Is he warm to touch?",
        "type": "choice",
        "required": true,
        "repeats": false,
        "option": [ {
          "valueString": "yes, Selected: true"
        }, {
          "valueString": "not sure, Selected: false"
        }, {
          "valueString": "no, Selected: false"
        }, {
          "valueString": "not safe to touch, Selected: false"
        } ]
      } ]
    }
  }, {
    "fullUrl": "urn:uuid:bce3a09b-e249-4b55-a72a-3b8348643115",
    "resource": {
      "resourceType": "QuestionnaireResponse",
      "id": "bce3a09b-e249-4b55-a72a-3b8348643115",
      "identifier": {
        "value": "8067b9b2-e604-4414-b56f-8e3cc4de4b1b"
      },
      "questionnaire": {
        "reference": "urn:uuid:b9ba5329-0314-4a90-9219-28c321f1f385"
      },
      "status": "completed",
      "subject": {
        "reference": "urn:uuid:9ca8c12f-7445-4098-9289-276b01c855b5"
      },
      "context": {
        "reference": "urn:uuid:c8e606eb-d49e-4d86-9ba9-280c918cb8b0"
      },
      "authored": "2011-02-17T17:31:14+00:00",
      "item": [ {
        "linkId": "Tx120019",
        "text": "Was the injury caused by any of the following?",
        "answer": [ {
          "valueString": "no"
        } ]
      } ]
    }
  }, {
    "fullUrl": "urn:uuid:b9ba5329-0314-4a90-9219-28c321f1f385",
    "resource": {
      "resourceType": "Questionnaire",
      "id": "b9ba5329-0314-4a90-9219-28c321f1f385",
      "identifier": [ {
        "value": "8067b9b2-e604-4414-b56f-8e3cc4de4b1b"
      } ],
      "version": "2011-02-17T17:31:14.313Z",
      "status": "active",
      "experimental": false,
      "date": "2011-02-17T17:31:14+00:00",
      "publisher": "User ID: '3137' User name: 'redacted' User skill set: 'T1'",
      "lastReviewDate": "2011-02-17",
      "jurisdiction": [ {
        "text": "England"
      } ],
      "contact": [ {
        "telecom": [ {
          "system": "phone",
          "value": "redacted"
        } ]
      } ],
      "subjectType": [ "Patient" ],
      "item": [ {
        "linkId": "8067b9b2-e604-4414-b56f-8e3cc4de4b1b",
        "prefix": "20800",
        "text": "Was the injury caused by any of the following?",
        "type": "choice",
        "required": true,
        "repeats": false,
        "option": [ {
          "valueString": "a gunshot, Selected: false"
        }, {
          "valueString": "a stabbing, Selected: false"
        }, {
          "valueString": "being ejected from a vehicle, Selected: false"
        }, {
          "valueString": "not sure, Selected: false"
        }, {
          "valueString": "no, Selected: true"
        } ]
      } ]
    }
  }, {
    "fullUrl": "urn:uuid:57a17628-844d-43b8-a7eb-1e1bbb091a4e",
    "resource": {
      "resourceType": "QuestionnaireResponse",
      "id": "57a17628-844d-43b8-a7eb-1e1bbb091a4e",
      "identifier": {
        "value": "8067b9b2-e604-4414-b56f-8e3cc4de4b1b"
      },
      "questionnaire": {
        "reference": "urn:uuid:451a9d5f-221d-45fb-a16c-8545e089f30f"
      },
      "status": "completed",
      "subject": {
        "reference": "urn:uuid:9ca8c12f-7445-4098-9289-276b01c855b5"
      },
      "context": {
        "reference": "urn:uuid:c8e606eb-d49e-4d86-9ba9-280c918cb8b0"
      },
      "authored": "2011-02-17T17:31:14+00:00",
      "item": [ {
        "linkId": "Tx220286",
        "text": "DID THE INJURY INVOLVE ANY OF THE FOLLOWING?",
        "answer": [ {
          "valueString": "no"
        } ]
      } ]
    }
  }, {
    "fullUrl": "urn:uuid:451a9d5f-221d-45fb-a16c-8545e089f30f",
    "resource": {
      "resourceType": "Questionnaire",
      "id": "451a9d5f-221d-45fb-a16c-8545e089f30f",
      "identifier": [ {
        "value": "8067b9b2-e604-4414-b56f-8e3cc4de4b1b"
      } ],
      "version": "2011-02-17T17:31:14.313Z",
      "status": "active",
      "experimental": false,
      "date": "2011-02-17T17:31:14+00:00",
      "publisher": "User ID: '3137' User name: 'redacted' User skill set: 'T1'",
      "lastReviewDate": "2011-02-17",
      "jurisdiction": [ {
        "text": "England"
      } ],
      "contact": [ {
        "telecom": [ {
          "system": "phone",
          "value": "redacted"
        } ]
      } ],
      "subjectType": [ "Patient" ],
      "item": [ {
        "linkId": "8067b9b2-e604-4414-b56f-8e3cc4de4b1b",
        "prefix": "23100",
        "text": "DID THE INJURY INVOLVE ANY OF THE FOLLOWING?",
        "type": "choice",
        "required": true,
        "repeats": false,
        "option": [ {
          "valueString": "a fall of 5 metres or more (specify), Selected: false"
        }, {
          "valueString": "multiple major injuries (specify), Selected: false"
        }, {
          "valueString": "major wound or amputation - not just involving a single finger or toe (specify), Selected: false"
        }, {
          "valueString": "being knocked over by a blast (specify), Selected: false"
        }, {
          "valueString": "not sure, Selected: false"
        }, {
          "valueString": "no, Selected: true"
        } ]
      } ]
    }
  }, {
    "fullUrl": "urn:uuid:3f078556-6799-4351-9fb0-870b8ab65549",
    "resource": {
      "resourceType": "QuestionnaireResponse",
      "id": "3f078556-6799-4351-9fb0-870b8ab65549",
      "identifier": {
        "value": "8067b9b2-e604-4414-b56f-8e3cc4de4b1b"
      },
      "questionnaire": {
        "reference": "urn:uuid:91e7b1b2-71e1-4cd3-ac78-bbda37fff9f8"
      },
      "status": "completed",
      "subject": {
        "reference": "urn:uuid:9ca8c12f-7445-4098-9289-276b01c855b5"
      },
      "context": {
        "reference": "urn:uuid:c8e606eb-d49e-4d86-9ba9-280c918cb8b0"
      },
      "authored": "2011-02-17T17:31:14+00:00",
      "item": [ {
        "linkId": "Tx140159",
        "text": "What is the reason for ending the assessment?",
        "answer": [ {
          "valueString": "transfer to a clinician"
        } ]
      } ]
    }
  }, {
    "fullUrl": "urn:uuid:91e7b1b2-71e1-4cd3-ac78-bbda37fff9f8",
    "resource": {
      "resourceType": "Questionnaire",
      "id": "91e7b1b2-71e1-4cd3-ac78-bbda37fff9f8",
      "identifier": [ {
        "value": "8067b9b2-e604-4414-b56f-8e3cc4de4b1b"
      } ],
      "version": "2011-02-17T17:31:14.313Z",
      "status": "active",
      "experimental": false,
      "date": "2011-02-17T17:31:14+00:00",
      "publisher": "User ID: '3137' User name: 'redacted' User skill set: 'T1'",
      "lastReviewDate": "2011-02-17",
      "jurisdiction": [ {
        "text": "England"
      } ],
      "contact": [ {
        "telecom": [ {
          "system": "phone",
          "value": "redacted"
        } ]
      } ],
      "subjectType": [ "Patient" ],
      "item": [ {
        "linkId": "8067b9b2-e604-4414-b56f-8e3cc4de4b1b",
        "prefix": "0",
        "text": "What is the reason for ending the assessment?",
        "type": "choice",
        "required": true,
        "repeats": false,
        "option": [ {
          "valueString": "the phone line went dead, Selected: false"
        }, {
          "valueString": "the caller terminated the call (specify), Selected: false"
        }, {
          "valueString": "I terminated the call (specify), Selected: false"
        }, {
          "valueString": "triage not possible, Selected: false"
        }, {
          "valueString": "transfer to a clinician, Selected: true"
        } ]
      } ]
    }
  }, {
    "fullUrl": "urn:uuid:f8af0901-4c19-4256-b62e-594e8515f839",
    "resource": {
      "resourceType": "QuestionnaireResponse",
      "id": "f8af0901-4c19-4256-b62e-594e8515f839",
      "identifier": {
        "value": "8067b9b2-e604-4414-b56f-8e3cc4de4b1b"
      },
      "questionnaire": {
        "reference": "urn:uuid:1f95b7e5-d775-405a-9aee-4f20c5e32fd2"
      },
      "status": "completed",
      "subject": {
        "reference": "urn:uuid:9ca8c12f-7445-4098-9289-276b01c855b5"
      },
      "context": {
        "reference": "urn:uuid:c8e606eb-d49e-4d86-9ba9-280c918cb8b0"
      },
      "authored": "2011-02-17T17:31:14+00:00",
      "item": [ {
        "linkId": "Tx220286",
        "text": "DID THE INJURY INVOLVE ANY OF THE FOLLOWING?",
        "answer": [ {
          "valueString": "no"
        } ]
      } ]
    }
  }, {
    "fullUrl": "urn:uuid:1f95b7e5-d775-405a-9aee-4f20c5e32fd2",
    "resource": {
      "resourceType": "Questionnaire",
      "id": "1f95b7e5-d775-405a-9aee-4f20c5e32fd2",
      "identifier": [ {
        "value": "8067b9b2-e604-4414-b56f-8e3cc4de4b1b"
      } ],
      "version": "2011-02-17T17:31:14.313Z",
      "status": "active",
      "experimental": false,
      "date": "2011-02-17T17:31:14+00:00",
      "publisher": "User ID: '3137' User name: 'redacted' User skill set: 'T1'",
      "lastReviewDate": "2011-02-17",
      "jurisdiction": [ {
        "text": "England"
      } ],
      "contact": [ {
        "telecom": [ {
          "system": "phone",
          "value": "redacted"
        } ]
      } ],
      "subjectType": [ "Patient" ],
      "item": [ {
        "linkId": "8067b9b2-e604-4414-b56f-8e3cc4de4b1b",
        "prefix": "23100",
        "text": "DID THE INJURY INVOLVE ANY OF THE FOLLOWING?",
        "type": "choice",
        "required": true,
        "repeats": false,
        "option": [ {
          "valueString": "a fall of 5 metres or more (specify), Selected: false"
        }, {
          "valueString": "multiple major injuries (specify), Selected: false"
        }, {
          "valueString": "major wound or amputation - not just involving a single finger or toe (specify), Selected: false"
        }, {
          "valueString": "being knocked over by a blast (specify), Selected: false"
        }, {
          "valueString": "not sure, Selected: false"
        }, {
          "valueString": "no, Selected: true"
        } ]
      } ]
    }
  }, {
    "fullUrl": "urn:uuid:eb308eec-5fb0-438b-bfe3-f4ab0f5c1297",
    "resource": {
      "resourceType": "QuestionnaireResponse",
      "id": "eb308eec-5fb0-438b-bfe3-f4ab0f5c1297",
      "identifier": {
        "value": "8067b9b2-e604-4414-b56f-8e3cc4de4b1b"
      },
      "questionnaire": {
        "reference": "urn:uuid:96f06a38-94c8-4c36-a819-a8fa3d2f87be"
      },
      "status": "completed",
      "subject": {
        "reference": "urn:uuid:9ca8c12f-7445-4098-9289-276b01c855b5"
      },
      "context": {
        "reference": "urn:uuid:c8e606eb-d49e-4d86-9ba9-280c918cb8b0"
      },
      "authored": "2011-02-17T17:31:14+00:00",
      "item": [ {
        "linkId": "N/A",
        "text": "Dispatch 19 minute ambulance"
      } ]
    }
  }, {
    "fullUrl": "urn:uuid:96f06a38-94c8-4c36-a819-a8fa3d2f87be",
    "resource": {
      "resourceType": "Questionnaire",
      "id": "96f06a38-94c8-4c36-a819-a8fa3d2f87be",
      "identifier": [ {
        "value": "8067b9b2-e604-4414-b56f-8e3cc4de4b1b"
      } ],
      "version": "2011-02-17T17:31:14.313Z",
      "status": "active",
      "experimental": false,
      "date": "2011-02-17T17:31:14+00:00",
      "publisher": "User ID: '3137' User name: 'redacted' User skill set: 'T1'",
      "lastReviewDate": "2011-02-17",
      "jurisdiction": [ {
        "text": "England"
      } ],
      "contact": [ {
        "telecom": [ {
          "system": "phone",
          "value": "redacted"
        } ]
      } ],
      "subjectType": [ "Patient" ],
      "item": [ {
        "linkId": "8067b9b2-e604-4414-b56f-8e3cc4de4b1b",
        "prefix": "24100",
        "text": "Dispatch 19 minute ambulance",
        "type": "choice",
        "required": true,
        "repeats": false,
        "option": [ {
          "valueString": ", Selected: false"
        } ]
      } ]
    }
  }, {
    "fullUrl": "urn:uuid:4d5eb47b-5d54-4c8a-bad7-0b5c6c5ab084",
    "resource": {
      "resourceType": "PractitionerRole",
      "id": "4d5eb47b-5d54-4c8a-bad7-0b5c6c5ab084",
      "practitioner": {
        "reference": "urn:uuid:ced12920-01a4-4570-af49-dd1cdce2cd95"
      },
      "organization": {
        "reference": "urn:uuid:bd7793c3-a7ee-4d7c-8c4b-b26dc73715f5"
      },
      "code": [ {
        "coding": [ {
          "system": "2.16.840.1.113883.2.1.3.2.4.17.196",
          "code": "T1",
          "display": "Nurse Triage Practitioner"
        } ]
      } ]
    }
  }, {
    "fullUrl": "urn:uuid:bd7793c3-a7ee-4d7c-8c4b-b26dc73715f5",
    "resource": {
      "resourceType": "Organization",
      "id": "bd7793c3-a7ee-4d7c-8c4b-b26dc73715f5",
      "identifier": [ {
        "value": "5L399"
      } ],
      "name": "Medway NHS Foundation Trust"
    }
  }, {
    "fullUrl": "urn:uuid:692c3ecf-85a8-4714-a92d-7cfa2bca98a8",
    "resource": {
      "resourceType": "PractitionerRole",
      "id": "692c3ecf-85a8-4714-a92d-7cfa2bca98a8",
      "practitioner": {
        "reference": "urn:uuid:f2c37a1a-0dfd-4ffe-8b5f-340899262d65"
      },
      "organization": {
        "reference": "urn:uuid:6eb342b2-34a1-4b67-98b4-d7bab0451d9b"
      },
      "code": [ {
        "coding": [ {
          "system": "2.16.840.1.113883.2.1.3.2.4.17.196",
          "code": "R0010",
          "display": "Medical Director"
        } ]
      } ]
    }
  }, {
    "fullUrl": "urn:uuid:6eb342b2-34a1-4b67-98b4-d7bab0451d9b",
    "resource": {
      "resourceType": "Organization",
      "id": "6eb342b2-34a1-4b67-98b4-d7bab0451d9b",
      "identifier": [ {
        "value": "VDE232323"
      } ],
      "name": "Medway South Out of Hours Centre"
    }
  }, {
    "fullUrl": "urn:uuid:e56bfc35-8810-431a-9fe0-563675a3f7d6",
    "resource": {
      "resourceType": "Device",
      "id": "e56bfc35-8810-431a-9fe0-563675a3f7d6",
      "model": "111 Adaptor",
      "version": "1.0.1"
    }
  }, {
    "fullUrl": "urn:uuid:d73ce317-4032-4560-838c-3ff0afa798fe",
    "resource": {
      "resourceType": "List",
      "id": "d73ce317-4032-4560-838c-3ff0afa798fe",
      "status": "current",
      "mode": "working",
      "title": "111 Report List",
      "code": {
        "coding": [ {
          "system": "http://snomed.info/sct",
          "code": "225390008",
          "display": "Triage"
        } ]
      },
      "subject": {
        "reference": "urn:uuid:9ca8c12f-7445-4098-9289-276b01c855b5"
      },
      "encounter": {
        "reference": "urn:uuid:c8e606eb-d49e-4d86-9ba9-280c918cb8b0"
      },
      "date": "2017-01-01T20:00:00+00:00",
      "source": {
        "reference": "urn:uuid:e56bfc35-8810-431a-9fe0-563675a3f7d6"
      },
      "orderedBy": {
        "coding": [ {
          "system": "http://hl7.org/fhir/list-order",
          "code": "event-date",
          "display": "Sorted by Event Date"
        } ]
      },
      "entry": [ {
        "item": {
          "reference": "urn:uuid:8a378f8e-fd22-43d6-b52a-aaf30ca9748e"
        }
      }, {
        "item": {
          "reference": "urn:uuid:a0258a4a-3764-4600-a9b4-094b4cb704d6"
        }
      }, {
        "item": {
          "reference": "urn:uuid:211e3675-e6aa-4e1d-85ee-053cbbb0a1bf"
        }
      }, {
        "item": {
          "reference": "urn:uuid:6eb342b2-34a1-4b67-98b4-d7bab0451d9b"
        }
      }, {
        "item": {
          "reference": "urn:uuid:50ad2b01-0bfd-4e97-894a-41e313bc9bf8"
        }
      }, {
        "item": {
          "reference": "urn:uuid:f2c37a1a-0dfd-4ffe-8b5f-340899262d65"
        }
      }, {
        "item": {
          "reference": "urn:uuid:bd7793c3-a7ee-4d7c-8c4b-b26dc73715f5"
        }
      }, {
        "item": {
          "reference": "urn:uuid:c3da516b-26d8-43ae-98ca-a51e8cf5ef26"
        }
      }, {
        "item": {
          "reference": "urn:uuid:05734c7a-5826-4f57-94d3-dd946b526bce"
        }
      }, {
        "item": {
          "reference": "urn:uuid:ced12920-01a4-4570-af49-dd1cdce2cd95"
        }
      }, {
        "item": {
          "reference": "urn:uuid:781fc8c2-9912-460f-a69c-8d8a9568fc56"
        }
      }, {
        "item": {
          "reference": "urn:uuid:2f770be7-a6e2-4a53-8d74-2d5ca06cb50b"
        }
      }, {
        "item": {
          "reference": "urn:uuid:e4f69be7-dbcf-4b42-9e83-4ed465352128"
        }
      }, {
        "item": {
          "reference": "urn:uuid:65a84777-c35d-4c2f-b454-de5a49974c70"
        }
      }, {
        "item": {
          "reference": "urn:uuid:2696cf44-c411-4393-8037-2d39a160b7fe"
        }
      }, {
        "item": {
          "reference": "urn:uuid:eb308eec-5fb0-438b-bfe3-f4ab0f5c1297"
        }
      }, {
        "item": {
          "reference": "urn:uuid:805cf301-752a-4db9-a57d-aa23ed0bf23c"
        }
      }, {
        "item": {
          "reference": "urn:uuid:0e6e2e60-0201-4a73-86d9-82dd09e28ac2"
        }
      }, {
        "item": {
          "reference": "urn:uuid:d962dadb-07ca-440b-bfec-b941083c0a17"
        }
      }, {
        "item": {
          "reference": "urn:uuid:bfa32da0-760e-4445-8494-116bd3f85c37"
        }
      }, {
        "item": {
          "reference": "urn:uuid:3fc6b07b-0f7c-4434-9666-12a6659b1e34"
        }
      }, {
        "item": {
          "reference": "urn:uuid:c9763488-2087-4615-ad00-753224436a58"
        }
      }, {
        "item": {
          "reference": "urn:uuid:bce3a09b-e249-4b55-a72a-3b8348643115"
        }
      }, {
        "item": {
          "reference": "urn:uuid:0a178ec7-08ed-49aa-8b04-7f70c1e4b933"
        }
      }, {
        "item": {
          "reference": "urn:uuid:ed62d82c-7d3d-43cb-8430-f4060808639f"
        }
      }, {
        "item": {
          "reference": "urn:uuid:c4ab091a-62f2-4616-a23d-2ebee3461db4"
        }
      }, {
        "item": {
          "reference": "urn:uuid:b2b1ace2-7ae2-40db-81dc-53731e2d607e"
        }
      }, {
        "item": {
          "reference": "urn:uuid:451a9d5f-221d-45fb-a16c-8545e089f30f"
        }
      }, {
        "item": {
          "reference": "urn:uuid:1f95b7e5-d775-405a-9aee-4f20c5e32fd2"
        }
      }, {
        "item": {
          "reference": "urn:uuid:312c9407-27e7-4eea-8a1a-d59d07f409e8"
        }
      }, {
        "item": {
          "reference": "urn:uuid:b6a007c2-88fb-4b0e-8675-b231a90f7fa5"
        }
      }, {
        "item": {
          "reference": "urn:uuid:78a9aeda-86ec-4fd7-b188-07cb17391ec4"
        }
      }, {
        "item": {
          "reference": "urn:uuid:96f06a38-94c8-4c36-a819-a8fa3d2f87be"
        }
      }, {
        "item": {
          "reference": "urn:uuid:5f8e385f-7eed-4ad4-8c8a-4eeb7e0fdb75"
        }
      }, {
        "item": {
          "reference": "urn:uuid:b3018b5f-4122-4e41-94ad-e3118bf67978"
        }
      }, {
        "item": {
          "reference": "urn:uuid:fb6da995-5051-4ea0-b7c2-2799ef7fbbcd"
        }
      }, {
        "item": {
          "reference": "urn:uuid:a82514e5-a67c-4915-97fc-787cad461d34"
        }
      }, {
        "item": {
          "reference": "urn:uuid:31c47155-2046-47d6-af11-a0689c2aaf0a"
        }
      }, {
        "item": {
          "reference": "urn:uuid:b9ba5329-0314-4a90-9219-28c321f1f385"
        }
      }, {
        "item": {
          "reference": "urn:uuid:55128360-5c59-4476-9649-9d0eda4e00b7"
        }
      }, {
        "item": {
          "reference": "urn:uuid:448a2ba1-2d88-469c-82c1-05f672aadddc"
        }
      }, {
        "item": {
          "reference": "urn:uuid:7f61ce6d-0f8e-4c87-b035-4d6af9263677"
        }
      }, {
        "item": {
          "reference": "urn:uuid:488e43ba-10d9-45a0-bf83-82202268b83e"
        }
      }, {
        "item": {
          "reference": "urn:uuid:b3960c06-ba8d-4530-a68c-6bd02d05e136"
        }
      }, {
        "item": {
          "reference": "urn:uuid:0a5c9a90-689f-4e31-989f-812287b0e42b"
        }
      }, {
        "item": {
          "reference": "urn:uuid:6b5a8160-9788-4585-b775-2740f45f1ae4"
        }
      }, {
        "item": {
          "reference": "urn:uuid:57a17628-844d-43b8-a7eb-1e1bbb091a4e"
        }
      }, {
        "item": {
          "reference": "urn:uuid:4916a828-53c5-4283-8bdb-ab764c75d271"
        }
      }, {
        "item": {
          "reference": "urn:uuid:c5315393-2c46-4b0e-b004-21ac94b36b93"
        }
      }, {
        "item": {
          "reference": "urn:uuid:8ad8eef1-fd10-49b5-bbaf-43b9acb33f93"
        }
      }, {
        "item": {
          "reference": "urn:uuid:b4870cf3-7c95-4dd7-828e-5e0f31c17d2e"
        }
      }, {
        "item": {
          "reference": "urn:uuid:9062f9a7-a097-4e08-baf5-1b60f2c16c82"
        }
      }, {
        "item": {
          "reference": "urn:uuid:af620249-aa22-4a3f-9eae-d44b3ab27f61"
        }
      }, {
        "item": {
          "reference": "urn:uuid:4af16647-fac0-4243-ab68-2cf0753344ac"
        }
      }, {
        "item": {
          "reference": "urn:uuid:eac102fb-b6bf-44cf-9c4a-92db31a23170"
        }
      }, {
        "item": {
          "reference": "urn:uuid:7ce5b778-fe02-4c25-86d0-f0e0644d3b13"
        }
      }, {
        "item": {
          "reference": "urn:uuid:c9c68010-3053-4f01-b120-59c5c08f85e1"
        }
      }, {
        "item": {
          "reference": "urn:uuid:3f078556-6799-4351-9fb0-870b8ab65549"
        }
      }, {
        "item": {
          "reference": "urn:uuid:91e7b1b2-71e1-4cd3-ac78-bbda37fff9f8"
        }
      }, {
        "item": {
          "reference": "urn:uuid:0f065006-9f65-4fd2-a826-5e15740b3ab3"
        }
      }, {
        "item": {
          "reference": "urn:uuid:72b0d558-2b6f-40ce-9977-eabb327c5829"
        }
      }, {
        "item": {
          "reference": "urn:uuid:f8af0901-4c19-4256-b62e-594e8515f839"
        }
      } ]
    }
  } ]
}