{
  "resourceType": "Bundle",
  "identifier": {
    "type": {
      "text": "ClinicalDocument VersionNumber"
    },
    "value": "1"
  },
  "type": "message",
  "entry": [ {
    "fullUrl": "urn:uuid:2B77B3F5-3016-4A6D-821F-152CE420E58D",
    "resource": {
      "resourceType": "MessageHeader",
      "id": "2B77B3F5-3016-4A6D-821F-152CE420E58D",
      "event": {
        "system": "https://fhir.nhs.uk/STU3/CodeSystem/EventType-1",
        "code": "referral-1",
        "display": "Referral"
      },
      "destination": [ {
        "endpoint": "urn:nhs-uk:addressing:ods:EM396:DOSServiceID:26428"
      } ],
      "timestamp": "2025-10-30T09:45:22.000+00:00",
      "source": {
        "name": "NHS 111 Adaptor",
        "endpoint": "http://localhost:8080/report"
      },
      "reason": {
        "coding": [ {
          "system": "urn:nhs-itk:ns:201005:interaction",
          "code": "urn:nhs-itk:interaction:primaryNHS111RepeatCallerDocumentSet-v1-0"
        } ]
      }
    },
    "response": {
      "status": "success",
      "lastModified": "2022-05-05T12:27:56.958+00:00"
    }
  }, {
    "fullUrl": "urn:uuid:dbc39ec3-726e-444c-9f94-05ac0fbb7592",
    "resource": {
      "resourceType": "Encounter",
      "id": "dbc39ec3-726e-444c-9f94-05ac0fbb7592",
      "identifier": [ {
        "system": "2.16.840.1.113883.2.1.3.2.4.18.34",
        "value": "D47E4F49-D4B8-4913-85B9-64AF5523B268"
      }, {
        "system": "2.16.840.1.113883.2.1.3.2.4.18.35",
        "value": "1193164"
      } ],
      "status": "finished",
      "type": [ {
        "text": "111 Encounter Referral"
      } ],
      "subject": {
        "reference": "urn:uuid:b49aea6d-464e-41e0-b558-166cb45e38e7"
      },
      "participant": [ {
        "type": [ {
          "coding": [ {
            "system": "http://hl7.org/fhir/ValueSet/encounter-participant-type",
            "code": "PPRF",
            "display": "Author"
          } ]
        } ],
        "individual": {
          "reference": "urn:uuid:84c26a89-b633-483c-b3ab-4b8fd73f641f"
        }
      }, {
        "type": [ {
          "coding": [ {
            "system": "http://hl7.org/fhir/ValueSet/encounter-participant-type",
            "code": "ATND",
            "display": "Responsible Party"
          } ]
        } ],
        "individual": {
          "reference": "urn:uuid:615a989f-f497-43ba-84ae-5b60a6e81cf3"
        }
      } ],
      "period": {
        "start": "2020-10-30T09:42:40+00:00",
        "end": "2020-10-30T09:44:13+00:00"
      },
      "location": [ {
        "location": {
          "reference": "urn:uuid:bc58effe-0b34-4906-9bf2-5edfdfa0f398"
        },
        "status": "active"
      }, {
        "location": {
          "reference": "urn:uuid:207b07a6-d3d5-41e3-ad4a-48b137cef293"
        },
        "status": "completed"
      } ],
      "serviceProvider": {
        "reference": "urn:uuid:9ac1fcd3-d9ee-43cf-831e-732c04024e5c"
      }
    }
  }, {
    "fullUrl": "urn:uuid:9ac1fcd3-d9ee-43cf-831e-732c04024e5c",
    "resource": {
      "resourceType": "Organization",
      "id": "9ac1fcd3-d9ee-43cf-831e-732c04024e5c",
      "active": true,
      "type": [ {
        "text": "CST"
      } ],
      "name": "West Midlands Single Instance"
    }
  }, {
    "fullUrl": "urn:uuid:84c26a89-b633-483c-b3ab-4b8fd73f641f",
    "resource": {
      "resourceType": "Practitioner",
      "id": "84c26a89-b633-483c-b3ab-4b8fd73f641f",
      "active": true,
      "name": [ {
        "use": "official"
      } ]
    }
  }, {
    "fullUrl": "urn:uuid:615a989f-f497-43ba-84ae-5b60a6e81cf3",
    "resource": {
      "resourceType": "Practitioner",
      "id": "615a989f-f497-43ba-84ae-5b60a6e81cf3",
      "active": true,
      "name": [ {
        "use": "official",
        "family": "Walker",
        "given": [ "Alison" ]
      } ]
    }
  }, {
    "fullUrl": "urn:uuid:bc58effe-0b34-4906-9bf2-5edfdfa0f398",
    "resource": {
      "resourceType": "Location",
      "id": "bc58effe-0b34-4906-9bf2-5edfdfa0f398",
      "managingOrganization": {
        "reference": "urn:uuid:a8658a44-c6c7-45b7-9387-654060821413"
      }
    }
  }, {
    "fullUrl": "urn:uuid:a8658a44-c6c7-45b7-9387-654060821413",
    "resource": {
      "resourceType": "Organization",
      "id": "a8658a44-c6c7-45b7-9387-654060821413",
      "identifier": [ {
        "value": "F81718"
      } ],
      "type": [ {
        "text": "GP Practice"
      } ],
      "name": "LYDIA HOUSE PRACTICE"
    }
  }, {
    "fullUrl": "urn:uuid:207b07a6-d3d5-41e3-ad4a-48b137cef293",
    "resource": {
      "resourceType": "Location",
      "id": "207b07a6-d3d5-41e3-ad4a-48b137cef293",
      "name": "Incident Location",
      "address": {
        "type": "physical",
        "line": [ "Whitchurch Hospital", "Claypit Street", "Whitchurch", "Shropshire" ],
        "postalCode": "SY13 1NT"
      }
    }
  }, {
    "fullUrl": "urn:uuid:b49aea6d-464e-41e0-b558-166cb45e38e7",
    "resource": {
      "resourceType": "Patient",
      "id": "b49aea6d-464e-41e0-b558-166cb45e38e7",
      "identifier": [ {
        "extension": [ {
          "url": "https://fhir.hl7.org.uk/STU3/StructureDefinition/Extension-CareConnect-NHSNumberVerificationStatus-1",
          "valueCodeableConcept": {
            "coding": [ {
              "system": "https://fhir.hl7.org.uk/STU3/StructureDefinition/Extension-CareConnect-NHSNumberVerificationStatus-1",
              "code": "01"
            } ]
          }
        } ],
        "system": "https://fhir.nhs.uk/Id/nhs-number",
        "value": "9990238359"
      } ],
      "active": true,
      "name": [ {
        "use": "official",
        "family": "Xxtestpatientdzadn",
        "given": [ "Scrdonotuse" ]
      } ],
      "telecom": [ {
        "system": "phone",
        "value": "tel:01204428013",
        "use": "home"
      }, {
        "system": "phone",
        "value": "tel:01204428013"
      } ],
      "gender": "female",
      "birthDate": "1965-02-17",
      "address": [ {
        "use": "home",
        "line": [ "Test Address", "Captain Lees Road", "Westhoughton", "Bolton", "Greater Manchester" ],
        "postalCode": "BL5 3UB"
      }, {
        "type": "physical",
        "line": [ "Whitchurch Hospital", "Claypit Street", "Whitchurch", "Shropshire" ],
        "postalCode": "SY13 1NT"
      } ],
      "generalPractitioner": [ {
        "reference": "urn:uuid:9e97b2a0-9677-4253-b0f8-53a6f54c2315"
      } ]
    }
  }, {
    "fullUrl": "urn:uuid:9e97b2a0-9677-4253-b0f8-53a6f54c2315",
    "resource": {
      "resourceType": "Organization",
      "id": "9e97b2a0-9677-4253-b0f8-53a6f54c2315",
      "identifier": [ {
        "value": "F81718"
      } ],
      "type": [ {
        "text": "GP Practice"
      } ],
      "name": "LYDIA HOUSE PRACTICE"
    }
  }, {
    "fullUrl": "urn:uuid:9db30711-4fe1-416b-9eca-1f1e6b4796ad",
    "resource": {
      "resourceType": "HealthcareService",
      "id": "9db30711-4fe1-416b-9eca-1f1e6b4796ad",
      "active": true,
      "providedBy": {
        "reference": "urn:uuid:c7852731-b1a2-452c-8584-64e5306cd709"
      },
      "location": [ {
        "reference": "urn:uuid:5c5e32ce-dcf5-4589-a906-c5a78303df96"
      } ],
      "name": "Repeat Caller - Live (v2)"
    }
  }, {
    "fullUrl": "urn:uuid:5c5e32ce-dcf5-4589-a906-c5a78303df96",
    "resource": {
      "resourceType": "Location",
      "id": "5c5e32ce-dcf5-4589-a906-c5a78303df96",
      "managingOrganization": {
        "reference": "urn:uuid:c7852731-b1a2-452c-8584-64e5306cd709"
      }
    }
  }, {
    "fullUrl": "urn:uuid:c7852731-b1a2-452c-8584-64e5306cd709",
    "resource": {
      "resourceType": "Organization",
      "id": "c7852731-b1a2-452c-8584-64e5306cd709",
      "identifier": [ {
        "value": "RHY25"
      } ],
      "type": [ {
        "coding": [ {
          "code": "PRCP",
          "display": "Repeat Caller - Live (v2)"
        } ]
      } ],
      "name": "Repeat Caller - Live (v2)"
    }
  }, {
    "fullUrl": "urn:uuid:fa5aabef-67c6-43cc-84a0-4796bbc4ade9",
    "resource": {
      "resourceType": "ReferralRequest",
      "id": "fa5aabef-67c6-43cc-84a0-4796bbc4ade9",
      "status": "active",
      "intent": "plan",
      "priority": "routine",
      "subject": {
        "reference": "urn:uuid:b49aea6d-464e-41e0-b558-166cb45e38e7"
      },
      "context": {
        "reference": "urn:uuid:dbc39ec3-726e-444c-9f94-05ac0fbb7592"
      },
      "occurrencePeriod": {
        "start": "2025-10-30T09:45:22+00:00"
      },
      "authoredOn": "2020-10-30T09:44:13+00:00",
      "requester": {
        "agent": {
          "reference": "urn:uuid:c5b44f31-d484-4e30-befb-0e998ab89a4c"
        },
        "onBehalfOf": {
          "reference": "urn:uuid:9ac1fcd3-d9ee-43cf-831e-732c04024e5c"
        }
      },
      "recipient": [ {
        "reference": "urn:uuid:9db30711-4fe1-416b-9eca-1f1e6b4796ad"
      } ],
      "reasonReference": [ {
        "reference": "urn:uuid:4fc5c9f7-3319-4a78-9f03-0f817eb10f86"
      } ],
      "supportingInfo": [ {
        "reference": "urn:uuid:fa338bd3-5c0a-4475-8afb-cda752c9e8da"
      } ]
    }
  }, {
    "fullUrl": "urn:uuid:fa338bd3-5c0a-4475-8afb-cda752c9e8da",
    "resource": {
      "resourceType": "ProcedureRequest",
      "id": "fa338bd3-5c0a-4475-8afb-cda752c9e8da",
      "status": "active",
      "intent": "plan",
      "priority": "routine",
      "doNotPerform": false,
      "code": {
        "coding": [ {
          "system": "2.16.840.1.113883.2.1.3.2.4.17.325",
          "code": "Dx05",
          "display": "To contact a local service within 2 hours"
        } ]
      },
      "subject": {
        "reference": "urn:uuid:b49aea6d-464e-41e0-b558-166cb45e38e7"
      },
      "occurrencePeriod": {
        "start": "2025-10-30T09:45:22+00:00"
      },
      "reasonReference": [ {
        "reference": "urn:uuid:4fc5c9f7-3319-4a78-9f03-0f817eb10f86"
      } ]
    }
  }, {
    "fullUrl": "urn:uuid:17d57d7e-f8aa-4c61-a121-0d71ad9c4ce3",
    "resource": {
      "resourceType": "Composition",
      "id": "17d57d7e-f8aa-4c61-a121-0d71ad9c4ce3",
      "identifier": {
        "use": "usual",
        "value": "499BEC45-8F01-498C-A61F-B8AC124ED50E"
      },
      "status": "final",
      "type": {
        "coding": [ {
          "system": "http://snomed.info/sct",
          "code": "371531000",
          "display": "Report of clinical encounter (record artifact)"
        } ]
      },
      "subject": {
        "reference": "urn:uuid:b49aea6d-464e-41e0-b558-166cb45e38e7"
      },
      "encounter": {
        "reference": "urn:uuid:dbc39ec3-726e-444c-9f94-05ac0fbb7592"
      },
      "date": "2025-10-30T09:45:22+00:00",
      "author": [ {
        "reference": "urn:uuid:84c26a89-b633-483c-b3ab-4b8fd73f641f"
      } ],
      "title": "111 Report",
      "confidentiality": "N",
      "section": [ {
        "section": [ {
          "title": "Patient's Reported Condition",
          "text": {
            "status": "generated",
            "div": "<div xmlns=\"http://www.w3.org/1999/xhtml\">&lt;br/&gt;WHITCHURCH MIU TEST</div>"
          }
        }, {
          "title": "Pathways Disposition",
          "text": {
            "status": "generated",
            "div": "<div xmlns=\"http://www.w3.org/1999/xhtml\">&lt;br/&gt;\n                                                    &lt;br/&gt;\n                                                    &lt;br/&gt;To contact a local service within 2 hours (Dx05)\n\n                                                    Selected service: DO NOT BOOK APPOINTMENT - TESTING Whitchurch Minor Injury Unit</div>"
          }
        }, {
          "title": "Consultation Summary",
          "text": {
            "status": "generated",
            "div": "<div xmlns=\"http://www.w3.org/1999/xhtml\">&lt;br/&gt;\n                                                    &lt;br/&gt;\n                                                    &lt;br/&gt;\n                                                    &lt;br/&gt;\n                                                    &lt;br/&gt;InjuryBite or stingInsect or spider biteSting/bite more than 6 hours agoVery severe, deep limb pain</div>"
          }
        }, {
          "title": "Pathways Assessment",
          "text": {
            "status": "generated",
            "div": "<div xmlns=\"http://www.w3.org/1999/xhtml\">&lt;br/&gt;\n                                                    &lt;br/&gt;\n                                                    &lt;br/&gt;\n                                                    &lt;br/&gt;\n                                                    &lt;br/&gt;\n                                                    &lt;br/&gt;\n                                                    &lt;br/&gt;\n                                                    &lt;br/&gt;\n                                                    &lt;br/&gt;\n                                                    &lt;br/&gt;\n                                                    &lt;br/&gt;\n                                                    &lt;br/&gt;\n                                                    &lt;br/&gt;\n                                                    &lt;br/&gt;\n                                                    &lt;br/&gt;\n                                                    &lt;br/&gt;\n                                                    &lt;br/&gt;\n                                                    &lt;br/&gt;An injury or health problem was the reason for the contact.Heavy bleeding had not occurred in the previous 2 hours.An injury or symptom relating to an injury was the main problem.User Comments: TESTThere was a minor injury (a bite or sting).User Comments: TESTPathway selected - Bites and StingsThe bite or sting was caused by an insect or spider.User Comments: TESTThe sting/bite had not occurred within the previous 6 hours.The individual had been stung less than 10 timesThe individual was not experiencing nausea and/or vomiting.The sting did not involve the eyes, mouth or limb.There was no insect/insect part remaining attached to the skinThere was very severe, deep pain.Instructions given were: The individual needs to contact a local service within 2 hours.Directory of Services referral: DO NOT BOOK APPOINTMENT - TESTING Whitchurch Minor Injury UnitAdvice given:\n                                                    Worsening</div>"
          }
        }, {
          "title": "Advice Given",
          "text": {
            "status": "generated",
            "div": "<div xmlns=\"http://www.w3.org/1999/xhtml\">&lt;br/&gt;\n                                                    &lt;br/&gt;If there are any new symptoms, or if the condition gets worse, changes or you have any other concerns, call us back.</div>"
          }
        }, {
          "title": "Special Patient Notes",
          "text": {
            "status": "generated",
            "div": "<div xmlns=\"http://www.w3.org/1999/xhtml\">&lt;content styleCode=&quot;bold&quot;&gt;Note:&lt;/content&gt;\n                                                    &lt;br/&gt;\n                                                    &lt;content&gt;TEST NOTE West Midlands Single Instance&lt;/content&gt;\n                                                    &lt;br/&gt;\n                                                    &lt;br/&gt;Special Notes from an external system were flagged as being present for this patient.</div>"
          }
        } ]
      }, {
        "title": "ReferralRequest",
        "entry": [ {
          "reference": "urn:uuid:fa5aabef-67c6-43cc-84a0-4796bbc4ade9"
        } ]
      }, {
        "title": "QuestionnaireResponse",
        "entry": [ {
          "reference": "urn:uuid:271b873c-5397-4027-b1db-e9ca1553b8de"
        } ]
      }, {
        "title": "QuestionnaireResponse",
        "entry": [ {
          "reference": "urn:uuid:f6429bde-68cd-423e-98a9-8be5cbf55e32"
        } ]
      }, {
        "title": "QuestionnaireResponse",
        "entry": [ {
          "reference": "urn:uuid:c61cac7d-1171-4718-9594-afdb9a917a90"
        } ]
      }, {
        "title": "QuestionnaireResponse",
        "entry": [ {
          "reference": "urn:uuid:6bbac0ec-8513-433d-afad-1ba413af936c"
        } ]
      }, {
        "title": "QuestionnaireResponse",
        "entry": [ {
          "reference": "urn:uuid:9d86075d-46fb-4ff5-9b03-c2e829bf757b"
        } ]
      }, {
        "title": "QuestionnaireResponse",
        "entry": [ {
          "reference": "urn:uuid:a7a2b076-ecde-4a84-acf5-165a29847f8b"
        } ]
      }, {
        "title": "QuestionnaireResponse",
        "entry": [ {
          "reference": "urn:uuid:ae9bd9c5-8de1-4149-8f1c-ea61f5cea718"
        } ]
      }, {
        "title": "QuestionnaireResponse",
        "entry": [ {
          "reference": "urn:uuid:51ac3b80-ce6a-4b7c-893f-c932fd1b028c"
        } ]
      }, {
        "title": "QuestionnaireResponse",
        "entry": [ {
          "reference": "urn:uuid:975f9579-774c-4ac1-aba3-061f479634ef"
        } ]
      }, {
        "title": "QuestionnaireResponse",
        "entry": [ {
          "reference": "urn:uuid:f5e3267b-f096-4564-9d81-9eeb60d58500"
        } ]
      }, {
        "title": "QuestionnaireResponse",
        "entry": [ {
          "reference": "urn:uuid:afb2cb97-e8de-4cbf-b511-8aac52268582"
        } ]
      }, {
        "title": "QuestionnaireResponse",
        "entry": [ {
          "reference": "urn:uuid:5529f2b1-07f2-470c-80ef-9aff692ddbb1"
        } ]
      }, {
        "title": "QuestionnaireResponse",
        "entry": [ {
          "reference": "urn:uuid:5c243273-003c-41e9-a197-8f5517588f4e"
        } ]
      }, {
        "title": "QuestionnaireResponse",
        "entry": [ {
          "reference": "urn:uuid:66f3f32f-070e-4cdc-bc65-e7bd0c2d4984"
        } ]
      }, {
        "title": "QuestionnaireResponse",
        "entry": [ {
          "reference": "urn:uuid:f17f6560-a841-402f-8d5d-b6ba02dcad12"
        } ]
      }, {
        "title": "QuestionnaireResponse",
        "entry": [ {
          "reference": "urn:uuid:d7565b69-8977-424a-a4c7-18c0272ad468"
        } ]
      }, {
        "title": "QuestionnaireResponse",
        "entry": [ {
          "reference": "urn:uuid:55ef8e94-fb99-4abb-808c-d86d02f164fc"
        } ]
      }, {
        "title": "QuestionnaireResponse",
        "entry": [ {
          "reference": "urn:uuid:9ee9a713-b772-42c3-87cf-4988959bea9c"
        } ]
      }, {
        "title": "QuestionnaireResponse",
        "entry": [ {
          "reference": "urn:uuid:b1024e2d-e716-4324-a1e6-4d0f84997257"
        } ]
      }, {
        "title": "QuestionnaireResponse",
        "entry": [ {
          "reference": "urn:uuid:f6ad8e8e-cc73-4a32-8311-a331ea0c2c1a"
        } ]
      }, {
        "title": "QuestionnaireResponse",
        "entry": [ {
          "reference": "urn:uuid:0e3b5418-cc44-41a3-92c6-40ff03dd39e1"
        } ]
      }, {
        "title": "QuestionnaireResponse",
        "entry": [ {
          "reference": "urn:uuid:f13e4430-31f9-4886-8cf7-8a09aa2d77f4"
        } ]
      } ]
    }
  }, {
    "fullUrl": "urn:uuid:41c98a42-0943-4b87-9463-9994fe707e72",
    "resource": {
      "resourceType": "Consent",
      "id": "41c98a42-0943-4b87-9463-9994fe707e72",
      "identifier": {
        "use": "usual",
        "value": "499BEC45-8F01-498C-A61F-B8AC124ED50E"
      },
      "status": "active",
      "patient": {
        "reference": "urn:uuid:b49aea6d-464e-41e0-b558-166cb45e38e7"
      },
      "period": {
        "start": "2020-10-30T09:42:40+00:00",
        "end": "2020-10-30T09:44:13+00:00"
      },
      "consentingParty": [ {
        "reference": "urn:uuid:b49aea6d-464e-41e0-b558-166cb45e38e7"
      } ],
      "action": [ {
        "coding": [ {
          "system": "http://snomed.info/sct",
          "code": "425691002",
          "display": "Consent given for electronic record sharing"
        } ],
        "text": "Consent given for electronic record sharing"
      } ],
      "organization": [ {
        "reference": "urn:uuid:9ac1fcd3-d9ee-43cf-831e-732c04024e5c"
      } ],
      "policyRule": "http://hl7.org/fhir/ConsentPolicy/opt-out",
      "data": [ {
        "meaning": "related",
        "reference": {
          "reference": "urn:uuid:dbc39ec3-726e-444c-9f94-05ac0fbb7592"
        }
      } ]
    }
  }, {
    "fullUrl": "urn:uuid:4fc5c9f7-3319-4a78-9f03-0f817eb10f86",
    "resource": {
      "resourceType": "Condition",
      "id": "4fc5c9f7-3319-4a78-9f03-0f817eb10f86",
      "clinicalStatus": "active",
      "verificationStatus": "unknown",
      "subject": {
        "reference": "urn:uuid:b49aea6d-464e-41e0-b558-166cb45e38e7"
      },
      "context": {
        "reference": "urn:uuid:dbc39ec3-726e-444c-9f94-05ac0fbb7592"
      },
      "evidence": [ {
        "detail": [ {
          "reference": "urn:uuid:271b873c-5397-4027-b1db-e9ca1553b8de"
        } ]
      }, {
        "detail": [ {
          "reference": "urn:uuid:f6429bde-68cd-423e-98a9-8be5cbf55e32"
        } ]
      }, {
        "detail": [ {
          "reference": "urn:uuid:c61cac7d-1171-4718-9594-afdb9a917a90"
        } ]
      }, {
        "detail": [ {
          "reference": "urn:uuid:6bbac0ec-8513-433d-afad-1ba413af936c"
        } ]
      }, {
        "detail": [ {
          "reference": "urn:uuid:9d86075d-46fb-4ff5-9b03-c2e829bf757b"
        } ]
      }, {
        "detail": [ {
          "reference": "urn:uuid:a7a2b076-ecde-4a84-acf5-165a29847f8b"
        } ]
      }, {
        "detail": [ {
          "reference": "urn:uuid:ae9bd9c5-8de1-4149-8f1c-ea61f5cea718"
        } ]
      }, {
        "detail": [ {
          "reference": "urn:uuid:51ac3b80-ce6a-4b7c-893f-c932fd1b028c"
        } ]
      }, {
        "detail": [ {
          "reference": "urn:uuid:975f9579-774c-4ac1-aba3-061f479634ef"
        } ]
      }, {
        "detail": [ {
          "reference": "urn:uuid:f5e3267b-f096-4564-9d81-9eeb60d58500"
        } ]
      }, {
        "detail": [ {
          "reference": "urn:uuid:afb2cb97-e8de-4cbf-b511-8aac52268582"
        } ]
      }, {
        "detail": [ {
          "reference": "urn:uuid:5529f2b1-07f2-470c-80ef-9aff692ddbb1"
        } ]
      }, {
        "detail": [ {
          "reference": "urn:uuid:5c243273-003c-41e9-a197-8f5517588f4e"
        } ]
      }, {
        "detail": [ {
          "reference": "urn:uuid:66f3f32f-070e-4cdc-bc65-e7bd0c2d4984"
        } ]
      }, {
        "detail": [ {
          "reference": "urn:uuid:f17f6560-a841-402f-8d5d-b6ba02dcad12"
        } ]
      }, {
        "detail": [ {
          "reference": "urn:uuid:d7565b69-8977-424a-a4c7-18c0272ad468"
        } ]
      }, {
        "detail": [ {
          "reference": "urn:uuid:55ef8e94-fb99-4abb-808c-d86d02f164fc"
        } ]
      }, {
        "detail": [ {
          "reference": "urn:uuid:9ee9a713-b772-42c3-87cf-4988959bea9c"
        } ]
      }, {
        "detail": [ {
          "reference": "urn:uuid:b1024e2d-e716-4324-a1e6-4d0f84997257"
        } ]
      }, {
        "detail": [ {
          "reference": "urn:uuid:f6ad8e8e-cc73-4a32-8311-a331ea0c2c1a"
        } ]
      }, {
        "detail": [ {
          "reference": "urn:uuid:0e3b5418-cc44-41a3-92c6-40ff03dd39e1"
        } ]
      }, {
        "detail": [ {
          "reference": "urn:uuid:f13e4430-31f9-4886-8cf7-8a09aa2d77f4"
        } ]
      } ]
    }
  }, {
    "fullUrl": "urn:uuid:271b873c-5397-4027-b1db-e9ca1553b8de",
    "resource": {
      "resourceType": "QuestionnaireResponse",
      "id": "271b873c-5397-4027-b1db-e9ca1553b8de",
      "identifier": {
        "value": "1193164"
      },
      "questionnaire": {
        "reference": "urn:uuid:f6483fe2-a727-4147-b4e2-bcea9ccf2c3d"
      },
      "status": "completed",
      "subject": {
        "reference": "urn:uuid:b49aea6d-464e-41e0-b558-166cb45e38e7"
      },
      "context": {
        "reference": "urn:uuid:dbc39ec3-726e-444c-9f94-05ac0fbb7592"
      },
      "authored": "2020-10-30T09:45:23+00:00",
      "item": [ {
        "linkId": "Tx220074",
        "text": "What is the reason for the contact?",
        "answer": [ {
          "valueString": "an injury or other health problem"
        } ]
      } ]
    }
  }, {
    "fullUrl": "urn:uuid:f6483fe2-a727-4147-b4e2-bcea9ccf2c3d",
    "resource": {
      "resourceType": "Questionnaire",
      "id": "f6483fe2-a727-4147-b4e2-bcea9ccf2c3d",
      "identifier": [ {
        "value": "1193164"
      } ],
      "version": "2020-10-30T09:45:23.026Z",
      "status": "active",
      "experimental": false,
      "date": "2020-10-30T09:45:23+00:00",
      "publisher": "User ID: 'HOLDENR' User name: 'Rachael Holden' User skill set: 'T3'",
      "lastReviewDate": "2020-10-30",
      "subjectType": [ "Patient" ],
      "item": [ {
        "linkId": "1193164",
        "prefix": "5",
        "text": "What is the reason for the contact?",
        "type": "choice",
        "required": true,
        "repeats": false,
        "option": [ {
          "valueString": "an injury or other health problem, Selected: true"
        }, {
          "valueString": "labour or childbirth, Selected: false"
        }, {
          "valueString": "a need to access another healthcare service, Selected: false"
        }, {
          "valueString": "a healthcare professional requesting contact with another clinician, Selected: false"
        }, {
          "valueString": "a report of results or tests, Selected: false"
        }, {
          "valueString": "a possible failure of contraception, Selected: false"
        }, {
          "valueString": "more, Selected: false"
        } ]
      } ]
    }
  }, {
    "fullUrl": "urn:uuid:f6429bde-68cd-423e-98a9-8be5cbf55e32",
    "resource": {
      "resourceType": "QuestionnaireResponse",
      "id": "f6429bde-68cd-423e-98a9-8be5cbf55e32",
      "identifier": {
        "value": "1193164"
      },
      "questionnaire": {
        "reference": "urn:uuid:f88bb7b2-25ad-4b70-b35f-483867549772"
      },
      "status": "completed",
      "subject": {
        "reference": "urn:uuid:b49aea6d-464e-41e0-b558-166cb45e38e7"
      },
      "context": {
        "reference": "urn:uuid:dbc39ec3-726e-444c-9f94-05ac0fbb7592"
      },
      "authored": "2020-10-30T09:45:23+00:00",
      "item": [ {
        "linkId": "Tx221807",
        "text": "STRING:to'Immediatethreatstolife(SPA/OOHversion)'-'Majorbloodloss'stem",
        "answer": [ {
          "valueString": "\"present\""
        } ]
      } ]
    }
  }, {
    "fullUrl": "urn:uuid:f88bb7b2-25ad-4b70-b35f-483867549772",
    "resource": {
      "resourceType": "Questionnaire",
      "id": "f88bb7b2-25ad-4b70-b35f-483867549772",
      "identifier": [ {
        "value": "1193164"
      } ],
      "version": "2020-10-30T09:45:23.026Z",
      "status": "active",
      "experimental": false,
      "date": "2020-10-30T09:45:23+00:00",
      "publisher": "User ID: 'HOLDENR' User name: 'Rachael Holden' User skill set: 'T3'",
      "lastReviewDate": "2020-10-30",
      "subjectType": [ "Patient" ],
      "item": [ {
        "linkId": "1193164",
        "prefix": "200",
        "text": "STRING:to'Immediatethreatstolife(SPA/OOHversion)'-'Majorbloodloss'stem",
        "type": "choice",
        "required": true,
        "repeats": false,
        "option": [ {
          "valueString": "\"present\", Selected: true"
        } ]
      } ]
    }
  }, {
    "fullUrl": "urn:uuid:c61cac7d-1171-4718-9594-afdb9a917a90",
    "resource": {
      "resourceType": "QuestionnaireResponse",
      "id": "c61cac7d-1171-4718-9594-afdb9a917a90",
      "identifier": {
        "value": "1193164"
      },
      "questionnaire": {
        "reference": "urn:uuid:51a85477-ca5b-4761-baab-93d9f123736e"
      },
      "status": "completed",
      "subject": {
        "reference": "urn:uuid:b49aea6d-464e-41e0-b558-166cb45e38e7"
      },
      "context": {
        "reference": "urn:uuid:dbc39ec3-726e-444c-9f94-05ac0fbb7592"
      },
      "authored": "2020-10-30T09:45:23+00:00"
    }
  }, {
    "fullUrl": "urn:uuid:51a85477-ca5b-4761-baab-93d9f123736e",
    "resource": {
      "resourceType": "Questionnaire",
      "id": "51a85477-ca5b-4761-baab-93d9f123736e",
      "identifier": [ {
        "value": "1193164"
      } ],
      "version": "2020-10-30T09:45:23.026Z",
      "status": "active",
      "experimental": false,
      "date": "2020-10-30T09:45:23+00:00",
      "publisher": "User ID: 'HOLDENR' User name: 'Rachael Holden' User skill set: 'T3'",
      "lastReviewDate": "2020-10-30",
      "subjectType": [ "Patient" ]
    }
  }, {
    "fullUrl": "urn:uuid:6bbac0ec-8513-433d-afad-1ba413af936c",
    "resource": {
      "resourceType": "QuestionnaireResponse",
      "id": "6bbac0ec-8513-433d-afad-1ba413af936c",
      "identifier": {
        "value": "1193164"
      },
      "questionnaire": {
        "reference": "urn:uuid:094ec21f-3f2f-452d-ab9b-23d11cacbb76"
      },
      "status": "completed",
      "subject": {
        "reference": "urn:uuid:b49aea6d-464e-41e0-b558-166cb45e38e7"
      },
      "context": {
        "reference": "urn:uuid:dbc39ec3-726e-444c-9f94-05ac0fbb7592"
      },
      "authored": "2020-10-30T09:45:23+00:00",
      "item": [ {
        "linkId": "Tx221799",
        "text": "STRING:injury,illnessorlabourestablishedinEntryFlow",
        "answer": [ {
          "valueString": "\"present\""
        } ]
      } ]
    }
  }, {
    "fullUrl": "urn:uuid:094ec21f-3f2f-452d-ab9b-23d11cacbb76",
    "resource": {
      "resourceType": "Questionnaire",
      "id": "094ec21f-3f2f-452d-ab9b-23d11cacbb76",
      "identifier": [ {
        "value": "1193164"
      } ],
      "version": "2020-10-30T09:45:23.026Z",
      "status": "active",
      "experimental": false,
      "date": "2020-10-30T09:45:23+00:00",
      "publisher": "User ID: 'HOLDENR' User name: 'Rachael Holden' User skill set: 'T3'",
      "lastReviewDate": "2020-10-30",
      "subjectType": [ "Patient" ],
      "item": [ {
        "linkId": "1193164",
        "prefix": "0",
        "text": "STRING:injury,illnessorlabourestablishedinEntryFlow",
        "type": "choice",
        "required": true,
        "repeats": false,
        "option": [ {
          "valueString": "\"present\", Selected: true"
        } ]
      } ]
    }
  }, {
    "fullUrl": "urn:uuid:9d86075d-46fb-4ff5-9b03-c2e829bf757b",
    "resource": {
      "resourceType": "QuestionnaireResponse",
      "id": "9d86075d-46fb-4ff5-9b03-c2e829bf757b",
      "identifier": {
        "value": "1193164"
      },
      "questionnaire": {
        "reference": "urn:uuid:3f95704b-416d-4aa3-a24b-44b8945f006b"
      },
      "status": "completed",
      "subject": {
        "reference": "urn:uuid:b49aea6d-464e-41e0-b558-166cb45e38e7"
      },
      "context": {
        "reference": "urn:uuid:dbc39ec3-726e-444c-9f94-05ac0fbb7592"
      },
      "authored": "2020-10-30T09:45:23+00:00",
      "item": [ {
        "linkId": "Tx224120",
        "text": "Have you been bleeding RED BLOOD very heavily IN THE LAST 2 HOURS?",
        "answer": [ {
          "valueString": "no"
        } ]
      } ]
    }
  }, {
    "fullUrl": "urn:uuid:3f95704b-416d-4aa3-a24b-44b8945f006b",
    "resource": {
      "resourceType": "Questionnaire",
      "id": "3f95704b-416d-4aa3-a24b-44b8945f006b",
      "identifier": [ {
        "value": "1193164"
      } ],
      "version": "2020-10-30T09:45:23.026Z",
      "status": "active",
      "experimental": false,
      "date": "2020-10-30T09:45:23+00:00",
      "publisher": "User ID: 'HOLDENR' User name: 'Rachael Holden' User skill set: 'T3'",
      "lastReviewDate": "2020-10-30",
      "subjectType": [ "Patient" ],
      "item": [ {
        "linkId": "1193164",
        "prefix": "10100",
        "text": "Have you been bleeding RED BLOOD very heavily IN THE LAST 2 HOURS?",
        "type": "choice",
        "required": true,
        "repeats": false,
        "option": [ {
          "valueString": "yes, Selected: false"
        }, {
          "valueString": "not sure, Selected: false"
        }, {
          "valueString": "no, Selected: true"
        } ]
      } ]
    }
  }, {
    "fullUrl": "urn:uuid:a7a2b076-ecde-4a84-acf5-165a29847f8b",
    "resource": {
      "resourceType": "QuestionnaireResponse",
      "id": "a7a2b076-ecde-4a84-acf5-165a29847f8b",
      "identifier": {
        "value": "1193164"
      },
      "questionnaire": {
        "reference": "urn:uuid:84bab7f8-f206-49a6-9140-6ab968f807cd"
      },
      "status": "completed",
      "subject": {
        "reference": "urn:uuid:b49aea6d-464e-41e0-b558-166cb45e38e7"
      },
      "context": {
        "reference": "urn:uuid:dbc39ec3-726e-444c-9f94-05ac0fbb7592"
      },
      "authored": "2020-10-30T09:45:23+00:00",
      "item": [ {
        "linkId": "Tx221343",
        "text": "SocialConcernsExcluded",
        "answer": [ {
          "valueString": "==\"present\""
        } ]
      } ]
    }
  }, {
    "fullUrl": "urn:uuid:84bab7f8-f206-49a6-9140-6ab968f807cd",
    "resource": {
      "resourceType": "Questionnaire",
      "id": "84bab7f8-f206-49a6-9140-6ab968f807cd",
      "identifier": [ {
        "value": "1193164"
      } ],
      "version": "2020-10-30T09:45:23.026Z",
      "status": "active",
      "experimental": false,
      "date": "2020-10-30T09:45:23+00:00",
      "publisher": "User ID: 'HOLDENR' User name: 'Rachael Holden' User skill set: 'T3'",
      "lastReviewDate": "2020-10-30",
      "subjectType": [ "Patient" ],
      "item": [ {
        "linkId": "1193164",
        "prefix": "1100",
        "text": "SocialConcernsExcluded",
        "type": "choice",
        "required": true,
        "repeats": false,
        "option": [ {
          "valueString": "==\"present\", Selected: true"
        }, {
          "valueString": "*, Selected: false"
        } ]
      } ]
    }
  }, {
    "fullUrl": "urn:uuid:ae9bd9c5-8de1-4149-8f1c-ea61f5cea718",
    "resource": {
      "resourceType": "QuestionnaireResponse",
      "id": "ae9bd9c5-8de1-4149-8f1c-ea61f5cea718",
      "identifier": {
        "value": "1193164"
      },
      "questionnaire": {
        "reference": "urn:uuid:68094e2e-18dd-47ba-b37d-315d8a3c4396"
      },
      "status": "completed",
      "subject": {
        "reference": "urn:uuid:b49aea6d-464e-41e0-b558-166cb45e38e7"
      },
      "context": {
        "reference": "urn:uuid:dbc39ec3-726e-444c-9f94-05ac0fbb7592"
      },
      "authored": "2020-10-30T09:45:23+00:00",
      "item": [ {
        "linkId": "Tx130011",
        "text": "What is the main problem?",
        "answer": [ {
          "valueString": "injury (specify)"
        } ]
      } ]
    }
  }, {
    "fullUrl": "urn:uuid:68094e2e-18dd-47ba-b37d-315d8a3c4396",
    "resource": {
      "resourceType": "Questionnaire",
      "id": "68094e2e-18dd-47ba-b37d-315d8a3c4396",
      "identifier": [ {
        "value": "1193164"
      } ],
      "version": "2020-10-30T09:45:23.026Z",
      "status": "active",
      "experimental": false,
      "date": "2020-10-30T09:45:23+00:00",
      "publisher": "User ID: 'HOLDENR' User name: 'Rachael Holden' User skill set: 'T3'",
      "lastReviewDate": "2020-10-30",
      "subjectType": [ "Patient" ],
      "item": [ {
        "linkId": "1193164",
        "prefix": "2300",
        "text": "What is the main problem?",
        "type": "choice",
        "required": true,
        "repeats": false,
        "option": [ {
          "valueString": "the individual has been told to follow a particular course of action (specify), Selected: false"
        }, {
          "valueString": "the individual is an identified frequent caller, Selected: false"
        }, {
          "valueString": "injury (specify), Selected: true"
        }, {
          "valueString": "illness or other health problem (specify), Selected: false"
        }, {
          "valueString": "child protection/vulnerable adult concern, Selected: false"
        }, {
          "valueString": "social or domestic emergency, Selected: false"
        }, {
          "valueString": "the environment potentially poses an immediate threat to life (specify), Selected: false"
        } ]
      } ]
    }
  }, {
    "fullUrl": "urn:uuid:51ac3b80-ce6a-4b7c-893f-c932fd1b028c",
    "resource": {
      "resourceType": "QuestionnaireResponse",
      "id": "51ac3b80-ce6a-4b7c-893f-c932fd1b028c",
      "identifier": {
        "value": "1193164"
      },
      "questionnaire": {
        "reference": "urn:uuid:43efb29f-0c47-4f07-a646-c6d993e9d390"
      },
      "status": "completed",
      "subject": {
        "reference": "urn:uuid:b49aea6d-464e-41e0-b558-166cb45e38e7"
      },
      "context": {
        "reference": "urn:uuid:dbc39ec3-726e-444c-9f94-05ac0fbb7592"
      },
      "authored": "2020-10-30T09:45:23+00:00",
      "item": [ {
        "linkId": "Tx224119",
        "text": "FROM WHAT YOU HAVE HEARD IS THIS A MINOR INJURY?",
        "answer": [ {
          "valueString": "yes - a minor bite or sting (specify)"
        } ]
      } ]
    }
  }, {
    "fullUrl": "urn:uuid:43efb29f-0c47-4f07-a646-c6d993e9d390",
    "resource": {
      "resourceType": "Questionnaire",
      "id": "43efb29f-0c47-4f07-a646-c6d993e9d390",
      "identifier": [ {
        "value": "1193164"
      } ],
      "version": "2020-10-30T09:45:23.026Z",
      "status": "active",
      "experimental": false,
      "date": "2020-10-30T09:45:23+00:00",
      "publisher": "User ID: 'HOLDENR' User name: 'Rachael Holden' User skill set: 'T3'",
      "lastReviewDate": "2020-10-30",
      "subjectType": [ "Patient" ],
      "item": [ {
        "linkId": "1193164",
        "prefix": "15000",
        "text": "FROM WHAT YOU HAVE HEARD IS THIS A MINOR INJURY?",
        "type": "choice",
        "required": true,
        "repeats": false,
        "option": [ {
          "valueString": "yes - a minor bite or sting (specify), Selected: true"
        }, {
          "valueString": "yes - a scratch, graze or minor wound, Selected: false"
        }, {
          "valueString": "yes - skin minor foreign body or skin glued, Selected: false"
        }, {
          "valueString": "yes - trauma blisters, Selected: false"
        }, {
          "valueString": "yes - a single finger or toe injury, Selected: false"
        }, {
          "valueString": "not sure, Selected: false"
        }, {
          "valueString": "no, Selected: false"
        } ]
      } ]
    }
  }, {
    "fullUrl": "urn:uuid:975f9579-774c-4ac1-aba3-061f479634ef",
    "resource": {
      "resourceType": "QuestionnaireResponse",
      "id": "975f9579-774c-4ac1-aba3-061f479634ef",
      "identifier": {
        "value": "1193164"
      },
      "questionnaire": {
        "reference": "urn:uuid:9be3d72c-9f23-4007-9118-f5bcbddfd1cc"
      },
      "status": "completed",
      "subject": {
        "reference": "urn:uuid:b49aea6d-464e-41e0-b558-166cb45e38e7"
      },
      "context": {
        "reference": "urn:uuid:dbc39ec3-726e-444c-9f94-05ac0fbb7592"
      },
      "authored": "2020-10-30T09:45:23+00:00",
      "item": [ {
        "linkId": "Tx225125",
        "text": "SYSTEM_INJURYMODULE",
        "answer": [ {
          "valueString": "==\"injurymodule\""
        } ]
      } ]
    }
  }, {
    "fullUrl": "urn:uuid:9be3d72c-9f23-4007-9118-f5bcbddfd1cc",
    "resource": {
      "resourceType": "Questionnaire",
      "id": "9be3d72c-9f23-4007-9118-f5bcbddfd1cc",
      "identifier": [ {
        "value": "1193164"
      } ],
      "version": "2020-10-30T09:45:23.026Z",
      "status": "active",
      "experimental": false,
      "date": "2020-10-30T09:45:23+00:00",
      "publisher": "User ID: 'HOLDENR' User name: 'Rachael Holden' User skill set: 'T3'",
      "lastReviewDate": "2020-10-30",
      "subjectType": [ "Patient" ],
      "item": [ {
        "linkId": "1193164",
        "prefix": "23700",
        "text": "SYSTEM_INJURYMODULE",
        "type": "choice",
        "required": true,
        "repeats": false,
        "option": [ {
          "valueString": "==\"injurymodule\", Selected: true"
        }, {
          "valueString": "*, Selected: false"
        } ]
      } ]
    }
  }, {
    "fullUrl": "urn:uuid:f5e3267b-f096-4564-9d81-9eeb60d58500",
    "resource": {
      "resourceType": "QuestionnaireResponse",
      "id": "f5e3267b-f096-4564-9d81-9eeb60d58500",
      "identifier": {
        "value": "1193164"
      },
      "questionnaire": {
        "reference": "urn:uuid:6e4d1d54-6dd9-4847-a639-073b207344a7"
      },
      "status": "completed",
      "subject": {
        "reference": "urn:uuid:b49aea6d-464e-41e0-b558-166cb45e38e7"
      },
      "context": {
        "reference": "urn:uuid:dbc39ec3-726e-444c-9f94-05ac0fbb7592"
      },
      "authored": "2020-10-30T09:45:23+00:00"
    }
  }, {
    "fullUrl": "urn:uuid:6e4d1d54-6dd9-4847-a639-073b207344a7",
    "resource": {
      "resourceType": "Questionnaire",
      "id": "6e4d1d54-6dd9-4847-a639-073b207344a7",
      "identifier": [ {
        "value": "1193164"
      } ],
      "version": "2020-10-30T09:45:23.026Z",
      "status": "active",
      "experimental": false,
      "date": "2020-10-30T09:45:23+00:00",
      "publisher": "User ID: 'HOLDENR' User name: 'Rachael Holden' User skill set: 'T3'",
      "lastReviewDate": "2020-10-30",
      "subjectType": [ "Patient" ]
    }
  }, {
    "fullUrl": "urn:uuid:afb2cb97-e8de-4cbf-b511-8aac52268582",
    "resource": {
      "resourceType": "QuestionnaireResponse",
      "id": "afb2cb97-e8de-4cbf-b511-8aac52268582",
      "identifier": {
        "value": "1193164"
      },
      "questionnaire": {
        "reference": "urn:uuid:0b13e15c-f642-4217-a9f7-edaf15841554"
      },
      "status": "completed",
      "subject": {
        "reference": "urn:uuid:b49aea6d-464e-41e0-b558-166cb45e38e7"
      },
      "context": {
        "reference": "urn:uuid:dbc39ec3-726e-444c-9f94-05ac0fbb7592"
      },
      "authored": "2020-10-30T09:45:23+00:00",
      "item": [ {
        "linkId": "Tx3529",
        "text": "WHAT WAS THE CAUSE?",
        "answer": [ {
          "valueString": "an insect or spider (specify if known)"
        } ]
      } ]
    }
  }, {
    "fullUrl": "urn:uuid:0b13e15c-f642-4217-a9f7-edaf15841554",
    "resource": {
      "resourceType": "Questionnaire",
      "id": "0b13e15c-f642-4217-a9f7-edaf15841554",
      "identifier": [ {
        "value": "1193164"
      } ],
      "version": "2020-10-30T09:45:23.026Z",
      "status": "active",
      "experimental": false,
      "date": "2020-10-30T09:45:23+00:00",
      "publisher": "User ID: 'HOLDENR' User name: 'Rachael Holden' User skill set: 'T3'",
      "lastReviewDate": "2020-10-30",
      "subjectType": [ "Patient" ],
      "item": [ {
        "linkId": "1193164",
        "prefix": "0",
        "text": "WHAT WAS THE CAUSE?",
        "type": "choice",
        "required": true,
        "repeats": false,
        "option": [ {
          "valueString": "a person, Selected: false"
        }, {
          "valueString": "an animal (specify if known), Selected: false"
        }, {
          "valueString": "a snake (specify if known), Selected: false"
        }, {
          "valueString": "an insect or spider (specify if known), Selected: true"
        }, {
          "valueString": "stung by a water creature (specify if known), Selected: false"
        }, {
          "valueString": "bitten by a water creature (specify if known), Selected: false"
        }, {
          "valueString": "not sure, Selected: false"
        } ]
      } ]
    }
  }, {
    "fullUrl": "urn:uuid:5529f2b1-07f2-470c-80ef-9aff692ddbb1",
    "resource": {
      "resourceType": "QuestionnaireResponse",
      "id": "5529f2b1-07f2-470c-80ef-9aff692ddbb1",
      "identifier": {
        "value": "1193164"
      },
      "questionnaire": {
        "reference": "urn:uuid:a2b1a8d8-713a-42bd-891f-7d3020462c83"
      },
      "status": "completed",
      "subject": {
        "reference": "urn:uuid:b49aea6d-464e-41e0-b558-166cb45e38e7"
      },
      "context": {
        "reference": "urn:uuid:dbc39ec3-726e-444c-9f94-05ac0fbb7592"
      },
      "authored": "2020-10-30T09:45:23+00:00"
    }
  }, {
    "fullUrl": "urn:uuid:a2b1a8d8-713a-42bd-891f-7d3020462c83",
    "resource": {
      "resourceType": "Questionnaire",
      "id": "a2b1a8d8-713a-42bd-891f-7d3020462c83",
      "identifier": [ {
        "value": "1193164"
      } ],
      "version": "2020-10-30T09:45:23.026Z",
      "status": "active",
      "experimental": false,
      "date": "2020-10-30T09:45:23+00:00",
      "publisher": "User ID: 'HOLDENR' User name: 'Rachael Holden' User skill set: 'T3'",
      "lastReviewDate": "2020-10-30",
      "subjectType": [ "Patient" ]
    }
  }, {
    "fullUrl": "urn:uuid:5c243273-003c-41e9-a197-8f5517588f4e",
    "resource": {
      "resourceType": "QuestionnaireResponse",
      "id": "5c243273-003c-41e9-a197-8f5517588f4e",
      "identifier": {
        "value": "1193164"
      },
      "questionnaire": {
        "reference": "urn:uuid:ae6df009-79cd-430f-809c-533640e036f5"
      },
      "status": "completed",
      "subject": {
        "reference": "urn:uuid:b49aea6d-464e-41e0-b558-166cb45e38e7"
      },
      "context": {
        "reference": "urn:uuid:dbc39ec3-726e-444c-9f94-05ac0fbb7592"
      },
      "authored": "2020-10-30T09:45:23+00:00",
      "item": [ {
        "linkId": "Tx220302",
        "text": "Did it happen WITHIN THE LAST 6 HOURS?",
        "answer": [ {
          "valueString": "no"
        } ]
      } ]
    }
  }, {
    "fullUrl": "urn:uuid:ae6df009-79cd-430f-809c-533640e036f5",
    "resource": {
      "resourceType": "Questionnaire",
      "id": "ae6df009-79cd-430f-809c-533640e036f5",
      "identifier": [ {
        "value": "1193164"
      } ],
      "version": "2020-10-30T09:45:23.026Z",
      "status": "active",
      "experimental": false,
      "date": "2020-10-30T09:45:23+00:00",
      "publisher": "User ID: 'HOLDENR' User name: 'Rachael Holden' User skill set: 'T3'",
      "lastReviewDate": "2020-10-30",
      "subjectType": [ "Patient" ],
      "item": [ {
        "linkId": "1193164",
        "prefix": "0",
        "text": "Did it happen WITHIN THE LAST 6 HOURS?",
        "type": "choice",
        "required": true,
        "repeats": false,
        "option": [ {
          "valueString": "yes, Selected: false"
        }, {
          "valueString": "not sure, Selected: false"
        }, {
          "valueString": "no, Selected: true"
        } ]
      } ]
    }
  }, {
    "fullUrl": "urn:uuid:66f3f32f-070e-4cdc-bc65-e7bd0c2d4984",
    "resource": {
      "resourceType": "QuestionnaireResponse",
      "id": "66f3f32f-070e-4cdc-bc65-e7bd0c2d4984",
      "identifier": {
        "value": "1193164"
      },
      "questionnaire": {
        "reference": "urn:uuid:11073a7c-bde8-432c-8ceb-011c640ca586"
      },
      "status": "completed",
      "subject": {
        "reference": "urn:uuid:b49aea6d-464e-41e0-b558-166cb45e38e7"
      },
      "context": {
        "reference": "urn:uuid:dbc39ec3-726e-444c-9f94-05ac0fbb7592"
      },
      "authored": "2020-10-30T09:45:23+00:00",
      "item": [ {
        "linkId": "Tx3543",
        "text": "Have you been stung 10 or more times?",
        "answer": [ {
          "valueString": "no"
        } ]
      } ]
    }
  }, {
    "fullUrl": "urn:uuid:11073a7c-bde8-432c-8ceb-011c640ca586",
    "resource": {
      "resourceType": "Questionnaire",
      "id": "11073a7c-bde8-432c-8ceb-011c640ca586",
      "identifier": [ {
        "value": "1193164"
      } ],
      "version": "2020-10-30T09:45:23.026Z",
      "status": "active",
      "experimental": false,
      "date": "2020-10-30T09:45:23+00:00",
      "publisher": "User ID: 'HOLDENR' User name: 'Rachael Holden' User skill set: 'T3'",
      "lastReviewDate": "2020-10-30",
      "subjectType": [ "Patient" ],
      "item": [ {
        "linkId": "1193164",
        "prefix": "2900",
        "text": "Have you been stung 10 or more times?",
        "type": "choice",
        "required": true,
        "repeats": false,
        "option": [ {
          "valueString": "yes, Selected: false"
        }, {
          "valueString": "not sure, Selected: false"
        }, {
          "valueString": "no, Selected: true"
        } ]
      } ]
    }
  }, {
    "fullUrl": "urn:uuid:f17f6560-a841-402f-8d5d-b6ba02dcad12",
    "resource": {
      "resourceType": "QuestionnaireResponse",
      "id": "f17f6560-a841-402f-8d5d-b6ba02dcad12",
      "identifier": {
        "value": "1193164"
      },
      "questionnaire": {
        "reference": "urn:uuid:9e96e24b-7036-4cdf-9a84-db4c00c6cc53"
      },
      "status": "completed",
      "subject": {
        "reference": "urn:uuid:b49aea6d-464e-41e0-b558-166cb45e38e7"
      },
      "context": {
        "reference": "urn:uuid:dbc39ec3-726e-444c-9f94-05ac0fbb7592"
      },
      "authored": "2020-10-30T09:45:23+00:00",
      "item": [ {
        "linkId": "Tx3557",
        "text": "Have you got nausea or vomiting now?",
        "answer": [ {
          "valueString": "no"
        } ]
      } ]
    }
  }, {
    "fullUrl": "urn:uuid:9e96e24b-7036-4cdf-9a84-db4c00c6cc53",
    "resource": {
      "resourceType": "Questionnaire",
      "id": "9e96e24b-7036-4cdf-9a84-db4c00c6cc53",
      "identifier": [ {
        "value": "1193164"
      } ],
      "version": "2020-10-30T09:45:23.026Z",
      "status": "active",
      "experimental": false,
      "date": "2020-10-30T09:45:23+00:00",
      "publisher": "User ID: 'HOLDENR' User name: 'Rachael Holden' User skill set: 'T3'",
      "lastReviewDate": "2020-10-30",
      "subjectType": [ "Patient" ],
      "item": [ {
        "linkId": "1193164",
        "prefix": "3000",
        "text": "Have you got nausea or vomiting now?",
        "type": "choice",
        "required": true,
        "repeats": false,
        "option": [ {
          "valueString": "yes, Selected: false"
        }, {
          "valueString": "not sure, Selected: false"
        }, {
          "valueString": "no, Selected: true"
        } ]
      } ]
    }
  }, {
    "fullUrl": "urn:uuid:d7565b69-8977-424a-a4c7-18c0272ad468",
    "resource": {
      "resourceType": "QuestionnaireResponse",
      "id": "d7565b69-8977-424a-a4c7-18c0272ad468",
      "identifier": {
        "value": "1193164"
      },
      "questionnaire": {
        "reference": "urn:uuid:14731cc0-6ae4-4e55-91ce-223915f2dfd5"
      },
      "status": "completed",
      "subject": {
        "reference": "urn:uuid:b49aea6d-464e-41e0-b558-166cb45e38e7"
      },
      "context": {
        "reference": "urn:uuid:dbc39ec3-726e-444c-9f94-05ac0fbb7592"
      },
      "authored": "2020-10-30T09:45:23+00:00",
      "item": [ {
        "linkId": "Tx3561",
        "text": "Have you been bitten or stung in any of these areas?",
        "answer": [ {
          "valueString": "no"
        } ]
      } ]
    }
  }, {
    "fullUrl": "urn:uuid:14731cc0-6ae4-4e55-91ce-223915f2dfd5",
    "resource": {
      "resourceType": "Questionnaire",
      "id": "14731cc0-6ae4-4e55-91ce-223915f2dfd5",
      "identifier": [ {
        "value": "1193164"
      } ],
      "version": "2020-10-30T09:45:23.026Z",
      "status": "active",
      "experimental": false,
      "date": "2020-10-30T09:45:23+00:00",
      "publisher": "User ID: 'HOLDENR' User name: 'Rachael Holden' User skill set: 'T3'",
      "lastReviewDate": "2020-10-30",
      "subjectType": [ "Patient" ],
      "item": [ {
        "linkId": "1193164",
        "prefix": "3900",
        "text": "Have you been bitten or stung in any of these areas?",
        "type": "choice",
        "required": true,
        "repeats": false,
        "option": [ {
          "valueString": "the eyeball, Selected: false"
        }, {
          "valueString": "inside the mouth or on the lips, Selected: false"
        }, {
          "valueString": "limb, Selected: false"
        }, {
          "valueString": "not sure, Selected: false"
        }, {
          "valueString": "no, Selected: true"
        } ]
      } ]
    }
  }, {
    "fullUrl": "urn:uuid:55ef8e94-fb99-4abb-808c-d86d02f164fc",
    "resource": {
      "resourceType": "QuestionnaireResponse",
      "id": "55ef8e94-fb99-4abb-808c-d86d02f164fc",
      "identifier": {
        "value": "1193164"
      },
      "questionnaire": {
        "reference": "urn:uuid:0c2b0ca0-1d6d-42c9-9fea-7d1e4589660e"
      },
      "status": "completed",
      "subject": {
        "reference": "urn:uuid:b49aea6d-464e-41e0-b558-166cb45e38e7"
      },
      "context": {
        "reference": "urn:uuid:dbc39ec3-726e-444c-9f94-05ac0fbb7592"
      },
      "authored": "2020-10-30T09:45:23+00:00",
      "item": [ {
        "linkId": "Tx3544",
        "text": "Is the insect or part of the insect still attached to the skin?",
        "answer": [ {
          "valueString": "no"
        } ]
      } ]
    }
  }, {
    "fullUrl": "urn:uuid:0c2b0ca0-1d6d-42c9-9fea-7d1e4589660e",
    "resource": {
      "resourceType": "Questionnaire",
      "id": "0c2b0ca0-1d6d-42c9-9fea-7d1e4589660e",
      "identifier": [ {
        "value": "1193164"
      } ],
      "version": "2020-10-30T09:45:23.026Z",
      "status": "active",
      "experimental": false,
      "date": "2020-10-30T09:45:23+00:00",
      "publisher": "User ID: 'HOLDENR' User name: 'Rachael Holden' User skill set: 'T3'",
      "lastReviewDate": "2020-10-30",
      "subjectType": [ "Patient" ],
      "item": [ {
        "linkId": "1193164",
        "prefix": "9400",
        "text": "Is the insect or part of the insect still attached to the skin?",
        "type": "choice",
        "required": true,
        "repeats": false,
        "option": [ {
          "valueString": "yes, Selected: false"
        }, {
          "valueString": "not sure, Selected: false"
        }, {
          "valueString": "no, Selected: true"
        } ]
      } ]
    }
  }, {
    "fullUrl": "urn:uuid:9ee9a713-b772-42c3-87cf-4988959bea9c",
    "resource": {
      "resourceType": "QuestionnaireResponse",
      "id": "9ee9a713-b772-42c3-87cf-4988959bea9c",
      "identifier": {
        "value": "1193164"
      },
      "questionnaire": {
        "reference": "urn:uuid:eeed0d99-af3d-4db5-bf81-c5e0f6941179"
      },
      "status": "completed",
      "subject": {
        "reference": "urn:uuid:b49aea6d-464e-41e0-b558-166cb45e38e7"
      },
      "context": {
        "reference": "urn:uuid:dbc39ec3-726e-444c-9f94-05ac0fbb7592"
      },
      "authored": "2020-10-30T09:45:23+00:00",
      "item": [ {
        "linkId": "Tx1449",
        "text": "Have you got very severe pain deep inside the affected area?",
        "answer": [ {
          "valueString": "yes"
        } ]
      } ]
    }
  }, {
    "fullUrl": "urn:uuid:eeed0d99-af3d-4db5-bf81-c5e0f6941179",
    "resource": {
      "resourceType": "Questionnaire",
      "id": "eeed0d99-af3d-4db5-bf81-c5e0f6941179",
      "identifier": [ {
        "value": "1193164"
      } ],
      "version": "2020-10-30T09:45:23.026Z",
      "status": "active",
      "experimental": false,
      "date": "2020-10-30T09:45:23+00:00",
      "publisher": "User ID: 'HOLDENR' User name: 'Rachael Holden' User skill set: 'T3'",
      "lastReviewDate": "2020-10-30",
      "subjectType": [ "Patient" ],
      "item": [ {
        "linkId": "1193164",
        "prefix": "19700",
        "text": "Have you got very severe pain deep inside the affected area?",
        "type": "choice",
        "required": true,
        "repeats": false,
        "option": [ {
          "valueString": "yes, Selected: true"
        }, {
          "valueString": "not sure, Selected: false"
        }, {
          "valueString": "no, Selected: false"
        } ]
      } ]
    }
  }, {
    "fullUrl": "urn:uuid:b1024e2d-e716-4324-a1e6-4d0f84997257",
    "resource": {
      "resourceType": "QuestionnaireResponse",
      "id": "b1024e2d-e716-4324-a1e6-4d0f84997257",
      "identifier": {
        "value": "1193164"
      },
      "questionnaire": {
        "reference": "urn:uuid:9dd76a68-0fb9-4d59-9d08-0b73d2154eab"
      },
      "status": "completed",
      "subject": {
        "reference": "urn:uuid:b49aea6d-464e-41e0-b558-166cb45e38e7"
      },
      "context": {
        "reference": "urn:uuid:dbc39ec3-726e-444c-9f94-05ac0fbb7592"
      },
      "authored": "2020-10-30T09:45:23+00:00",
      "item": [ {
        "linkId": "Tx221449",
        "text": "STRING:SDPCFullPrimaryCareassessmentandprescribingcapability",
        "answer": [ {
          "valueString": "\"PC full Primary Care assessment and prescribing capability\""
        } ]
      } ]
    }
  }, {
    "fullUrl": "urn:uuid:9dd76a68-0fb9-4d59-9d08-0b73d2154eab",
    "resource": {
      "resourceType": "Questionnaire",
      "id": "9dd76a68-0fb9-4d59-9d08-0b73d2154eab",
      "identifier": [ {
        "value": "1193164"
      } ],
      "version": "2020-10-30T09:45:23.026Z",
      "status": "active",
      "experimental": false,
      "date": "2020-10-30T09:45:23+00:00",
      "publisher": "User ID: 'HOLDENR' User name: 'Rachael Holden' User skill set: 'T3'",
      "lastReviewDate": "2020-10-30",
      "subjectType": [ "Patient" ],
      "item": [ {
        "linkId": "1193164",
        "prefix": "19900",
        "text": "STRING:SDPCFullPrimaryCareassessmentandprescribingcapability",
        "type": "choice",
        "required": true,
        "repeats": false,
        "option": [ {
          "valueString": "\"PC full Primary Care assessment and prescribing capability\", Selected: true"
        } ]
      } ]
    }
  }, {
    "fullUrl": "urn:uuid:f6ad8e8e-cc73-4a32-8311-a331ea0c2c1a",
    "resource": {
      "resourceType": "QuestionnaireResponse",
      "id": "f6ad8e8e-cc73-4a32-8311-a331ea0c2c1a",
      "identifier": {
        "value": "1193164"
      },
      "questionnaire": {
        "reference": "urn:uuid:36584079-8b41-49ba-8461-40687a56c129"
      },
      "status": "completed",
      "subject": {
        "reference": "urn:uuid:b49aea6d-464e-41e0-b558-166cb45e38e7"
      },
      "context": {
        "reference": "urn:uuid:dbc39ec3-726e-444c-9f94-05ac0fbb7592"
      },
      "authored": "2020-10-30T09:45:23+00:00"
    }
  }, {
    "fullUrl": "urn:uuid:36584079-8b41-49ba-8461-40687a56c129",
    "resource": {
      "resourceType": "Questionnaire",
      "id": "36584079-8b41-49ba-8461-40687a56c129",
      "identifier": [ {
        "value": "1193164"
      } ],
      "version": "2020-10-30T09:45:23.026Z",
      "status": "active",
      "experimental": false,
      "date": "2020-10-30T09:45:23+00:00",
      "publisher": "User ID: 'HOLDENR' User name: 'Rachael Holden' User skill set: 'T3'",
      "lastReviewDate": "2020-10-30",
      "subjectType": [ "Patient" ]
    }
  }, {
    "fullUrl": "urn:uuid:0e3b5418-cc44-41a3-92c6-40ff03dd39e1",
    "resource": {
      "resourceType": "QuestionnaireResponse",
      "id": "0e3b5418-cc44-41a3-92c6-40ff03dd39e1",
      "identifier": {
        "value": "1193164"
      },
      "questionnaire": {
        "reference": "urn:uuid:8ecf6441-3b35-4b21-b13a-19e90d94dd29"
      },
      "status": "completed",
      "subject": {
        "reference": "urn:uuid:b49aea6d-464e-41e0-b558-166cb45e38e7"
      },
      "context": {
        "reference": "urn:uuid:dbc39ec3-726e-444c-9f94-05ac0fbb7592"
      },
      "authored": "2020-10-30T09:45:23+00:00"
    }
  }, {
    "fullUrl": "urn:uuid:8ecf6441-3b35-4b21-b13a-19e90d94dd29",
    "resource": {
      "resourceType": "Questionnaire",
      "id": "8ecf6441-3b35-4b21-b13a-19e90d94dd29",
      "identifier": [ {
        "value": "1193164"
      } ],
      "version": "2020-10-30T09:45:23.026Z",
      "status": "active",
      "experimental": false,
      "date": "2020-10-30T09:45:23+00:00",
      "publisher": "User ID: 'HOLDENR' User name: 'Rachael Holden' User skill set: 'T3'",
      "lastReviewDate": "2020-10-30",
      "subjectType": [ "Patient" ]
    }
  }, {
    "fullUrl": "urn:uuid:f13e4430-31f9-4886-8cf7-8a09aa2d77f4",
    "resource": {
      "resourceType": "QuestionnaireResponse",
      "id": "f13e4430-31f9-4886-8cf7-8a09aa2d77f4",
      "identifier": {
        "value": "1193164"
      },
      "questionnaire": {
        "reference": "urn:uuid:a39e489b-a438-4564-9ae7-ee00b13236fd"
      },
      "status": "completed",
      "subject": {
        "reference": "urn:uuid:b49aea6d-464e-41e0-b558-166cb45e38e7"
      },
      "context": {
        "reference": "urn:uuid:dbc39ec3-726e-444c-9f94-05ac0fbb7592"
      },
      "authored": "2020-10-30T09:45:23+00:00"
    }
  }, {
    "fullUrl": "urn:uuid:a39e489b-a438-4564-9ae7-ee00b13236fd",
    "resource": {
      "resourceType": "Questionnaire",
      "id": "a39e489b-a438-4564-9ae7-ee00b13236fd",
      "identifier": [ {
        "value": "1193164"
      } ],
      "version": "2020-10-30T09:45:23.026Z",
      "status": "active",
      "experimental": false,
      "date": "2020-10-30T09:45:23+00:00",
      "publisher": "User ID: 'HOLDENR' User name: 'Rachael Holden' User skill set: 'T3'",
      "lastReviewDate": "2020-10-30",
      "subjectType": [ "Patient" ]
    }
  }, {
    "fullUrl": "urn:uuid:4f913bca-8710-4c42-9fc0-123df371d3b8",
    "resource": {
      "resourceType": "Observation",
      "id": "4f913bca-8710-4c42-9fc0-123df371d3b8",
      "status": "final",
      "code": {
        "coding": [ {
          "system": "http://snomed.info/sct",
          "code": "33962009",
          "display": "Presenting complaint"
        } ]
      },
      "subject": {
        "reference": "urn:uuid:b49aea6d-464e-41e0-b558-166cb45e38e7"
      },
      "context": {
        "reference": "urn:uuid:dbc39ec3-726e-444c-9f94-05ac0fbb7592"
      }
    }
  }, {
    "fullUrl": "urn:uuid:630cbfcc-91bf-46f2-92d0-46be0596ef72",
    "resource": {
      "resourceType": "PractitionerRole",
      "id": "630cbfcc-91bf-46f2-92d0-46be0596ef72",
      "practitioner": {
        "reference": "urn:uuid:84c26a89-b633-483c-b3ab-4b8fd73f641f"
      },
      "organization": {
        "reference": "urn:uuid:90faf0cc-945a-4674-96a5-2c690980817b"
      },
      "code": [ {
        "coding": [ {
          "system": "2.16.840.1.113883.2.1.3.2.4.17.339",
          "code": "DOCTOR",
          "display": "Doctor"
        } ]
      } ]
    }
  }, {
    "fullUrl": "urn:uuid:90faf0cc-945a-4674-96a5-2c690980817b",
    "resource": {
      "resourceType": "Organization",
      "id": "90faf0cc-945a-4674-96a5-2c690980817b",
      "identifier": [ {
        "value": "RYA06"
      } ],
      "name": "WMAS - Navigation Point Call Centre (West Midlands Single Instance)"
    }
  }, {
    "fullUrl": "urn:uuid:be632098-566e-45fa-9451-75a30a70ae23",
    "resource": {
      "resourceType": "PractitionerRole",
      "id": "be632098-566e-45fa-9451-75a30a70ae23",
      "practitioner": {
        "reference": "urn:uuid:615a989f-f497-43ba-84ae-5b60a6e81cf3"
      },
      "organization": {
        "reference": "urn:uuid:a6b4f40d-3f8b-461b-94a5-d74dbe02a340"
      },
      "code": [ {
        "coding": [ {
          "system": "2.16.840.1.113883.2.1.3.2.4.17.196",
          "code": "R0010",
          "display": "Medical Director"
        } ]
      } ]
    }
  }, {
    "fullUrl": "urn:uuid:a6b4f40d-3f8b-461b-94a5-d74dbe02a340",
    "resource": {
      "resourceType": "Organization",
      "id": "a6b4f40d-3f8b-461b-94a5-d74dbe02a340",
      "identifier": [ {
        "value": "RYA06"
      } ],
      "name": "West Midlands Single Instance"
    }
  }, {
    "fullUrl": "urn:uuid:f302476c-b20a-4031-b3a3-11a840046385",
    "resource": {
      "resourceType": "RelatedPerson",
      "id": "f302476c-b20a-4031-b3a3-11a840046385",
      "patient": {
        "reference": "urn:uuid:b49aea6d-464e-41e0-b558-166cb45e38e7"
      },
      "relationship": {
        "coding": [ {
          "system": "http://hl7.org/fhir/v2/0131",
          "code": "C",
          "display": "Emergency Contact"
        } ]
      },
      "telecom": [ {
        "system": "phone",
        "value": "tel:01204428013"
      } ]
    }
  }, {
    "fullUrl": "urn:uuid:c5b44f31-d484-4e30-befb-0e998ab89a4c",
    "resource": {
      "resourceType": "Device",
      "id": "c5b44f31-d484-4e30-befb-0e998ab89a4c",
      "model": "111 Adaptor",
      "version": "1.0.1"
    }
  }, {
    "fullUrl": "urn:uuid:8f38550c-958a-4d74-b713-decefd2fdf01",
    "resource": {
      "resourceType": "List",
      "id": "8f38550c-958a-4d74-b713-decefd2fdf01",
      "status": "current",
      "mode": "working",
      "title": "111 Report List",
      "code": {
        "coding": [ {
          "system": "http://snomed.info/sct",
          "code": "225390008",
          "display": "Triage"
        } ]
      },
      "subject": {
        "reference": "urn:uuid:b49aea6d-464e-41e0-b558-166cb45e38e7"
      },
      "encounter": {
        "reference": "urn:uuid:dbc39ec3-726e-444c-9f94-05ac0fbb7592"
      },
      "date": "2025-10-30T09:45:22+00:00",
      "source": {
        "reference": "urn:uuid:c5b44f31-d484-4e30-befb-0e998ab89a4c"
      },
      "orderedBy": {
        "coding": [ {
          "system": "http://hl7.org/fhir/list-order",
          "code": "event-date",
          "display": "Sorted by Event Date"
        } ]
      },
      "entry": [ {
        "item": {
          "reference": "urn:uuid:9e97b2a0-9677-4253-b0f8-53a6f54c2315"
        }
      }, {
        "item": {
          "reference": "urn:uuid:90faf0cc-945a-4674-96a5-2c690980817b"
        }
      }, {
        "item": {
          "reference": "urn:uuid:4f913bca-8710-4c42-9fc0-123df371d3b8"
        }
      }, {
        "item": {
          "reference": "urn:uuid:4fc5c9f7-3319-4a78-9f03-0f817eb10f86"
        }
      }, {
        "item": {
          "reference": "urn:uuid:9ac1fcd3-d9ee-43cf-831e-732c04024e5c"
        }
      }, {
        "item": {
          "reference": "urn:uuid:84c26a89-b633-483c-b3ab-4b8fd73f641f"
        }
      }, {
        "item": {
          "reference": "urn:uuid:a8658a44-c6c7-45b7-9387-654060821413"
        }
      }, {
        "item": {
          "reference": "urn:uuid:a6b4f40d-3f8b-461b-94a5-d74dbe02a340"
        }
      }, {
        "item": {
          "reference": "urn:uuid:c7852731-b1a2-452c-8584-64e5306cd709"
        }
      }, {
        "item": {
          "reference": "urn:uuid:f302476c-b20a-4031-b3a3-11a840046385"
        }
      }, {
        "item": {
          "reference": "urn:uuid:615a989f-f497-43ba-84ae-5b60a6e81cf3"
        }
      }, {
        "item": {
          "reference": "urn:uuid:51a85477-ca5b-4761-baab-93d9f123736e"
        }
      }, {
        "item": {
          "reference": "urn:uuid:a7a2b076-ecde-4a84-acf5-165a29847f8b"
        }
      }, {
        "item": {
          "reference": "urn:uuid:f6ad8e8e-cc73-4a32-8311-a331ea0c2c1a"
        }
      }, {
        "item": {
          "reference": "urn:uuid:ae6df009-79cd-430f-809c-533640e036f5"
        }
      }, {
        "item": {
          "reference": "urn:uuid:f17f6560-a841-402f-8d5d-b6ba02dcad12"
        }
      }, {
        "item": {
          "reference": "urn:uuid:f6483fe2-a727-4147-b4e2-bcea9ccf2c3d"
        }
      }, {
        "item": {
          "reference": "urn:uuid:8ecf6441-3b35-4b21-b13a-19e90d94dd29"
        }
      }, {
        "item": {
          "reference": "urn:uuid:0e3b5418-cc44-41a3-92c6-40ff03dd39e1"
        }
      }, {
        "item": {
          "reference": "urn:uuid:975f9579-774c-4ac1-aba3-061f479634ef"
        }
      }, {
        "item": {
          "reference": "urn:uuid:f5e3267b-f096-4564-9d81-9eeb60d58500"
        }
      }, {
        "item": {
          "reference": "urn:uuid:5529f2b1-07f2-470c-80ef-9aff692ddbb1"
        }
      }, {
        "item": {
          "reference": "urn:uuid:094ec21f-3f2f-452d-ab9b-23d11cacbb76"
        }
      }, {
        "item": {
          "reference": "urn:uuid:0c2b0ca0-1d6d-42c9-9fea-7d1e4589660e"
        }
      }, {
        "item": {
          "reference": "urn:uuid:eeed0d99-af3d-4db5-bf81-c5e0f6941179"
        }
      }, {
        "item": {
          "reference": "urn:uuid:43efb29f-0c47-4f07-a646-c6d993e9d390"
        }
      }, {
        "item": {
          "reference": "urn:uuid:d7565b69-8977-424a-a4c7-18c0272ad468"
        }
      }, {
        "item": {
          "reference": "urn:uuid:6bbac0ec-8513-433d-afad-1ba413af936c"
        }
      }, {
        "item": {
          "reference": "urn:uuid:68094e2e-18dd-47ba-b37d-315d8a3c4396"
        }
      }, {
        "item": {
          "reference": "urn:uuid:66f3f32f-070e-4cdc-bc65-e7bd0c2d4984"
        }
      }, {
        "item": {
          "reference": "urn:uuid:11073a7c-bde8-432c-8ceb-011c640ca586"
        }
      }, {
        "item": {
          "reference": "urn:uuid:b1024e2d-e716-4324-a1e6-4d0f84997257"
        }
      }, {
        "item": {
          "reference": "urn:uuid:f6429bde-68cd-423e-98a9-8be5cbf55e32"
        }
      }, {
        "item": {
          "reference": "urn:uuid:3f95704b-416d-4aa3-a24b-44b8945f006b"
        }
      }, {
        "item": {
          "reference": "urn:uuid:9e96e24b-7036-4cdf-9a84-db4c00c6cc53"
        }
      }, {
        "item": {
          "reference": "urn:uuid:9dd76a68-0fb9-4d59-9d08-0b73d2154eab"
        }
      }, {
        "item": {
          "reference": "urn:uuid:55ef8e94-fb99-4abb-808c-d86d02f164fc"
        }
      }, {
        "item": {
          "reference": "urn:uuid:271b873c-5397-4027-b1db-e9ca1553b8de"
        }
      }, {
        "item": {
          "reference": "urn:uuid:f88bb7b2-25ad-4b70-b35f-483867549772"
        }
      }, {
        "item": {
          "reference": "urn:uuid:6e4d1d54-6dd9-4847-a639-073b207344a7"
        }
      }, {
        "item": {
          "reference": "urn:uuid:afb2cb97-e8de-4cbf-b511-8aac52268582"
        }
      }, {
        "item": {
          "reference": "urn:uuid:f13e4430-31f9-4886-8cf7-8a09aa2d77f4"
        }
      }, {
        "item": {
          "reference": "urn:uuid:36584079-8b41-49ba-8461-40687a56c129"
        }
      }, {
        "item": {
          "reference": "urn:uuid:a39e489b-a438-4564-9ae7-ee00b13236fd"
        }
      }, {
        "item": {
          "reference": "urn:uuid:ae9bd9c5-8de1-4149-8f1c-ea61f5cea718"
        }
      }, {
        "item": {
          "reference": "urn:uuid:a2b1a8d8-713a-42bd-891f-7d3020462c83"
        }
      }, {
        "item": {
          "reference": "urn:uuid:9d86075d-46fb-4ff5-9b03-c2e829bf757b"
        }
      }, {
        "item": {
          "reference": "urn:uuid:0b13e15c-f642-4217-a9f7-edaf15841554"
        }
      }, {
        "item": {
          "reference": "urn:uuid:9ee9a713-b772-42c3-87cf-4988959bea9c"
        }
      }, {
        "item": {
          "reference": "urn:uuid:5c243273-003c-41e9-a197-8f5517588f4e"
        }
      }, {
        "item": {
          "reference": "urn:uuid:51ac3b80-ce6a-4b7c-893f-c932fd1b028c"
        }
      }, {
        "item": {
          "reference": "urn:uuid:c61cac7d-1171-4718-9594-afdb9a917a90"
        }
      }, {
        "item": {
          "reference": "urn:uuid:14731cc0-6ae4-4e55-91ce-223915f2dfd5"
        }
      }, {
        "item": {
          "reference": "urn:uuid:84bab7f8-f206-49a6-9140-6ab968f807cd"
        }
      }, {
        "item": {
          "reference": "urn:uuid:9be3d72c-9f23-4007-9118-f5bcbddfd1cc"
        }
      }, {
        "item": {
          "reference": "urn:uuid:fa5aabef-67c6-43cc-84a0-4796bbc4ade9"
        }
      } ]
    }
  } ]
}