{
    "resourceType": "Bundle",
    "identifier": {
        "type": {
            "text": "ClinicalDocument VersionNumber"
        },
        "value": "1"
    },
    "type": "message",
    "entry": [ {
        "fullUrl": "urn:uuid:2B77B3F5-3016-4A6D-821F-152CE420E58D",
        "resource": {
            "resourceType": "MessageHeader",
            "id": "2B77B3F5-3016-4A6D-821F-152CE420E58D",
            "event": {
                "system": "https://fhir.nhs.uk/STU3/CodeSystem/EventType-1",
                "code": "referral-1",
                "display": "Referral"
            },
            "destination": [ {
                "endpoint": "urn:nhs-uk:addressing:ods:EM396:DOSServiceID:26428"
            } ],
            "timestamp": "2025-10-30T09:45:22.000+00:00",
            "source": {
                "name": "NHS 111 Adaptor",
                "endpoint": "http://localhost:8080/report"
            },
            "reason": {
                "coding": [ {
                    "system": "urn:nhs-itk:ns:201005:interaction",
                    "code": "urn:nhs-itk:interaction:primaryNHS111RepeatCallerDocumentSet-v1-0"
                } ]
            }
        }
    }, {
        "fullUrl": "urn:uuid:43905d6a-a7b0-44f3-b23f-36769e808f79",
        "resource": {
            "resourceType": "Encounter",
            "id": "43905d6a-a7b0-44f3-b23f-36769e808f79",
            "identifier": [ {
                "system": "2.16.840.1.113883.2.1.3.2.4.18.34",
                "value": "D47E4F49-D4B8-4913-85B9-64AF5523B268"
            }, {
                "system": "2.16.840.1.113883.2.1.3.2.4.18.35",
                "value": "1193164"
            } ],
            "status": "finished",
            "type": [ {
                "text": "111 Encounter Referral"
            } ],
            "subject": {
                "reference": "urn:uuid:f51f6858-7f8a-4ced-a475-8bbfc5272ea9"
            },
            "participant": [ {
                "type": [ {
                    "coding": [ {
                        "system": "http://hl7.org/fhir/ValueSet/encounter-participant-type",
                        "code": "PPRF",
                        "display": "Author"
                    } ]
                } ],
                "individual": {
                    "reference": "urn:uuid:f7669727-74e1-4904-a81e-c89b6e0e6728"
                }
            }, {
                "type": [ {
                    "coding": [ {
                        "system": "http://hl7.org/fhir/ValueSet/encounter-participant-type",
                        "code": "ATND",
                        "display": "Responsible Party"
                    } ]
                } ],
                "individual": {
                    "reference": "urn:uuid:983ed73c-11e2-4826-bff9-7b895eaa4b52"
                }
            } ],
            "period": {
                "start": "2025-10-30T09:45:22+00:00"
            },
            "location": [ {
                "location": {
                    "reference": "urn:uuid:4303b283-b31d-47c9-94b4-13a65dcef9cf"
                },
                "status": "active"
            }, {
                "location": {
                    "reference": "urn:uuid:75c11763-e238-4184-9c17-41d234ab13c1"
                },
                "status": "completed"
            } ],
            "serviceProvider": {
                "reference": "urn:uuid:860c838b-f2e0-4e12-a4af-cbb444e5d697"
            }
        }
    }, {
        "fullUrl": "urn:uuid:860c838b-f2e0-4e12-a4af-cbb444e5d697",
        "resource": {
            "resourceType": "Organization",
            "id": "860c838b-f2e0-4e12-a4af-cbb444e5d697",
            "active": true,
            "type": [ {
                "text": "CST"
            } ],
            "name": "West Midlands Single Instance"
        }
    }, {
        "fullUrl": "urn:uuid:f7669727-74e1-4904-a81e-c89b6e0e6728",
        "resource": {
            "resourceType": "Practitioner",
            "id": "f7669727-74e1-4904-a81e-c89b6e0e6728",
            "active": true,
            "name": [ {
                "use": "official"
            } ]
        }
    }, {
        "fullUrl": "urn:uuid:983ed73c-11e2-4826-bff9-7b895eaa4b52",
        "resource": {
            "resourceType": "Practitioner",
            "id": "983ed73c-11e2-4826-bff9-7b895eaa4b52",
            "active": true,
            "name": [ {
                "use": "official",
                "family": "Walker",
                "given": [ "Alison" ]
            } ]
        }
    }, {
        "fullUrl": "urn:uuid:4303b283-b31d-47c9-94b4-13a65dcef9cf",
        "resource": {
            "resourceType": "Location",
            "id": "4303b283-b31d-47c9-94b4-13a65dcef9cf",
            "managingOrganization": {
                "reference": "urn:uuid:e08afc5f-a033-4b97-a3bf-2bceea4016dd"
            }
        }
    }, {
        "fullUrl": "urn:uuid:e08afc5f-a033-4b97-a3bf-2bceea4016dd",
        "resource": {
            "resourceType": "Organization",
            "id": "e08afc5f-a033-4b97-a3bf-2bceea4016dd",
            "identifier": [ {
                "value": "F81718"
            } ],
            "type": [ {
                "text": "GP Practice"
            } ],
            "name": "LYDIA HOUSE PRACTICE"
        }
    }, {
        "fullUrl": "urn:uuid:75c11763-e238-4184-9c17-41d234ab13c1",
        "resource": {
            "resourceType": "Location",
            "id": "75c11763-e238-4184-9c17-41d234ab13c1",
            "name": "Incident Location",
            "address": {
                "type": "physical",
                "line": [ "Whitchurch Hospital", "Claypit Street", "Whitchurch", "Shropshire" ],
                "postalCode": "SY13 1NT"
            }
        }
    }, {
        "fullUrl": "urn:uuid:f51f6858-7f8a-4ced-a475-8bbfc5272ea9",
        "resource": {
            "resourceType": "Patient",
            "id": "f51f6858-7f8a-4ced-a475-8bbfc5272ea9",
            "identifier": [ {
                "extension": [ {
                    "url": "https://fhir.hl7.org.uk/STU3/StructureDefinition/Extension-CareConnect-NHSNumberVerificationStatus-1",
                    "valueCodeableConcept": {
                        "coding": [ {
                            "system": "https://fhir.hl7.org.uk/STU3/StructureDefinition/Extension-CareConnect-NHSNumberVerificationStatus-1",
                            "code": "01"
                        } ]
                    }
                } ],
                "system": "https://fhir.nhs.uk/Id/nhs-number",
                "value": "9990238359"
            } ],
            "active": true,
            "name": [ {
                "use": "official",
                "family": "Xxtestpatientdzadn",
                "given": [ "Scrdonotuse" ]
            } ],
            "telecom": [ {
                "system": "phone",
                "value": "tel:01204428013",
                "use": "home"
            }, {
                "system": "phone",
                "value": "tel:01204428013"
            } ],
            "gender": "female",
            "birthDate": "1965-02-17",
            "address": [ {
                "use": "home",
                "line": [ "Test Address", "Captain Lees Road", "Westhoughton", "Bolton", "Greater Manchester" ],
                "postalCode": "BL5 3UB"
            }, {
                "type": "physical",
                "line": [ "Whitchurch Hospital", "Claypit Street", "Whitchurch", "Shropshire" ],
                "postalCode": "SY13 1NT"
            } ],
            "generalPractitioner": [ {
                "reference": "urn:uuid:913e62cd-f47b-4d31-8221-a94f52745bcd"
            } ]
        }
    }, {
        "fullUrl": "urn:uuid:913e62cd-f47b-4d31-8221-a94f52745bcd",
        "resource": {
            "resourceType": "Organization",
            "id": "913e62cd-f47b-4d31-8221-a94f52745bcd",
            "identifier": [ {
                "value": "F81718"
            } ],
            "type": [ {
                "text": "GP Practice"
            } ],
            "name": "LYDIA HOUSE PRACTICE"
        }
    }, {
        "fullUrl": "urn:uuid:3947f180-3021-4441-abd6-d3193cb818a6",
        "resource": {
            "resourceType": "HealthcareService",
            "id": "3947f180-3021-4441-abd6-d3193cb818a6",
            "active": true,
            "providedBy": {
                "reference": "urn:uuid:33bd9c34-c20f-4cde-8506-30bab473b197"
            },
            "location": [ {
                "reference": "urn:uuid:18a14843-0e15-4470-9994-6d67bd75b997"
            } ],
            "name": "Repeat Caller - Live (v2)"
        }
    }, {
        "fullUrl": "urn:uuid:18a14843-0e15-4470-9994-6d67bd75b997",
        "resource": {
            "resourceType": "Location",
            "id": "18a14843-0e15-4470-9994-6d67bd75b997",
            "managingOrganization": {
                "reference": "urn:uuid:90f25028-07c0-4a83-a286-a349038463b6"
            }
        }
    }, {
        "fullUrl": "urn:uuid:33bd9c34-c20f-4cde-8506-30bab473b197",
        "resource": {
            "resourceType": "Organization",
            "id": "33bd9c34-c20f-4cde-8506-30bab473b197",
            "identifier": [ {
                "value": "RHY25"
            } ],
            "type": [ {
                "coding": [ {
                    "code": "PRCP",
                    "display": "Repeat Caller - Live (v2)"
                } ]
            } ],
            "name": "Repeat Caller - Live (v2)"
        }
    }, {
        "fullUrl": "urn:uuid:f5baa29a-186e-485f-9587-7b1a27f882f9",
        "resource": {
            "resourceType": "ReferralRequest",
            "id": "f5baa29a-186e-485f-9587-7b1a27f882f9",
            "status": "active",
            "intent": "plan",
            "priority": "routine",
            "subject": {
                "reference": "urn:uuid:f51f6858-7f8a-4ced-a475-8bbfc5272ea9"
            },
            "context": {
                "reference": "urn:uuid:43905d6a-a7b0-44f3-b23f-36769e808f79"
            },
            "occurrencePeriod": {
                "start": "2021-09-02T14:26:24+00:00",
                "end": "2021-09-02T15:26:24+00:00"
            },
            "authoredOn": "2020-10-30T09:44:13+00:00",
            "requester": {
                "agent": {
                    "reference": "urn:uuid:8970f844-83e0-4d6f-aa6f-ca6262ba2b93"
                },
                "onBehalfOf": {
                    "reference": "urn:uuid:860c838b-f2e0-4e12-a4af-cbb444e5d697"
                }
            },
            "recipient": [ {
                "reference": "urn:uuid:3947f180-3021-4441-abd6-d3193cb818a6"
            } ],
            "reasonReference": [ {
                "reference": "urn:uuid:7e266841-6609-46ff-bd7f-0ead589988f8"
            } ],
            "supportingInfo": [ {
                "reference": "urn:uuid:273b1f63-6796-4978-966a-6e1ffacf57a6"
            } ]
        }
    }, {
        "fullUrl": "urn:uuid:273b1f63-6796-4978-966a-6e1ffacf57a6",
        "resource": {
            "resourceType": "ProcedureRequest",
            "id": "273b1f63-6796-4978-966a-6e1ffacf57a6",
            "status": "active",
            "intent": "plan",
            "priority": "routine",
            "doNotPerform": false,
            "code": {
                "coding": [ {
                    "system": "2.16.840.1.113883.2.1.3.2.4.17.325",
                    "code": "Dx05",
                    "display": "To contact a local service within 2 hours"
                } ]
            },
            "subject": {
                "reference": "urn:uuid:f51f6858-7f8a-4ced-a475-8bbfc5272ea9"
            },
            "occurrencePeriod": {
                "start": "2021-09-02T14:26:24+00:00",
                "end": "2021-09-02T15:26:24+00:00"
            },
            "reasonReference": [ {
                "reference": "urn:uuid:7e266841-6609-46ff-bd7f-0ead589988f8"
            } ]
        }
    }, {
        "fullUrl": "urn:uuid:ce20203e-1776-45af-b344-95caa0b1227f",
        "resource": {
            "resourceType": "Composition",
            "id": "ce20203e-1776-45af-b344-95caa0b1227f",
            "identifier": {
                "use": "usual",
                "value": "499BEC45-8F01-498C-A61F-B8AC124ED50E"
            },
            "status": "final",
            "type": {
                "coding": [ {
                    "system": "http://snomed.info/sct",
                    "code": "371531000",
                    "display": "Report of clinical encounter (record artifact)"
                } ]
            },
            "subject": {
                "reference": "urn:uuid:f51f6858-7f8a-4ced-a475-8bbfc5272ea9"
            },
            "encounter": {
                "reference": "urn:uuid:43905d6a-a7b0-44f3-b23f-36769e808f79"
            },
            "date": "2021-09-02T14:26:24+00:00",
            "author": [ {
                "reference": "urn:uuid:f7669727-74e1-4904-a81e-c89b6e0e6728"
            } ],
            "title": "111 Report",
            "confidentiality": "N",
            "section": [ {
                "section": [ {
                    "title": "Patient's Reported Condition",
                    "text": {
                        "status": "generated",
                        "div": "<div xmlns=\"http://www.w3.org/1999/xhtml\">&lt;xml-fragment mediaType=&quot;text/x-hl7-text+xml&quot;&gt;\n                                                    &lt;urn:br xmlns:urn=&quot;urn:hl7-org:v3&quot;/&gt;WHITCHURCH MIU TEST&lt;/xml-fragment&gt;</div>"
                    }
                }, {
                    "title": "Pathways Disposition",
                    "text": {
                        "status": "generated",
                        "div": "<div xmlns=\"http://www.w3.org/1999/xhtml\">&lt;xml-fragment mediaType=&quot;text/x-hl7-text+xml&quot;&gt;\n                                                    &lt;urn:br xmlns:urn=&quot;urn:hl7-org:v3&quot;/&gt;\n                                                    &lt;urn:br xmlns:urn=&quot;urn:hl7-org:v3&quot;/&gt;\n                                                    &lt;urn:br xmlns:urn=&quot;urn:hl7-org:v3&quot;/&gt;To contact a local service within 2 hours (Dx05)\n\n                                                    Selected service: DO NOT BOOK APPOINTMENT - TESTING Whitchurch Minor Injury Unit&lt;/xml-fragment&gt;</div>"
                    }
                }, {
                    "title": "Consultation Summary",
                    "text": {
                        "status": "generated",
                        "div": "<div xmlns=\"http://www.w3.org/1999/xhtml\">&lt;xml-fragment mediaType=&quot;text/x-hl7-text+xml&quot;&gt;\n                                                    &lt;urn:br xmlns:urn=&quot;urn:hl7-org:v3&quot;/&gt;\n                                                    &lt;urn:br xmlns:urn=&quot;urn:hl7-org:v3&quot;/&gt;\n                                                    &lt;urn:br xmlns:urn=&quot;urn:hl7-org:v3&quot;/&gt;\n                                                    &lt;urn:br xmlns:urn=&quot;urn:hl7-org:v3&quot;/&gt;\n                                                    &lt;urn:br xmlns:urn=&quot;urn:hl7-org:v3&quot;/&gt;InjuryBite or stingInsect or spider biteSting/bite more than 6 hours agoVery severe, deep limb pain&lt;/xml-fragment&gt;</div>"
                    }
                }, {
                    "title": "Pathways Assessment",
                    "text": {
                        "status": "generated",
                        "div": "<div xmlns=\"http://www.w3.org/1999/xhtml\">&lt;xml-fragment mediaType=&quot;text/x-hl7-text+xml&quot;&gt;\n                                                    &lt;urn:br xmlns:urn=&quot;urn:hl7-org:v3&quot;/&gt;\n                                                    &lt;urn:br xmlns:urn=&quot;urn:hl7-org:v3&quot;/&gt;\n                                                    &lt;urn:br xmlns:urn=&quot;urn:hl7-org:v3&quot;/&gt;\n                                                    &lt;urn:br xmlns:urn=&quot;urn:hl7-org:v3&quot;/&gt;\n                                                    &lt;urn:br xmlns:urn=&quot;urn:hl7-org:v3&quot;/&gt;\n                                                    &lt;urn:br xmlns:urn=&quot;urn:hl7-org:v3&quot;/&gt;\n                                                    &lt;urn:br xmlns:urn=&quot;urn:hl7-org:v3&quot;/&gt;\n                                                    &lt;urn:br xmlns:urn=&quot;urn:hl7-org:v3&quot;/&gt;\n                                                    &lt;urn:br xmlns:urn=&quot;urn:hl7-org:v3&quot;/&gt;\n                                                    &lt;urn:br xmlns:urn=&quot;urn:hl7-org:v3&quot;/&gt;\n                                                    &lt;urn:br xmlns:urn=&quot;urn:hl7-org:v3&quot;/&gt;\n                                                    &lt;urn:br xmlns:urn=&quot;urn:hl7-org:v3&quot;/&gt;\n                                                    &lt;urn:br xmlns:urn=&quot;urn:hl7-org:v3&quot;/&gt;\n                                                    &lt;urn:br xmlns:urn=&quot;urn:hl7-org:v3&quot;/&gt;\n                                                    &lt;urn:br xmlns:urn=&quot;urn:hl7-org:v3&quot;/&gt;\n                                                    &lt;urn:br xmlns:urn=&quot;urn:hl7-org:v3&quot;/&gt;\n                                                    &lt;urn:br xmlns:urn=&quot;urn:hl7-org:v3&quot;/&gt;\n                                                    &lt;urn:br xmlns:urn=&quot;urn:hl7-org:v3&quot;/&gt;An injury or health problem was the reason for the contact.Heavy bleeding had not occurred in the previous 2 hours.An injury or symptom relating to an injury was the main problem.User Comments: TESTThere was a minor injury (a bite or sting).User Comments: TESTPathway selected - Bites and StingsThe bite or sting was caused by an insect or spider.User Comments: TESTThe sting/bite had not occurred within the previous 6 hours.The individual had been stung less than 10 timesThe individual was not experiencing nausea and/or vomiting.The sting did not involve the eyes, mouth or limb.There was no insect/insect part remaining attached to the skinThere was very severe, deep pain.Instructions given were: The individual needs to contact a local service within 2 hours.Directory of Services referral: DO NOT BOOK APPOINTMENT - TESTING Whitchurch Minor Injury UnitAdvice given:\n                                                    Worsening\n                                                &lt;/xml-fragment&gt;</div>"
                    }
                }, {
                    "title": "Advice Given",
                    "text": {
                        "status": "generated",
                        "div": "<div xmlns=\"http://www.w3.org/1999/xhtml\">&lt;xml-fragment mediaType=&quot;text/x-hl7-text+xml&quot;&gt;\n                                                    &lt;urn:br xmlns:urn=&quot;urn:hl7-org:v3&quot;/&gt;\n                                                    &lt;urn:br xmlns:urn=&quot;urn:hl7-org:v3&quot;/&gt;If there are any new symptoms, or if the condition gets worse, changes or you have any other concerns, call us back.&lt;/xml-fragment&gt;</div>"
                    }
                }, {
                    "title": "Special Patient Notes",
                    "text": {
                        "status": "generated",
                        "div": "<div xmlns=\"http://www.w3.org/1999/xhtml\">&lt;xml-fragment mediaType=&quot;text/x-hl7-text+xml&quot;&gt;\n                                                    &lt;urn:content styleCode=&quot;bold&quot; xmlns:urn=&quot;urn:hl7-org:v3&quot;&gt;Note:&lt;/urn:content&gt;\n                                                    &lt;urn:br xmlns:urn=&quot;urn:hl7-org:v3&quot;/&gt;\n                                                    &lt;urn:content xmlns:urn=&quot;urn:hl7-org:v3&quot;&gt;TEST NOTE West Midlands Single Instance&lt;/urn:content&gt;\n                                                    &lt;urn:br xmlns:urn=&quot;urn:hl7-org:v3&quot;/&gt;\n                                                    &lt;urn:br xmlns:urn=&quot;urn:hl7-org:v3&quot;/&gt;Special Notes from an external system were flagged as being present for this patient.&lt;/xml-fragment&gt;</div>"
                    }
                } ]
            }, {
                "title": "ReferralRequest",
                "entry": [ {
                    "reference": "urn:uuid:f5baa29a-186e-485f-9587-7b1a27f882f9"
                } ]
            }, {
                "title": "QuestionnaireResponse",
                "entry": [ {
                    "reference": "urn:uuid:0c3b7f31-6879-4432-aa56-b0977bd865ad"
                } ]
            }, {
                "title": "QuestionnaireResponse",
                "entry": [ {
                    "reference": "urn:uuid:833e6f37-53ed-497f-a85e-effa61a909c0"
                } ]
            }, {
                "title": "QuestionnaireResponse",
                "entry": [ {
                    "reference": "urn:uuid:2437b930-4535-45c8-b5a7-27e28de9ca7b"
                } ]
            }, {
                "title": "QuestionnaireResponse",
                "entry": [ {
                    "reference": "urn:uuid:048b865d-a3ec-4eac-96c1-9eec9fdfb4b6"
                } ]
            }, {
                "title": "QuestionnaireResponse",
                "entry": [ {
                    "reference": "urn:uuid:849e7670-eeea-4646-8e3e-ee6f507826d6"
                } ]
            }, {
                "title": "QuestionnaireResponse",
                "entry": [ {
                    "reference": "urn:uuid:14105fa7-81a4-4cd8-b685-4335aec8cc32"
                } ]
            }, {
                "title": "QuestionnaireResponse",
                "entry": [ {
                    "reference": "urn:uuid:e41de73f-d2f4-414d-a07f-511c4293f363"
                } ]
            }, {
                "title": "QuestionnaireResponse",
                "entry": [ {
                    "reference": "urn:uuid:adbe9672-dd8a-4aa0-be9b-1d35bb7471f8"
                } ]
            }, {
                "title": "QuestionnaireResponse",
                "entry": [ {
                    "reference": "urn:uuid:8af96f92-3e70-4e1e-97c2-dbd4777c2256"
                } ]
            }, {
                "title": "QuestionnaireResponse",
                "entry": [ {
                    "reference": "urn:uuid:bb2ee9ce-4cce-4e72-bf67-386fd9b0609f"
                } ]
            }, {
                "title": "QuestionnaireResponse",
                "entry": [ {
                    "reference": "urn:uuid:7eff4a0b-6238-4127-9782-28a49fd72eba"
                } ]
            }, {
                "title": "QuestionnaireResponse",
                "entry": [ {
                    "reference": "urn:uuid:7e272d57-873b-4292-842e-b520f2d19543"
                } ]
            }, {
                "title": "QuestionnaireResponse",
                "entry": [ {
                    "reference": "urn:uuid:77c94cd7-7c01-4457-ae6c-43d5c6c0f774"
                } ]
            }, {
                "title": "QuestionnaireResponse",
                "entry": [ {
                    "reference": "urn:uuid:059d6dbb-33d6-496b-bc5a-df8ec255c110"
                } ]
            }, {
                "title": "QuestionnaireResponse",
                "entry": [ {
                    "reference": "urn:uuid:2612cfa1-4fc4-48b2-aabd-42f56bfebc52"
                } ]
            }, {
                "title": "QuestionnaireResponse",
                "entry": [ {
                    "reference": "urn:uuid:d8ed1810-adbd-4657-b083-0f3701a07f02"
                } ]
            }, {
                "title": "QuestionnaireResponse",
                "entry": [ {
                    "reference": "urn:uuid:dff312cb-6a9e-422a-96f7-d09b20bf17ee"
                } ]
            }, {
                "title": "QuestionnaireResponse",
                "entry": [ {
                    "reference": "urn:uuid:073d402c-e4ba-4233-8b12-adeead15198b"
                } ]
            }, {
                "title": "QuestionnaireResponse",
                "entry": [ {
                    "reference": "urn:uuid:6330b859-2201-458a-929d-f952fae18059"
                } ]
            }, {
                "title": "QuestionnaireResponse",
                "entry": [ {
                    "reference": "urn:uuid:695c9758-74c7-44dc-819d-9c9ddfa3a4ec"
                } ]
            }, {
                "title": "QuestionnaireResponse",
                "entry": [ {
                    "reference": "urn:uuid:f2076d01-ccbf-4bbe-9f32-5ad085a61787"
                } ]
            }, {
                "title": "QuestionnaireResponse",
                "entry": [ {
                    "reference": "urn:uuid:bfa8b59c-a10b-4419-8423-af64ba70c556"
                } ]
            } ]
        }
    }, {
        "fullUrl": "urn:uuid:0a7739ba-a714-40d9-86b8-2349630fd571",
        "resource": {
            "resourceType": "Consent",
            "id": "0a7739ba-a714-40d9-86b8-2349630fd571",
            "identifier": {
                "use": "usual",
                "value": "499BEC45-8F01-498C-A61F-B8AC124ED50E"
            },
            "status": "active",
            "patient": {
                "reference": "urn:uuid:f51f6858-7f8a-4ced-a475-8bbfc5272ea9"
            },
            "period": {
                "start": "2025-10-30T09:45:22+00:00"
            },
            "consentingParty": [ {
                "reference": "urn:uuid:f51f6858-7f8a-4ced-a475-8bbfc5272ea9"
            } ],
            "action": [ {
                "coding": [ {
                    "system": "http://snomed.info/sct",
                    "code": "425691002",
                    "display": "Consent given for electronic record sharing"
                } ],
                "text": "Consent given for electronic record sharing"
            } ],
            "organization": [ {
                "reference": "urn:uuid:860c838b-f2e0-4e12-a4af-cbb444e5d697"
            } ],
            "policyRule": "http://hl7.org/fhir/ConsentPolicy/opt-out",
            "data": [ {
                "meaning": "related",
                "reference": {
                    "reference": "urn:uuid:43905d6a-a7b0-44f3-b23f-36769e808f79"
                }
            } ]
        }
    }, {
        "fullUrl": "urn:uuid:7e266841-6609-46ff-bd7f-0ead589988f8",
        "resource": {
            "resourceType": "Condition",
            "id": "7e266841-6609-46ff-bd7f-0ead589988f8",
            "clinicalStatus": "active",
            "verificationStatus": "unknown",
            "subject": {
                "reference": "urn:uuid:f51f6858-7f8a-4ced-a475-8bbfc5272ea9"
            },
            "context": {
                "reference": "urn:uuid:43905d6a-a7b0-44f3-b23f-36769e808f79"
            },
            "evidence": [ {
                "detail": [ {
                    "reference": "urn:uuid:0c3b7f31-6879-4432-aa56-b0977bd865ad"
                } ]
            }, {
                "detail": [ {
                    "reference": "urn:uuid:833e6f37-53ed-497f-a85e-effa61a909c0"
                } ]
            }, {
                "detail": [ {
                    "reference": "urn:uuid:2437b930-4535-45c8-b5a7-27e28de9ca7b"
                } ]
            }, {
                "detail": [ {
                    "reference": "urn:uuid:048b865d-a3ec-4eac-96c1-9eec9fdfb4b6"
                } ]
            }, {
                "detail": [ {
                    "reference": "urn:uuid:849e7670-eeea-4646-8e3e-ee6f507826d6"
                } ]
            }, {
                "detail": [ {
                    "reference": "urn:uuid:14105fa7-81a4-4cd8-b685-4335aec8cc32"
                } ]
            }, {
                "detail": [ {
                    "reference": "urn:uuid:e41de73f-d2f4-414d-a07f-511c4293f363"
                } ]
            }, {
                "detail": [ {
                    "reference": "urn:uuid:adbe9672-dd8a-4aa0-be9b-1d35bb7471f8"
                } ]
            }, {
                "detail": [ {
                    "reference": "urn:uuid:8af96f92-3e70-4e1e-97c2-dbd4777c2256"
                } ]
            }, {
                "detail": [ {
                    "reference": "urn:uuid:bb2ee9ce-4cce-4e72-bf67-386fd9b0609f"
                } ]
            }, {
                "detail": [ {
                    "reference": "urn:uuid:7eff4a0b-6238-4127-9782-28a49fd72eba"
                } ]
            }, {
                "detail": [ {
                    "reference": "urn:uuid:7e272d57-873b-4292-842e-b520f2d19543"
                } ]
            }, {
                "detail": [ {
                    "reference": "urn:uuid:77c94cd7-7c01-4457-ae6c-43d5c6c0f774"
                } ]
            }, {
                "detail": [ {
                    "reference": "urn:uuid:059d6dbb-33d6-496b-bc5a-df8ec255c110"
                } ]
            }, {
                "detail": [ {
                    "reference": "urn:uuid:2612cfa1-4fc4-48b2-aabd-42f56bfebc52"
                } ]
            }, {
                "detail": [ {
                    "reference": "urn:uuid:d8ed1810-adbd-4657-b083-0f3701a07f02"
                } ]
            }, {
                "detail": [ {
                    "reference": "urn:uuid:dff312cb-6a9e-422a-96f7-d09b20bf17ee"
                } ]
            }, {
                "detail": [ {
                    "reference": "urn:uuid:073d402c-e4ba-4233-8b12-adeead15198b"
                } ]
            }, {
                "detail": [ {
                    "reference": "urn:uuid:6330b859-2201-458a-929d-f952fae18059"
                } ]
            }, {
                "detail": [ {
                    "reference": "urn:uuid:695c9758-74c7-44dc-819d-9c9ddfa3a4ec"
                } ]
            }, {
                "detail": [ {
                    "reference": "urn:uuid:f2076d01-ccbf-4bbe-9f32-5ad085a61787"
                } ]
            }, {
                "detail": [ {
                    "reference": "urn:uuid:bfa8b59c-a10b-4419-8423-af64ba70c556"
                } ]
            } ]
        }
    }, {
        "fullUrl": "urn:uuid:0c3b7f31-6879-4432-aa56-b0977bd865ad",
        "resource": {
            "resourceType": "QuestionnaireResponse",
            "id": "0c3b7f31-6879-4432-aa56-b0977bd865ad",
            "identifier": {
                "value": "1193164"
            },
            "questionnaire": {
                "reference": "urn:uuid:dd247ed2-0f8b-43a9-a20f-7aa24b039b4e"
            },
            "status": "completed",
            "subject": {
                "reference": "urn:uuid:f51f6858-7f8a-4ced-a475-8bbfc5272ea9"
            },
            "context": {
                "reference": "urn:uuid:43905d6a-a7b0-44f3-b23f-36769e808f79"
            },
            "authored": "2020-10-30T09:45:23+00:00",
            "item": [ {
                "linkId": "Tx220074",
                "text": "What is the reason for the contact?",
                "answer": [ {
                    "valueString": "an injury or other health problem"
                } ]
            } ]
        }
    }, {
        "fullUrl": "urn:uuid:dd247ed2-0f8b-43a9-a20f-7aa24b039b4e",
        "resource": {
            "resourceType": "Questionnaire",
            "id": "dd247ed2-0f8b-43a9-a20f-7aa24b039b4e",
            "identifier": [ {
                "value": "1193164"
            } ],
            "version": "2020-10-30T09:45:23.026Z",
            "status": "active",
            "experimental": false,
            "date": "2020-10-30T09:45:23+00:00",
            "publisher": "User ID: 'HOLDENR' User name: 'Rachael Holden' User skill set: 'T3'",
            "lastReviewDate": "2020-10-30",
            "subjectType": [ "Patient" ],
            "item": [ {
                "linkId": "1193164",
                "prefix": "5",
                "text": "What is the reason for the contact?",
                "type": "choice",
                "required": true,
                "repeats": false,
                "option": [ {
                    "valueString": "an injury or other health problem, Selected: true"
                }, {
                    "valueString": "labour or childbirth, Selected: false"
                }, {
                    "valueString": "a need to access another healthcare service, Selected: false"
                }, {
                    "valueString": "a healthcare professional requesting contact with another clinician, Selected: false"
                }, {
                    "valueString": "a report of results or tests, Selected: false"
                }, {
                    "valueString": "a possible failure of contraception, Selected: false"
                }, {
                    "valueString": "more, Selected: false"
                } ]
            } ]
        }
    }, {
        "fullUrl": "urn:uuid:833e6f37-53ed-497f-a85e-effa61a909c0",
        "resource": {
            "resourceType": "QuestionnaireResponse",
            "id": "833e6f37-53ed-497f-a85e-effa61a909c0",
            "identifier": {
                "value": "1193164"
            },
            "questionnaire": {
                "reference": "urn:uuid:94150889-98f4-4eed-ae21-5b5a45cea813"
            },
            "status": "completed",
            "subject": {
                "reference": "urn:uuid:f51f6858-7f8a-4ced-a475-8bbfc5272ea9"
            },
            "context": {
                "reference": "urn:uuid:43905d6a-a7b0-44f3-b23f-36769e808f79"
            },
            "authored": "2020-10-30T09:45:23+00:00",
            "item": [ {
                "linkId": "Tx221807",
                "text": "STRING:to'Immediatethreatstolife(SPA/OOHversion)'-'Majorbloodloss'stem",
                "answer": [ {
                    "valueString": "\"present\""
                } ]
            } ]
        }
    }, {
        "fullUrl": "urn:uuid:94150889-98f4-4eed-ae21-5b5a45cea813",
        "resource": {
            "resourceType": "Questionnaire",
            "id": "94150889-98f4-4eed-ae21-5b5a45cea813",
            "identifier": [ {
                "value": "1193164"
            } ],
            "version": "2020-10-30T09:45:23.026Z",
            "status": "active",
            "experimental": false,
            "date": "2020-10-30T09:45:23+00:00",
            "publisher": "User ID: 'HOLDENR' User name: 'Rachael Holden' User skill set: 'T3'",
            "lastReviewDate": "2020-10-30",
            "subjectType": [ "Patient" ],
            "item": [ {
                "linkId": "1193164",
                "prefix": "200",
                "text": "STRING:to'Immediatethreatstolife(SPA/OOHversion)'-'Majorbloodloss'stem",
                "type": "choice",
                "required": true,
                "repeats": false,
                "option": [ {
                    "valueString": "\"present\", Selected: true"
                } ]
            } ]
        }
    }, {
        "fullUrl": "urn:uuid:2437b930-4535-45c8-b5a7-27e28de9ca7b",
        "resource": {
            "resourceType": "QuestionnaireResponse",
            "id": "2437b930-4535-45c8-b5a7-27e28de9ca7b",
            "identifier": {
                "value": "1193164"
            },
            "questionnaire": {
                "reference": "urn:uuid:c3ab087b-5b74-49c9-ad3c-88db0072eb8e"
            },
            "status": "completed",
            "subject": {
                "reference": "urn:uuid:f51f6858-7f8a-4ced-a475-8bbfc5272ea9"
            },
            "context": {
                "reference": "urn:uuid:43905d6a-a7b0-44f3-b23f-36769e808f79"
            },
            "authored": "2020-10-30T09:45:23+00:00"
        }
    }, {
        "fullUrl": "urn:uuid:c3ab087b-5b74-49c9-ad3c-88db0072eb8e",
        "resource": {
            "resourceType": "Questionnaire",
            "id": "c3ab087b-5b74-49c9-ad3c-88db0072eb8e",
            "identifier": [ {
                "value": "1193164"
            } ],
            "version": "2020-10-30T09:45:23.026Z",
            "status": "active",
            "experimental": false,
            "date": "2020-10-30T09:45:23+00:00",
            "publisher": "User ID: 'HOLDENR' User name: 'Rachael Holden' User skill set: 'T3'",
            "lastReviewDate": "2020-10-30",
            "subjectType": [ "Patient" ]
        }
    }, {
        "fullUrl": "urn:uuid:048b865d-a3ec-4eac-96c1-9eec9fdfb4b6",
        "resource": {
            "resourceType": "QuestionnaireResponse",
            "id": "048b865d-a3ec-4eac-96c1-9eec9fdfb4b6",
            "identifier": {
                "value": "1193164"
            },
            "questionnaire": {
                "reference": "urn:uuid:3f37fdd5-524f-453d-b15b-bbf026d0975b"
            },
            "status": "completed",
            "subject": {
                "reference": "urn:uuid:f51f6858-7f8a-4ced-a475-8bbfc5272ea9"
            },
            "context": {
                "reference": "urn:uuid:43905d6a-a7b0-44f3-b23f-36769e808f79"
            },
            "authored": "2020-10-30T09:45:23+00:00",
            "item": [ {
                "linkId": "Tx221799",
                "text": "STRING:injury,illnessorlabourestablishedinEntryFlow",
                "answer": [ {
                    "valueString": "\"present\""
                } ]
            } ]
        }
    }, {
        "fullUrl": "urn:uuid:3f37fdd5-524f-453d-b15b-bbf026d0975b",
        "resource": {
            "resourceType": "Questionnaire",
            "id": "3f37fdd5-524f-453d-b15b-bbf026d0975b",
            "identifier": [ {
                "value": "1193164"
            } ],
            "version": "2020-10-30T09:45:23.026Z",
            "status": "active",
            "experimental": false,
            "date": "2020-10-30T09:45:23+00:00",
            "publisher": "User ID: 'HOLDENR' User name: 'Rachael Holden' User skill set: 'T3'",
            "lastReviewDate": "2020-10-30",
            "subjectType": [ "Patient" ],
            "item": [ {
                "linkId": "1193164",
                "prefix": "0",
                "text": "STRING:injury,illnessorlabourestablishedinEntryFlow",
                "type": "choice",
                "required": true,
                "repeats": false,
                "option": [ {
                    "valueString": "\"present\", Selected: true"
                } ]
            } ]
        }
    }, {
        "fullUrl": "urn:uuid:849e7670-eeea-4646-8e3e-ee6f507826d6",
        "resource": {
            "resourceType": "QuestionnaireResponse",
            "id": "849e7670-eeea-4646-8e3e-ee6f507826d6",
            "identifier": {
                "value": "1193164"
            },
            "questionnaire": {
                "reference": "urn:uuid:0653ce61-4350-436d-a38f-14fc32d3fca1"
            },
            "status": "completed",
            "subject": {
                "reference": "urn:uuid:f51f6858-7f8a-4ced-a475-8bbfc5272ea9"
            },
            "context": {
                "reference": "urn:uuid:43905d6a-a7b0-44f3-b23f-36769e808f79"
            },
            "authored": "2020-10-30T09:45:23+00:00",
            "item": [ {
                "linkId": "Tx224120",
                "text": "Have you been bleeding RED BLOOD very heavily IN THE LAST 2 HOURS?",
                "answer": [ {
                    "valueString": "no"
                } ]
            } ]
        }
    }, {
        "fullUrl": "urn:uuid:0653ce61-4350-436d-a38f-14fc32d3fca1",
        "resource": {
            "resourceType": "Questionnaire",
            "id": "0653ce61-4350-436d-a38f-14fc32d3fca1",
            "identifier": [ {
                "value": "1193164"
            } ],
            "version": "2020-10-30T09:45:23.026Z",
            "status": "active",
            "experimental": false,
            "date": "2020-10-30T09:45:23+00:00",
            "publisher": "User ID: 'HOLDENR' User name: 'Rachael Holden' User skill set: 'T3'",
            "lastReviewDate": "2020-10-30",
            "subjectType": [ "Patient" ],
            "item": [ {
                "linkId": "1193164",
                "prefix": "10100",
                "text": "Have you been bleeding RED BLOOD very heavily IN THE LAST 2 HOURS?",
                "type": "choice",
                "required": true,
                "repeats": false,
                "option": [ {
                    "valueString": "yes, Selected: false"
                }, {
                    "valueString": "not sure, Selected: false"
                }, {
                    "valueString": "no, Selected: true"
                } ]
            } ]
        }
    }, {
        "fullUrl": "urn:uuid:14105fa7-81a4-4cd8-b685-4335aec8cc32",
        "resource": {
            "resourceType": "QuestionnaireResponse",
            "id": "14105fa7-81a4-4cd8-b685-4335aec8cc32",
            "identifier": {
                "value": "1193164"
            },
            "questionnaire": {
                "reference": "urn:uuid:100e61a9-7f76-4922-af8d-c9e731d4bf03"
            },
            "status": "completed",
            "subject": {
                "reference": "urn:uuid:f51f6858-7f8a-4ced-a475-8bbfc5272ea9"
            },
            "context": {
                "reference": "urn:uuid:43905d6a-a7b0-44f3-b23f-36769e808f79"
            },
            "authored": "2020-10-30T09:45:23+00:00",
            "item": [ {
                "linkId": "Tx221343",
                "text": "SocialConcernsExcluded",
                "answer": [ {
                    "valueString": "==\"present\""
                } ]
            } ]
        }
    }, {
        "fullUrl": "urn:uuid:100e61a9-7f76-4922-af8d-c9e731d4bf03",
        "resource": {
            "resourceType": "Questionnaire",
            "id": "100e61a9-7f76-4922-af8d-c9e731d4bf03",
            "identifier": [ {
                "value": "1193164"
            } ],
            "version": "2020-10-30T09:45:23.026Z",
            "status": "active",
            "experimental": false,
            "date": "2020-10-30T09:45:23+00:00",
            "publisher": "User ID: 'HOLDENR' User name: 'Rachael Holden' User skill set: 'T3'",
            "lastReviewDate": "2020-10-30",
            "subjectType": [ "Patient" ],
            "item": [ {
                "linkId": "1193164",
                "prefix": "1100",
                "text": "SocialConcernsExcluded",
                "type": "choice",
                "required": true,
                "repeats": false,
                "option": [ {
                    "valueString": "==\"present\", Selected: true"
                }, {
                    "valueString": "*, Selected: false"
                } ]
            } ]
        }
    }, {
        "fullUrl": "urn:uuid:e41de73f-d2f4-414d-a07f-511c4293f363",
        "resource": {
            "resourceType": "QuestionnaireResponse",
            "id": "e41de73f-d2f4-414d-a07f-511c4293f363",
            "identifier": {
                "value": "1193164"
            },
            "questionnaire": {
                "reference": "urn:uuid:fb6335d1-c299-40db-a559-5cf0b5be4dbd"
            },
            "status": "completed",
            "subject": {
                "reference": "urn:uuid:f51f6858-7f8a-4ced-a475-8bbfc5272ea9"
            },
            "context": {
                "reference": "urn:uuid:43905d6a-a7b0-44f3-b23f-36769e808f79"
            },
            "authored": "2020-10-30T09:45:23+00:00",
            "item": [ {
                "linkId": "Tx130011",
                "text": "What is the main problem?",
                "answer": [ {
                    "valueString": "injury (specify)"
                } ]
            } ]
        }
    }, {
        "fullUrl": "urn:uuid:fb6335d1-c299-40db-a559-5cf0b5be4dbd",
        "resource": {
            "resourceType": "Questionnaire",
            "id": "fb6335d1-c299-40db-a559-5cf0b5be4dbd",
            "identifier": [ {
                "value": "1193164"
            } ],
            "version": "2020-10-30T09:45:23.026Z",
            "status": "active",
            "experimental": false,
            "date": "2020-10-30T09:45:23+00:00",
            "publisher": "User ID: 'HOLDENR' User name: 'Rachael Holden' User skill set: 'T3'",
            "lastReviewDate": "2020-10-30",
            "subjectType": [ "Patient" ],
            "item": [ {
                "linkId": "1193164",
                "prefix": "2300",
                "text": "What is the main problem?",
                "type": "choice",
                "required": true,
                "repeats": false,
                "option": [ {
                    "valueString": "the individual has been told to follow a particular course of action (specify), Selected: false"
                }, {
                    "valueString": "the individual is an identified frequent caller, Selected: false"
                }, {
                    "valueString": "injury (specify), Selected: true"
                }, {
                    "valueString": "illness or other health problem (specify), Selected: false"
                }, {
                    "valueString": "child protection/vulnerable adult concern, Selected: false"
                }, {
                    "valueString": "social or domestic emergency, Selected: false"
                }, {
                    "valueString": "the environment potentially poses an immediate threat to life (specify), Selected: false"
                } ]
            } ]
        }
    }, {
        "fullUrl": "urn:uuid:adbe9672-dd8a-4aa0-be9b-1d35bb7471f8",
        "resource": {
            "resourceType": "QuestionnaireResponse",
            "id": "adbe9672-dd8a-4aa0-be9b-1d35bb7471f8",
            "identifier": {
                "value": "1193164"
            },
            "questionnaire": {
                "reference": "urn:uuid:4a657c7c-fe18-4aa1-8283-d440b4edceb8"
            },
            "status": "completed",
            "subject": {
                "reference": "urn:uuid:f51f6858-7f8a-4ced-a475-8bbfc5272ea9"
            },
            "context": {
                "reference": "urn:uuid:43905d6a-a7b0-44f3-b23f-36769e808f79"
            },
            "authored": "2020-10-30T09:45:23+00:00",
            "item": [ {
                "linkId": "Tx224119",
                "text": "FROM WHAT YOU HAVE HEARD IS THIS A MINOR INJURY?",
                "answer": [ {
                    "valueString": "yes - a minor bite or sting (specify)"
                } ]
            } ]
        }
    }, {
        "fullUrl": "urn:uuid:4a657c7c-fe18-4aa1-8283-d440b4edceb8",
        "resource": {
            "resourceType": "Questionnaire",
            "id": "4a657c7c-fe18-4aa1-8283-d440b4edceb8",
            "identifier": [ {
                "value": "1193164"
            } ],
            "version": "2020-10-30T09:45:23.026Z",
            "status": "active",
            "experimental": false,
            "date": "2020-10-30T09:45:23+00:00",
            "publisher": "User ID: 'HOLDENR' User name: 'Rachael Holden' User skill set: 'T3'",
            "lastReviewDate": "2020-10-30",
            "subjectType": [ "Patient" ],
            "item": [ {
                "linkId": "1193164",
                "prefix": "15000",
                "text": "FROM WHAT YOU HAVE HEARD IS THIS A MINOR INJURY?",
                "type": "choice",
                "required": true,
                "repeats": false,
                "option": [ {
                    "valueString": "yes - a minor bite or sting (specify), Selected: true"
                }, {
                    "valueString": "yes - a scratch, graze or minor wound, Selected: false"
                }, {
                    "valueString": "yes - skin minor foreign body or skin glued, Selected: false"
                }, {
                    "valueString": "yes - trauma blisters, Selected: false"
                }, {
                    "valueString": "yes - a single finger or toe injury, Selected: false"
                }, {
                    "valueString": "not sure, Selected: false"
                }, {
                    "valueString": "no, Selected: false"
                } ]
            } ]
        }
    }, {
        "fullUrl": "urn:uuid:8af96f92-3e70-4e1e-97c2-dbd4777c2256",
        "resource": {
            "resourceType": "QuestionnaireResponse",
            "id": "8af96f92-3e70-4e1e-97c2-dbd4777c2256",
            "identifier": {
                "value": "1193164"
            },
            "questionnaire": {
                "reference": "urn:uuid:98af052b-4f02-407a-8272-6a80d61ded61"
            },
            "status": "completed",
            "subject": {
                "reference": "urn:uuid:f51f6858-7f8a-4ced-a475-8bbfc5272ea9"
            },
            "context": {
                "reference": "urn:uuid:43905d6a-a7b0-44f3-b23f-36769e808f79"
            },
            "authored": "2020-10-30T09:45:23+00:00",
            "item": [ {
                "linkId": "Tx225125",
                "text": "SYSTEM_INJURYMODULE",
                "answer": [ {
                    "valueString": "==\"injurymodule\""
                } ]
            } ]
        }
    }, {
        "fullUrl": "urn:uuid:98af052b-4f02-407a-8272-6a80d61ded61",
        "resource": {
            "resourceType": "Questionnaire",
            "id": "98af052b-4f02-407a-8272-6a80d61ded61",
            "identifier": [ {
                "value": "1193164"
            } ],
            "version": "2020-10-30T09:45:23.026Z",
            "status": "active",
            "experimental": false,
            "date": "2020-10-30T09:45:23+00:00",
            "publisher": "User ID: 'HOLDENR' User name: 'Rachael Holden' User skill set: 'T3'",
            "lastReviewDate": "2020-10-30",
            "subjectType": [ "Patient" ],
            "item": [ {
                "linkId": "1193164",
                "prefix": "23700",
                "text": "SYSTEM_INJURYMODULE",
                "type": "choice",
                "required": true,
                "repeats": false,
                "option": [ {
                    "valueString": "==\"injurymodule\", Selected: true"
                }, {
                    "valueString": "*, Selected: false"
                } ]
            } ]
        }
    }, {
        "fullUrl": "urn:uuid:bb2ee9ce-4cce-4e72-bf67-386fd9b0609f",
        "resource": {
            "resourceType": "QuestionnaireResponse",
            "id": "bb2ee9ce-4cce-4e72-bf67-386fd9b0609f",
            "identifier": {
                "value": "1193164"
            },
            "questionnaire": {
                "reference": "urn:uuid:359b9326-c451-4c8f-9277-a5f239bad34b"
            },
            "status": "completed",
            "subject": {
                "reference": "urn:uuid:f51f6858-7f8a-4ced-a475-8bbfc5272ea9"
            },
            "context": {
                "reference": "urn:uuid:43905d6a-a7b0-44f3-b23f-36769e808f79"
            },
            "authored": "2020-10-30T09:45:23+00:00"
        }
    }, {
        "fullUrl": "urn:uuid:359b9326-c451-4c8f-9277-a5f239bad34b",
        "resource": {
            "resourceType": "Questionnaire",
            "id": "359b9326-c451-4c8f-9277-a5f239bad34b",
            "identifier": [ {
                "value": "1193164"
            } ],
            "version": "2020-10-30T09:45:23.026Z",
            "status": "active",
            "experimental": false,
            "date": "2020-10-30T09:45:23+00:00",
            "publisher": "User ID: 'HOLDENR' User name: 'Rachael Holden' User skill set: 'T3'",
            "lastReviewDate": "2020-10-30",
            "subjectType": [ "Patient" ]
        }
    }, {
        "fullUrl": "urn:uuid:7eff4a0b-6238-4127-9782-28a49fd72eba",
        "resource": {
            "resourceType": "QuestionnaireResponse",
            "id": "7eff4a0b-6238-4127-9782-28a49fd72eba",
            "identifier": {
                "value": "1193164"
            },
            "questionnaire": {
                "reference": "urn:uuid:4983b9e3-eb71-4cda-ac67-ae4bc6e68fdc"
            },
            "status": "completed",
            "subject": {
                "reference": "urn:uuid:f51f6858-7f8a-4ced-a475-8bbfc5272ea9"
            },
            "context": {
                "reference": "urn:uuid:43905d6a-a7b0-44f3-b23f-36769e808f79"
            },
            "authored": "2020-10-30T09:45:23+00:00",
            "item": [ {
                "linkId": "Tx3529",
                "text": "WHAT WAS THE CAUSE?",
                "answer": [ {
                    "valueString": "an insect or spider (specify if known)"
                } ]
            } ]
        }
    }, {
        "fullUrl": "urn:uuid:4983b9e3-eb71-4cda-ac67-ae4bc6e68fdc",
        "resource": {
            "resourceType": "Questionnaire",
            "id": "4983b9e3-eb71-4cda-ac67-ae4bc6e68fdc",
            "identifier": [ {
                "value": "1193164"
            } ],
            "version": "2020-10-30T09:45:23.026Z",
            "status": "active",
            "experimental": false,
            "date": "2020-10-30T09:45:23+00:00",
            "publisher": "User ID: 'HOLDENR' User name: 'Rachael Holden' User skill set: 'T3'",
            "lastReviewDate": "2020-10-30",
            "subjectType": [ "Patient" ],
            "item": [ {
                "linkId": "1193164",
                "prefix": "0",
                "text": "WHAT WAS THE CAUSE?",
                "type": "choice",
                "required": true,
                "repeats": false,
                "option": [ {
                    "valueString": "a person, Selected: false"
                }, {
                    "valueString": "an animal (specify if known), Selected: false"
                }, {
                    "valueString": "a snake (specify if known), Selected: false"
                }, {
                    "valueString": "an insect or spider (specify if known), Selected: true"
                }, {
                    "valueString": "stung by a water creature (specify if known), Selected: false"
                }, {
                    "valueString": "bitten by a water creature (specify if known), Selected: false"
                }, {
                    "valueString": "not sure, Selected: false"
                } ]
            } ]
        }
    }, {
        "fullUrl": "urn:uuid:7e272d57-873b-4292-842e-b520f2d19543",
        "resource": {
            "resourceType": "QuestionnaireResponse",
            "id": "7e272d57-873b-4292-842e-b520f2d19543",
            "identifier": {
                "value": "1193164"
            },
            "questionnaire": {
                "reference": "urn:uuid:3e7cb5b3-2101-4015-9e3d-7afe7240c475"
            },
            "status": "completed",
            "subject": {
                "reference": "urn:uuid:f51f6858-7f8a-4ced-a475-8bbfc5272ea9"
            },
            "context": {
                "reference": "urn:uuid:43905d6a-a7b0-44f3-b23f-36769e808f79"
            },
            "authored": "2020-10-30T09:45:23+00:00"
        }
    }, {
        "fullUrl": "urn:uuid:3e7cb5b3-2101-4015-9e3d-7afe7240c475",
        "resource": {
            "resourceType": "Questionnaire",
            "id": "3e7cb5b3-2101-4015-9e3d-7afe7240c475",
            "identifier": [ {
                "value": "1193164"
            } ],
            "version": "2020-10-30T09:45:23.026Z",
            "status": "active",
            "experimental": false,
            "date": "2020-10-30T09:45:23+00:00",
            "publisher": "User ID: 'HOLDENR' User name: 'Rachael Holden' User skill set: 'T3'",
            "lastReviewDate": "2020-10-30",
            "subjectType": [ "Patient" ]
        }
    }, {
        "fullUrl": "urn:uuid:77c94cd7-7c01-4457-ae6c-43d5c6c0f774",
        "resource": {
            "resourceType": "QuestionnaireResponse",
            "id": "77c94cd7-7c01-4457-ae6c-43d5c6c0f774",
            "identifier": {
                "value": "1193164"
            },
            "questionnaire": {
                "reference": "urn:uuid:a38154bb-db8b-4bfe-9ff0-4b7f220359ad"
            },
            "status": "completed",
            "subject": {
                "reference": "urn:uuid:f51f6858-7f8a-4ced-a475-8bbfc5272ea9"
            },
            "context": {
                "reference": "urn:uuid:43905d6a-a7b0-44f3-b23f-36769e808f79"
            },
            "authored": "2020-10-30T09:45:23+00:00",
            "item": [ {
                "linkId": "Tx220302",
                "text": "Did it happen WITHIN THE LAST 6 HOURS?",
                "answer": [ {
                    "valueString": "no"
                } ]
            } ]
        }
    }, {
        "fullUrl": "urn:uuid:a38154bb-db8b-4bfe-9ff0-4b7f220359ad",
        "resource": {
            "resourceType": "Questionnaire",
            "id": "a38154bb-db8b-4bfe-9ff0-4b7f220359ad",
            "identifier": [ {
                "value": "1193164"
            } ],
            "version": "2020-10-30T09:45:23.026Z",
            "status": "active",
            "experimental": false,
            "date": "2020-10-30T09:45:23+00:00",
            "publisher": "User ID: 'HOLDENR' User name: 'Rachael Holden' User skill set: 'T3'",
            "lastReviewDate": "2020-10-30",
            "subjectType": [ "Patient" ],
            "item": [ {
                "linkId": "1193164",
                "prefix": "0",
                "text": "Did it happen WITHIN THE LAST 6 HOURS?",
                "type": "choice",
                "required": true,
                "repeats": false,
                "option": [ {
                    "valueString": "yes, Selected: false"
                }, {
                    "valueString": "not sure, Selected: false"
                }, {
                    "valueString": "no, Selected: true"
                } ]
            } ]
        }
    }, {
        "fullUrl": "urn:uuid:059d6dbb-33d6-496b-bc5a-df8ec255c110",
        "resource": {
            "resourceType": "QuestionnaireResponse",
            "id": "059d6dbb-33d6-496b-bc5a-df8ec255c110",
            "identifier": {
                "value": "1193164"
            },
            "questionnaire": {
                "reference": "urn:uuid:a3696dad-85db-49e9-899a-8f50ad7bad9c"
            },
            "status": "completed",
            "subject": {
                "reference": "urn:uuid:f51f6858-7f8a-4ced-a475-8bbfc5272ea9"
            },
            "context": {
                "reference": "urn:uuid:43905d6a-a7b0-44f3-b23f-36769e808f79"
            },
            "authored": "2020-10-30T09:45:23+00:00",
            "item": [ {
                "linkId": "Tx3543",
                "text": "Have you been stung 10 or more times?",
                "answer": [ {
                    "valueString": "no"
                } ]
            } ]
        }
    }, {
        "fullUrl": "urn:uuid:a3696dad-85db-49e9-899a-8f50ad7bad9c",
        "resource": {
            "resourceType": "Questionnaire",
            "id": "a3696dad-85db-49e9-899a-8f50ad7bad9c",
            "identifier": [ {
                "value": "1193164"
            } ],
            "version": "2020-10-30T09:45:23.026Z",
            "status": "active",
            "experimental": false,
            "date": "2020-10-30T09:45:23+00:00",
            "publisher": "User ID: 'HOLDENR' User name: 'Rachael Holden' User skill set: 'T3'",
            "lastReviewDate": "2020-10-30",
            "subjectType": [ "Patient" ],
            "item": [ {
                "linkId": "1193164",
                "prefix": "2900",
                "text": "Have you been stung 10 or more times?",
                "type": "choice",
                "required": true,
                "repeats": false,
                "option": [ {
                    "valueString": "yes, Selected: false"
                }, {
                    "valueString": "not sure, Selected: false"
                }, {
                    "valueString": "no, Selected: true"
                } ]
            } ]
        }
    }, {
        "fullUrl": "urn:uuid:2612cfa1-4fc4-48b2-aabd-42f56bfebc52",
        "resource": {
            "resourceType": "QuestionnaireResponse",
            "id": "2612cfa1-4fc4-48b2-aabd-42f56bfebc52",
            "identifier": {
                "value": "1193164"
            },
            "questionnaire": {
                "reference": "urn:uuid:170884cb-b45b-444b-9efd-899f491664ab"
            },
            "status": "completed",
            "subject": {
                "reference": "urn:uuid:f51f6858-7f8a-4ced-a475-8bbfc5272ea9"
            },
            "context": {
                "reference": "urn:uuid:43905d6a-a7b0-44f3-b23f-36769e808f79"
            },
            "authored": "2020-10-30T09:45:23+00:00",
            "item": [ {
                "linkId": "Tx3557",
                "text": "Have you got nausea or vomiting now?",
                "answer": [ {
                    "valueString": "no"
                } ]
            } ]
        }
    }, {
        "fullUrl": "urn:uuid:170884cb-b45b-444b-9efd-899f491664ab",
        "resource": {
            "resourceType": "Questionnaire",
            "id": "170884cb-b45b-444b-9efd-899f491664ab",
            "identifier": [ {
                "value": "1193164"
            } ],
            "version": "2020-10-30T09:45:23.026Z",
            "status": "active",
            "experimental": false,
            "date": "2020-10-30T09:45:23+00:00",
            "publisher": "User ID: 'HOLDENR' User name: 'Rachael Holden' User skill set: 'T3'",
            "lastReviewDate": "2020-10-30",
            "subjectType": [ "Patient" ],
            "item": [ {
                "linkId": "1193164",
                "prefix": "3000",
                "text": "Have you got nausea or vomiting now?",
                "type": "choice",
                "required": true,
                "repeats": false,
                "option": [ {
                    "valueString": "yes, Selected: false"
                }, {
                    "valueString": "not sure, Selected: false"
                }, {
                    "valueString": "no, Selected: true"
                } ]
            } ]
        }
    }, {
        "fullUrl": "urn:uuid:d8ed1810-adbd-4657-b083-0f3701a07f02",
        "resource": {
            "resourceType": "QuestionnaireResponse",
            "id": "d8ed1810-adbd-4657-b083-0f3701a07f02",
            "identifier": {
                "value": "1193164"
            },
            "questionnaire": {
                "reference": "urn:uuid:75256949-89be-4bbf-bf47-c87457c1e0e5"
            },
            "status": "completed",
            "subject": {
                "reference": "urn:uuid:f51f6858-7f8a-4ced-a475-8bbfc5272ea9"
            },
            "context": {
                "reference": "urn:uuid:43905d6a-a7b0-44f3-b23f-36769e808f79"
            },
            "authored": "2020-10-30T09:45:23+00:00",
            "item": [ {
                "linkId": "Tx3561",
                "text": "Have you been bitten or stung in any of these areas?",
                "answer": [ {
                    "valueString": "no"
                } ]
            } ]
        }
    }, {
        "fullUrl": "urn:uuid:75256949-89be-4bbf-bf47-c87457c1e0e5",
        "resource": {
            "resourceType": "Questionnaire",
            "id": "75256949-89be-4bbf-bf47-c87457c1e0e5",
            "identifier": [ {
                "value": "1193164"
            } ],
            "version": "2020-10-30T09:45:23.026Z",
            "status": "active",
            "experimental": false,
            "date": "2020-10-30T09:45:23+00:00",
            "publisher": "User ID: 'HOLDENR' User name: 'Rachael Holden' User skill set: 'T3'",
            "lastReviewDate": "2020-10-30",
            "subjectType": [ "Patient" ],
            "item": [ {
                "linkId": "1193164",
                "prefix": "3900",
                "text": "Have you been bitten or stung in any of these areas?",
                "type": "choice",
                "required": true,
                "repeats": false,
                "option": [ {
                    "valueString": "the eyeball, Selected: false"
                }, {
                    "valueString": "inside the mouth or on the lips, Selected: false"
                }, {
                    "valueString": "limb, Selected: false"
                }, {
                    "valueString": "not sure, Selected: false"
                }, {
                    "valueString": "no, Selected: true"
                } ]
            } ]
        }
    }, {
        "fullUrl": "urn:uuid:dff312cb-6a9e-422a-96f7-d09b20bf17ee",
        "resource": {
            "resourceType": "QuestionnaireResponse",
            "id": "dff312cb-6a9e-422a-96f7-d09b20bf17ee",
            "identifier": {
                "value": "1193164"
            },
            "questionnaire": {
                "reference": "urn:uuid:da101f5b-c608-4e3b-8a82-5c6224d1a2b3"
            },
            "status": "completed",
            "subject": {
                "reference": "urn:uuid:f51f6858-7f8a-4ced-a475-8bbfc5272ea9"
            },
            "context": {
                "reference": "urn:uuid:43905d6a-a7b0-44f3-b23f-36769e808f79"
            },
            "authored": "2020-10-30T09:45:23+00:00",
            "item": [ {
                "linkId": "Tx3544",
                "text": "Is the insect or part of the insect still attached to the skin?",
                "answer": [ {
                    "valueString": "no"
                } ]
            } ]
        }
    }, {
        "fullUrl": "urn:uuid:da101f5b-c608-4e3b-8a82-5c6224d1a2b3",
        "resource": {
            "resourceType": "Questionnaire",
            "id": "da101f5b-c608-4e3b-8a82-5c6224d1a2b3",
            "identifier": [ {
                "value": "1193164"
            } ],
            "version": "2020-10-30T09:45:23.026Z",
            "status": "active",
            "experimental": false,
            "date": "2020-10-30T09:45:23+00:00",
            "publisher": "User ID: 'HOLDENR' User name: 'Rachael Holden' User skill set: 'T3'",
            "lastReviewDate": "2020-10-30",
            "subjectType": [ "Patient" ],
            "item": [ {
                "linkId": "1193164",
                "prefix": "9400",
                "text": "Is the insect or part of the insect still attached to the skin?",
                "type": "choice",
                "required": true,
                "repeats": false,
                "option": [ {
                    "valueString": "yes, Selected: false"
                }, {
                    "valueString": "not sure, Selected: false"
                }, {
                    "valueString": "no, Selected: true"
                } ]
            } ]
        }
    }, {
        "fullUrl": "urn:uuid:073d402c-e4ba-4233-8b12-adeead15198b",
        "resource": {
            "resourceType": "QuestionnaireResponse",
            "id": "073d402c-e4ba-4233-8b12-adeead15198b",
            "identifier": {
                "value": "1193164"
            },
            "questionnaire": {
                "reference": "urn:uuid:c82d5236-97a6-40ec-8b10-bfb6cd0c73a8"
            },
            "status": "completed",
            "subject": {
                "reference": "urn:uuid:f51f6858-7f8a-4ced-a475-8bbfc5272ea9"
            },
            "context": {
                "reference": "urn:uuid:43905d6a-a7b0-44f3-b23f-36769e808f79"
            },
            "authored": "2020-10-30T09:45:23+00:00",
            "item": [ {
                "linkId": "Tx1449",
                "text": "Have you got very severe pain deep inside the affected area?",
                "answer": [ {
                    "valueString": "yes"
                } ]
            } ]
        }
    }, {
        "fullUrl": "urn:uuid:c82d5236-97a6-40ec-8b10-bfb6cd0c73a8",
        "resource": {
            "resourceType": "Questionnaire",
            "id": "c82d5236-97a6-40ec-8b10-bfb6cd0c73a8",
            "identifier": [ {
                "value": "1193164"
            } ],
            "version": "2020-10-30T09:45:23.026Z",
            "status": "active",
            "experimental": false,
            "date": "2020-10-30T09:45:23+00:00",
            "publisher": "User ID: 'HOLDENR' User name: 'Rachael Holden' User skill set: 'T3'",
            "lastReviewDate": "2020-10-30",
            "subjectType": [ "Patient" ],
            "item": [ {
                "linkId": "1193164",
                "prefix": "19700",
                "text": "Have you got very severe pain deep inside the affected area?",
                "type": "choice",
                "required": true,
                "repeats": false,
                "option": [ {
                    "valueString": "yes, Selected: true"
                }, {
                    "valueString": "not sure, Selected: false"
                }, {
                    "valueString": "no, Selected: false"
                } ]
            } ]
        }
    }, {
        "fullUrl": "urn:uuid:6330b859-2201-458a-929d-f952fae18059",
        "resource": {
            "resourceType": "QuestionnaireResponse",
            "id": "6330b859-2201-458a-929d-f952fae18059",
            "identifier": {
                "value": "1193164"
            },
            "questionnaire": {
                "reference": "urn:uuid:947025ec-d6a3-4c99-836c-eb2b26c811d9"
            },
            "status": "completed",
            "subject": {
                "reference": "urn:uuid:f51f6858-7f8a-4ced-a475-8bbfc5272ea9"
            },
            "context": {
                "reference": "urn:uuid:43905d6a-a7b0-44f3-b23f-36769e808f79"
            },
            "authored": "2020-10-30T09:45:23+00:00",
            "item": [ {
                "linkId": "Tx221449",
                "text": "STRING:SDPCFullPrimaryCareassessmentandprescribingcapability",
                "answer": [ {
                    "valueString": "\"PC full Primary Care assessment and prescribing capability\""
                } ]
            } ]
        }
    }, {
        "fullUrl": "urn:uuid:947025ec-d6a3-4c99-836c-eb2b26c811d9",
        "resource": {
            "resourceType": "Questionnaire",
            "id": "947025ec-d6a3-4c99-836c-eb2b26c811d9",
            "identifier": [ {
                "value": "1193164"
            } ],
            "version": "2020-10-30T09:45:23.026Z",
            "status": "active",
            "experimental": false,
            "date": "2020-10-30T09:45:23+00:00",
            "publisher": "User ID: 'HOLDENR' User name: 'Rachael Holden' User skill set: 'T3'",
            "lastReviewDate": "2020-10-30",
            "subjectType": [ "Patient" ],
            "item": [ {
                "linkId": "1193164",
                "prefix": "19900",
                "text": "STRING:SDPCFullPrimaryCareassessmentandprescribingcapability",
                "type": "choice",
                "required": true,
                "repeats": false,
                "option": [ {
                    "valueString": "\"PC full Primary Care assessment and prescribing capability\", Selected: true"
                } ]
            } ]
        }
    }, {
        "fullUrl": "urn:uuid:695c9758-74c7-44dc-819d-9c9ddfa3a4ec",
        "resource": {
            "resourceType": "QuestionnaireResponse",
            "id": "695c9758-74c7-44dc-819d-9c9ddfa3a4ec",
            "identifier": {
                "value": "1193164"
            },
            "questionnaire": {
                "reference": "urn:uuid:c6ed7a00-15a3-4ab3-93b5-1fd175ac813d"
            },
            "status": "completed",
            "subject": {
                "reference": "urn:uuid:f51f6858-7f8a-4ced-a475-8bbfc5272ea9"
            },
            "context": {
                "reference": "urn:uuid:43905d6a-a7b0-44f3-b23f-36769e808f79"
            },
            "authored": "2020-10-30T09:45:23+00:00"
        }
    }, {
        "fullUrl": "urn:uuid:c6ed7a00-15a3-4ab3-93b5-1fd175ac813d",
        "resource": {
            "resourceType": "Questionnaire",
            "id": "c6ed7a00-15a3-4ab3-93b5-1fd175ac813d",
            "identifier": [ {
                "value": "1193164"
            } ],
            "version": "2020-10-30T09:45:23.026Z",
            "status": "active",
            "experimental": false,
            "date": "2020-10-30T09:45:23+00:00",
            "publisher": "User ID: 'HOLDENR' User name: 'Rachael Holden' User skill set: 'T3'",
            "lastReviewDate": "2020-10-30",
            "subjectType": [ "Patient" ]
        }
    }, {
        "fullUrl": "urn:uuid:f2076d01-ccbf-4bbe-9f32-5ad085a61787",
        "resource": {
            "resourceType": "QuestionnaireResponse",
            "id": "f2076d01-ccbf-4bbe-9f32-5ad085a61787",
            "identifier": {
                "value": "1193164"
            },
            "questionnaire": {
                "reference": "urn:uuid:dc2041cb-5554-425c-90af-ba0e0102f2e1"
            },
            "status": "completed",
            "subject": {
                "reference": "urn:uuid:f51f6858-7f8a-4ced-a475-8bbfc5272ea9"
            },
            "context": {
                "reference": "urn:uuid:43905d6a-a7b0-44f3-b23f-36769e808f79"
            },
            "authored": "2020-10-30T09:45:23+00:00"
        }
    }, {
        "fullUrl": "urn:uuid:dc2041cb-5554-425c-90af-ba0e0102f2e1",
        "resource": {
            "resourceType": "Questionnaire",
            "id": "dc2041cb-5554-425c-90af-ba0e0102f2e1",
            "identifier": [ {
                "value": "1193164"
            } ],
            "version": "2020-10-30T09:45:23.026Z",
            "status": "active",
            "experimental": false,
            "date": "2020-10-30T09:45:23+00:00",
            "publisher": "User ID: 'HOLDENR' User name: 'Rachael Holden' User skill set: 'T3'",
            "lastReviewDate": "2020-10-30",
            "subjectType": [ "Patient" ]
        }
    }, {
        "fullUrl": "urn:uuid:bfa8b59c-a10b-4419-8423-af64ba70c556",
        "resource": {
            "resourceType": "QuestionnaireResponse",
            "id": "bfa8b59c-a10b-4419-8423-af64ba70c556",
            "identifier": {
                "value": "1193164"
            },
            "questionnaire": {
                "reference": "urn:uuid:83664981-ca2b-4e4a-a4f1-6c26933e4136"
            },
            "status": "completed",
            "subject": {
                "reference": "urn:uuid:f51f6858-7f8a-4ced-a475-8bbfc5272ea9"
            },
            "context": {
                "reference": "urn:uuid:43905d6a-a7b0-44f3-b23f-36769e808f79"
            },
            "authored": "2020-10-30T09:45:23+00:00"
        }
    }, {
        "fullUrl": "urn:uuid:83664981-ca2b-4e4a-a4f1-6c26933e4136",
        "resource": {
            "resourceType": "Questionnaire",
            "id": "83664981-ca2b-4e4a-a4f1-6c26933e4136",
            "identifier": [ {
                "value": "1193164"
            } ],
            "version": "2020-10-30T09:45:23.026Z",
            "status": "active",
            "experimental": false,
            "date": "2020-10-30T09:45:23+00:00",
            "publisher": "User ID: 'HOLDENR' User name: 'Rachael Holden' User skill set: 'T3'",
            "lastReviewDate": "2020-10-30",
            "subjectType": [ "Patient" ]
        }
    }, {
        "fullUrl": "urn:uuid:5db42715-9453-403d-946e-3e69a8ec233c",
        "resource": {
            "resourceType": "Observation",
            "id": "5db42715-9453-403d-946e-3e69a8ec233c",
            "status": "final",
            "code": {
                "coding": [ {
                    "system": "http://snomed.info/sct",
                    "code": "33962009",
                    "display": "Presenting complaint"
                } ]
            },
            "subject": {
                "reference": "urn:uuid:f51f6858-7f8a-4ced-a475-8bbfc5272ea9"
            },
            "context": {
                "reference": "urn:uuid:43905d6a-a7b0-44f3-b23f-36769e808f79"
            }
        }
    }, {
        "fullUrl": "urn:uuid:3084cc4c-3c96-40e0-9f2e-2700291eef13",
        "resource": {
            "resourceType": "PractitionerRole",
            "id": "3084cc4c-3c96-40e0-9f2e-2700291eef13",
            "practitioner": {
                "reference": "urn:uuid:f7669727-74e1-4904-a81e-c89b6e0e6728"
            },
            "organization": {
                "reference": "urn:uuid:ad8fa8f7-85c2-4466-ad9b-d422f643a13f"
            },
            "code": [ {
                "coding": [ {
                    "system": "2.16.840.1.113883.2.1.3.2.4.17.339",
                    "code": "DOCTOR",
                    "display": "Doctor"
                } ]
            } ]
        }
    }, {
        "fullUrl": "urn:uuid:ad8fa8f7-85c2-4466-ad9b-d422f643a13f",
        "resource": {
            "resourceType": "Organization",
            "id": "ad8fa8f7-85c2-4466-ad9b-d422f643a13f",
            "identifier": [ {
                "value": "RYA06"
            } ],
            "name": "WMAS - Navigation Point Call Centre (West Midlands Single Instance)"
        }
    }, {
        "fullUrl": "urn:uuid:23bd9d1b-a5b3-47cd-921b-c05b64472bdd",
        "resource": {
            "resourceType": "PractitionerRole",
            "id": "23bd9d1b-a5b3-47cd-921b-c05b64472bdd",
            "practitioner": {
                "reference": "urn:uuid:983ed73c-11e2-4826-bff9-7b895eaa4b52"
            },
            "organization": {
                "reference": "urn:uuid:0d708fc8-6c93-4083-b41b-383156e9438a"
            },
            "code": [ {
                "coding": [ {
                    "system": "2.16.840.1.113883.2.1.3.2.4.17.196",
                    "code": "R0010",
                    "display": "Medical Director"
                } ]
            } ]
        }
    }, {
        "fullUrl": "urn:uuid:0d708fc8-6c93-4083-b41b-383156e9438a",
        "resource": {
            "resourceType": "Organization",
            "id": "0d708fc8-6c93-4083-b41b-383156e9438a",
            "identifier": [ {
                "value": "RYA06"
            } ],
            "name": "West Midlands Single Instance"
        }
    }, {
        "fullUrl": "urn:uuid:9be97b99-b924-4b7f-9c00-5e7a157617f2",
        "resource": {
            "resourceType": "RelatedPerson",
            "id": "9be97b99-b924-4b7f-9c00-5e7a157617f2",
            "patient": {
                "reference": "urn:uuid:f51f6858-7f8a-4ced-a475-8bbfc5272ea9"
            },
            "relationship": {
                "coding": [ {
                    "system": "http://hl7.org/fhir/v2/0131",
                    "code": "C",
                    "display": "Emergency Contact"
                } ]
            },
            "telecom": [ {
                "system": "phone",
                "value": "tel:01204428013"
            } ]
        }
    },{
        "fullUrl": "urn:uuid:8970f844-83e0-4d6f-aa6f-ca6262ba2b93",
        "resource": {
            "resourceType": "Device",
            "id": "8970f844-83e0-4d6f-aa6f-ca6262ba2b93",
            "model": "111 Adaptor",
            "version": "0.8.0"
        }
    },{
        "fullUrl": "urn:uuid:61ab6126-0fb2-40da-a493-988f67de7ff6",
        "resource": {
            "resourceType": "List",
            "id": "61ab6126-0fb2-40da-a493-988f67de7ff6",
            "status": "current",
            "mode": "working",
            "title": "111 Report List",
            "code": {
                "coding": [ {
                    "system": "http://snomed.info/sct",
                    "code": "225390008",
                    "display": "Triage"
                } ]
            },
            "subject": {
                "reference": "urn:uuid:f51f6858-7f8a-4ced-a475-8bbfc5272ea9"
            },
            "encounter": {
                "reference": "urn:uuid:43905d6a-a7b0-44f3-b23f-36769e808f79"
            },
            "date": "2021-09-02T14:26:24+00:00",
            "source": {
                "reference": "urn:uuid:8970f844-83e0-4d6f-aa6f-ca6262ba2b93"
            },
            "orderedBy": {
                "coding": [ {
                    "system": "http://hl7.org/fhir/list-order",
                    "code": "event-date",
                    "display": "Sorted by Event Date"
                } ]
            },
            "entry": [ {
                "item": {
                    "reference": "urn:uuid:913e62cd-f47b-4d31-8221-a94f52745bcd"
                }
            }, {
                "item": {
                    "reference": "urn:uuid:983ed73c-11e2-4826-bff9-7b895eaa4b52"
                }
            }, {
                "item": {
                    "reference": "urn:uuid:ad8fa8f7-85c2-4466-ad9b-d422f643a13f"
                }
            }, {
                "item": {
                    "reference": "urn:uuid:9be97b99-b924-4b7f-9c00-5e7a157617f2"
                }
            }, {
                "item": {
                    "reference": "urn:uuid:7e266841-6609-46ff-bd7f-0ead589988f8"
                }
            }, {
                "item": {
                    "reference": "urn:uuid:f7669727-74e1-4904-a81e-c89b6e0e6728"
                }
            }, {
                "item": {
                    "reference": "urn:uuid:0d708fc8-6c93-4083-b41b-383156e9438a"
                }
            }, {
                "item": {
                    "reference": "urn:uuid:860c838b-f2e0-4e12-a4af-cbb444e5d697"
                }
            }, {
                "item": {
                    "reference": "urn:uuid:5db42715-9453-403d-946e-3e69a8ec233c"
                }
            }, {
                "item": {
                    "reference": "urn:uuid:e08afc5f-a033-4b97-a3bf-2bceea4016dd"
                }
            }, {
                "item": {
                    "reference": "urn:uuid:33bd9c34-c20f-4cde-8506-30bab473b197"
                }
            }, {
                "item": {
                    "reference": "urn:uuid:dd247ed2-0f8b-43a9-a20f-7aa24b039b4e"
                }
            }, {
                "item": {
                    "reference": "urn:uuid:073d402c-e4ba-4233-8b12-adeead15198b"
                }
            }, {
                "item": {
                    "reference": "urn:uuid:a3696dad-85db-49e9-899a-8f50ad7bad9c"
                }
            }, {
                "item": {
                    "reference": "urn:uuid:059d6dbb-33d6-496b-bc5a-df8ec255c110"
                }
            }, {
                "item": {
                    "reference": "urn:uuid:f2076d01-ccbf-4bbe-9f32-5ad085a61787"
                }
            }, {
                "item": {
                    "reference": "urn:uuid:2437b930-4535-45c8-b5a7-27e28de9ca7b"
                }
            }, {
                "item": {
                    "reference": "urn:uuid:7eff4a0b-6238-4127-9782-28a49fd72eba"
                }
            }, {
                "item": {
                    "reference": "urn:uuid:c6ed7a00-15a3-4ab3-93b5-1fd175ac813d"
                }
            }, {
                "item": {
                    "reference": "urn:uuid:3f37fdd5-524f-453d-b15b-bbf026d0975b"
                }
            }, {
                "item": {
                    "reference": "urn:uuid:4a657c7c-fe18-4aa1-8283-d440b4edceb8"
                }
            }, {
                "item": {
                    "reference": "urn:uuid:8af96f92-3e70-4e1e-97c2-dbd4777c2256"
                }
            }, {
                "item": {
                    "reference": "urn:uuid:170884cb-b45b-444b-9efd-899f491664ab"
                }
            }, {
                "item": {
                    "reference": "urn:uuid:849e7670-eeea-4646-8e3e-ee6f507826d6"
                }
            }, {
                "item": {
                    "reference": "urn:uuid:d8ed1810-adbd-4657-b083-0f3701a07f02"
                }
            }, {
                "item": {
                    "reference": "urn:uuid:bfa8b59c-a10b-4419-8423-af64ba70c556"
                }
            }, {
                "item": {
                    "reference": "urn:uuid:2612cfa1-4fc4-48b2-aabd-42f56bfebc52"
                }
            }, {
                "item": {
                    "reference": "urn:uuid:fb6335d1-c299-40db-a559-5cf0b5be4dbd"
                }
            }, {
                "item": {
                    "reference": "urn:uuid:695c9758-74c7-44dc-819d-9c9ddfa3a4ec"
                }
            }, {
                "item": {
                    "reference": "urn:uuid:a38154bb-db8b-4bfe-9ff0-4b7f220359ad"
                }
            }, {
                "item": {
                    "reference": "urn:uuid:0653ce61-4350-436d-a38f-14fc32d3fca1"
                }
            }, {
                "item": {
                    "reference": "urn:uuid:77c94cd7-7c01-4457-ae6c-43d5c6c0f774"
                }
            }, {
                "item": {
                    "reference": "urn:uuid:dc2041cb-5554-425c-90af-ba0e0102f2e1"
                }
            }, {
                "item": {
                    "reference": "urn:uuid:048b865d-a3ec-4eac-96c1-9eec9fdfb4b6"
                }
            }, {
                "item": {
                    "reference": "urn:uuid:6330b859-2201-458a-929d-f952fae18059"
                }
            }, {
                "item": {
                    "reference": "urn:uuid:e41de73f-d2f4-414d-a07f-511c4293f363"
                }
            }, {
                "item": {
                    "reference": "urn:uuid:3e7cb5b3-2101-4015-9e3d-7afe7240c475"
                }
            }, {
                "item": {
                    "reference": "urn:uuid:dff312cb-6a9e-422a-96f7-d09b20bf17ee"
                }
            }, {
                "item": {
                    "reference": "urn:uuid:94150889-98f4-4eed-ae21-5b5a45cea813"
                }
            }, {
                "item": {
                    "reference": "urn:uuid:14105fa7-81a4-4cd8-b685-4335aec8cc32"
                }
            }, {
                "item": {
                    "reference": "urn:uuid:947025ec-d6a3-4c99-836c-eb2b26c811d9"
                }
            }, {
                "item": {
                    "reference": "urn:uuid:da101f5b-c608-4e3b-8a82-5c6224d1a2b3"
                }
            }, {
                "item": {
                    "reference": "urn:uuid:c3ab087b-5b74-49c9-ad3c-88db0072eb8e"
                }
            }, {
                "item": {
                    "reference": "urn:uuid:c82d5236-97a6-40ec-8b10-bfb6cd0c73a8"
                }
            }, {
                "item": {
                    "reference": "urn:uuid:75256949-89be-4bbf-bf47-c87457c1e0e5"
                }
            }, {
                "item": {
                    "reference": "urn:uuid:4983b9e3-eb71-4cda-ac67-ae4bc6e68fdc"
                }
            }, {
                "item": {
                    "reference": "urn:uuid:359b9326-c451-4c8f-9277-a5f239bad34b"
                }
            }, {
                "item": {
                    "reference": "urn:uuid:adbe9672-dd8a-4aa0-be9b-1d35bb7471f8"
                }
            }, {
                "item": {
                    "reference": "urn:uuid:0c3b7f31-6879-4432-aa56-b0977bd865ad"
                }
            }, {
                "item": {
                    "reference": "urn:uuid:833e6f37-53ed-497f-a85e-effa61a909c0"
                }
            }, {
                "item": {
                    "reference": "urn:uuid:bb2ee9ce-4cce-4e72-bf67-386fd9b0609f"
                }
            }, {
                "item": {
                    "reference": "urn:uuid:7e272d57-873b-4292-842e-b520f2d19543"
                }
            }, {
                "item": {
                    "reference": "urn:uuid:83664981-ca2b-4e4a-a4f1-6c26933e4136"
                }
            }, {
                "item": {
                    "reference": "urn:uuid:100e61a9-7f76-4922-af8d-c9e731d4bf03"
                }
            }, {
                "item": {
                    "reference": "urn:uuid:98af052b-4f02-407a-8272-6a80d61ded61"
                }
            }, {
                "item": {
                    "reference": "urn:uuid:f5baa29a-186e-485f-9587-7b1a27f882f9"
                }
            } ]
        }
    } ]
}