{
  "resourceType": "Bundle",
  "identifier": {
    "type": {
      "text": "ClinicalDocument VersionNumber"
    },
    "value": "1"
  },
  "type": "message",
  "entry": [ {
    "fullUrl": "urn:uuid:2B77B3F5-3016-4A6D-821F-152CE420E58D",
    "resource": {
      "resourceType": "MessageHeader",
      "id": "2B77B3F5-3016-4A6D-821F-152CE420E58D",
      "event": {
        "system": "https://fhir.nhs.uk/STU3/CodeSystem/EventType-1",
        "code": "referral-1",
        "display": "Referral"
      },
      "destination": [ {
        "endpoint": "urn:nhs-uk:addressing:ods:EM396:DOSServiceID:26428"
      } ],
      "timestamp": "2025-10-30T09:45:22.000+00:00",
      "source": {
        "name": "NHS 111 Adaptor",
        "endpoint": "http://localhost:8080/report"
      },
      "reason": {
        "coding": [ {
          "system": "urn:nhs-itk:ns:201005:interaction",
          "code": "urn:nhs-itk:interaction:primaryNHS111RepeatCallerDocumentSet-v1-0"
        } ]
      }
    }
  }, {
    "fullUrl": "urn:uuid:5dec0cab-8575-4c62-bd44-d0aae0ff75d0",
    "resource": {
      "resourceType": "Encounter",
      "id": "5dec0cab-8575-4c62-bd44-d0aae0ff75d0",
      "identifier": [ {
        "system": "2.16.840.1.113883.2.1.3.2.4.18.34",
        "value": "D47E4F49-D4B8-4913-85B9-64AF5523B268"
      }, {
        "system": "2.16.840.1.113883.2.1.3.2.4.18.35",
        "value": "1193164"
      } ],
      "status": "finished",
      "type": [ {
        "text": "111 Encounter Referral"
      } ],
      "subject": {
        "reference": "urn:uuid:706acbc3-1f6c-4edb-b5c9-02860acf493d"
      },
      "participant": [ {
        "type": [ {
          "coding": [ {
            "system": "http://hl7.org/fhir/ValueSet/encounter-participant-type",
            "code": "PPRF",
            "display": "Author"
          } ]
        } ],
        "individual": {
          "reference": "urn:uuid:68218c12-2beb-4dd3-9d2c-5df52b952628"
        }
      }, {
        "type": [ {
          "coding": [ {
            "system": "http://hl7.org/fhir/ValueSet/encounter-participant-type",
            "code": "ATND",
            "display": "Responsible Party"
          } ]
        } ],
        "individual": {
          "reference": "urn:uuid:0cf4f86f-b61e-4625-b37d-b75a1254ab61"
        }
      } ],
      "period": {
        "start": "2025-10-30T09:45:22+00:00"
      },
      "location": [ {
        "location": {
          "reference": "urn:uuid:ea0f4a48-c434-4d84-b2c9-eb5cc5617e0c"
        },
        "status": "active"
      }, {
        "location": {
          "reference": "urn:uuid:204a7684-852e-483d-95a7-4b77fe332cca"
        },
        "status": "completed"
      } ],
      "serviceProvider": {
        "reference": "urn:uuid:a5c5b609-bb92-496c-9386-ce76455f416e"
      }
    }
  }, {
    "fullUrl": "urn:uuid:a5c5b609-bb92-496c-9386-ce76455f416e",
    "resource": {
      "resourceType": "Organization",
      "id": "a5c5b609-bb92-496c-9386-ce76455f416e",
      "active": true,
      "type": [ {
        "text": "CST"
      } ],
      "name": "West Midlands Single Instance"
    }
  }, {
    "fullUrl": "urn:uuid:68218c12-2beb-4dd3-9d2c-5df52b952628",
    "resource": {
      "resourceType": "Practitioner",
      "id": "68218c12-2beb-4dd3-9d2c-5df52b952628",
      "active": true,
      "name": [ {
        "use": "official"
      } ]
    }
  }, {
    "fullUrl": "urn:uuid:0cf4f86f-b61e-4625-b37d-b75a1254ab61",
    "resource": {
      "resourceType": "Practitioner",
      "id": "0cf4f86f-b61e-4625-b37d-b75a1254ab61",
      "active": true,
      "name": [ {
        "use": "official",
        "family": "Walker",
        "given": [ "Alison" ]
      } ]
    }
  }, {
    "fullUrl": "urn:uuid:ea0f4a48-c434-4d84-b2c9-eb5cc5617e0c",
    "resource": {
      "resourceType": "Location",
      "id": "ea0f4a48-c434-4d84-b2c9-eb5cc5617e0c",
      "managingOrganization": {
        "reference": "urn:uuid:092ac7d2-6e43-45b5-96c1-1b1d24de5eef"
      }
    }
  }, {
    "fullUrl": "urn:uuid:092ac7d2-6e43-45b5-96c1-1b1d24de5eef",
    "resource": {
      "resourceType": "Organization",
      "id": "092ac7d2-6e43-45b5-96c1-1b1d24de5eef",
      "identifier": [ {
        "value": "F81718"
      } ],
      "type": [ {
        "text": "GP Practice"
      } ],
      "name": "LYDIA HOUSE PRACTICE"
    }
  }, {
    "fullUrl": "urn:uuid:204a7684-852e-483d-95a7-4b77fe332cca",
    "resource": {
      "resourceType": "Location",
      "id": "204a7684-852e-483d-95a7-4b77fe332cca",
      "name": "Incident Location",
      "address": {
        "type": "physical",
        "line": [ "Whitchurch Hospital", "Claypit Street", "Whitchurch", "Shropshire" ],
        "postalCode": "SY13 1NT"
      }
    }
  }, {
    "fullUrl": "urn:uuid:706acbc3-1f6c-4edb-b5c9-02860acf493d",
    "resource": {
      "resourceType": "Patient",
      "id": "706acbc3-1f6c-4edb-b5c9-02860acf493d",
      "identifier": [ {
        "extension": [ {
          "url": "https://fhir.hl7.org.uk/STU3/StructureDefinition/Extension-CareConnect-NHSNumberVerificationStatus-1",
          "valueCodeableConcept": {
            "coding": [ {
              "system": "https://fhir.hl7.org.uk/STU3/StructureDefinition/Extension-CareConnect-NHSNumberVerificationStatus-1",
              "code": "01"
            } ]
          }
        } ],
        "system": "https://fhir.nhs.uk/Id/nhs-number",
        "value": "9990238359"
      } ],
      "active": true,
      "name": [ {
        "use": "official",
        "family": "Xxtestpatientdzadn",
        "given": [ "Scrdonotuse" ]
      } ],
      "telecom": [ {
        "system": "phone",
        "value": "tel:01204428013",
        "use": "home"
      }, {
        "system": "phone",
        "value": "tel:01204428013"
      } ],
      "gender": "female",
      "birthDate": "1965-02-17",
      "address": [ {
        "use": "home",
        "line": [ "Test Address", "Captain Lees Road", "Westhoughton", "Bolton", "Greater Manchester" ],
        "postalCode": "BL5 3UB"
      }, {
        "type": "physical",
        "line": [ "Whitchurch Hospital", "Claypit Street", "Whitchurch", "Shropshire" ],
        "postalCode": "SY13 1NT"
      } ],
      "generalPractitioner": [ {
        "reference": "urn:uuid:d57605f6-e2b1-4ed9-b4b4-27bfa6819d0e"
      } ]
    }
  }, {
    "fullUrl": "urn:uuid:d57605f6-e2b1-4ed9-b4b4-27bfa6819d0e",
    "resource": {
      "resourceType": "Organization",
      "id": "d57605f6-e2b1-4ed9-b4b4-27bfa6819d0e",
      "identifier": [ {
        "value": "F81718"
      } ],
      "type": [ {
        "text": "GP Practice"
      } ],
      "name": "LYDIA HOUSE PRACTICE"
    }
  }, {
    "fullUrl": "urn:uuid:19b094a8-7aef-4367-b804-c5d4bfce2475",
    "resource": {
      "resourceType": "HealthcareService",
      "id": "19b094a8-7aef-4367-b804-c5d4bfce2475",
      "active": true,
      "providedBy": {
        "reference": "urn:uuid:6960e180-7c34-4a34-be76-a5ea08eaf7be"
      },
      "location": [ {
        "reference": "urn:uuid:d76c97c3-c768-4e9c-af4b-b1d801a29810"
      } ],
      "name": "Repeat Caller - Live (v2)"
    }
  }, {
    "fullUrl": "urn:uuid:d76c97c3-c768-4e9c-af4b-b1d801a29810",
    "resource": {
      "resourceType": "Location",
      "id": "d76c97c3-c768-4e9c-af4b-b1d801a29810",
      "managingOrganization": {
        "reference": "urn:uuid:6960e180-7c34-4a34-be76-a5ea08eaf7be"
      }
    }
  }, {
    "fullUrl": "urn:uuid:6960e180-7c34-4a34-be76-a5ea08eaf7be",
    "resource": {
      "resourceType": "Organization",
      "id": "6960e180-7c34-4a34-be76-a5ea08eaf7be",
      "identifier": [ {
        "value": "RHY25"
      } ],
      "type": [ {
        "coding": [ {
          "code": "PRCP",
          "display": "Repeat Caller - Live (v2)"
        } ]
      } ],
      "name": "Repeat Caller - Live (v2)"
    }
  }, {
    "fullUrl": "urn:uuid:b0adc08a-d73e-41ee-9160-1174b2e8aef4",
    "resource": {
      "resourceType": "ReferralRequest",
      "id": "b0adc08a-d73e-41ee-9160-1174b2e8aef4",
      "status": "active",
      "intent": "plan",
      "priority": "routine",
      "subject": {
        "reference": "urn:uuid:706acbc3-1f6c-4edb-b5c9-02860acf493d"
      },
      "context": {
        "reference": "urn:uuid:5dec0cab-8575-4c62-bd44-d0aae0ff75d0"
      },
      "occurrencePeriod": {
        "start": "2021-09-29T10:03:04+00:00",
        "end": "2021-09-29T11:03:04+00:00"
      },
      "authoredOn": "2020-10-30T09:44:13+00:00",
      "requester": {
        "agent": {
          "reference": "urn:uuid:80758f5a-86e7-45a3-a5c5-e718dc2ef383"
        },
        "onBehalfOf": {
          "reference": "urn:uuid:a5c5b609-bb92-496c-9386-ce76455f416e"
        }
      },
      "recipient": [ {
        "reference": "urn:uuid:19b094a8-7aef-4367-b804-c5d4bfce2475"
      } ],
      "reasonReference": [ {
        "reference": "urn:uuid:6a710d44-c9a4-4fb7-b4cd-0022e903dfa4"
      } ],
      "supportingInfo": [ {
        "reference": "urn:uuid:6a557107-602e-4d75-80ed-25fe50517a78"
      } ]
    }
  }, {
    "fullUrl": "urn:uuid:6a557107-602e-4d75-80ed-25fe50517a78",
    "resource": {
      "resourceType": "ProcedureRequest",
      "id": "6a557107-602e-4d75-80ed-25fe50517a78",
      "status": "active",
      "intent": "plan",
      "priority": "routine",
      "doNotPerform": false,
      "code": {
        "coding": [ {
          "system": "2.16.840.1.113883.2.1.3.2.4.17.325",
          "code": "Dx05",
          "display": "To contact a local service within 2 hours"
        } ]
      },
      "subject": {
        "reference": "urn:uuid:706acbc3-1f6c-4edb-b5c9-02860acf493d"
      },
      "occurrencePeriod": {
        "start": "2021-09-29T10:03:04+00:00",
        "end": "2021-09-29T11:03:04+00:00"
      },
      "reasonReference": [ {
        "reference": "urn:uuid:6a710d44-c9a4-4fb7-b4cd-0022e903dfa4"
      } ]
    }
  }, {
    "fullUrl": "urn:uuid:749f299d-e1c4-44d6-b07b-d0ca5b332b38",
    "resource": {
      "resourceType": "Composition",
      "id": "749f299d-e1c4-44d6-b07b-d0ca5b332b38",
      "identifier": {
        "use": "usual",
        "value": "499BEC45-8F01-498C-A61F-B8AC124ED50E"
      },
      "status": "final",
      "type": {
        "coding": [ {
          "system": "http://snomed.info/sct",
          "code": "371531000",
          "display": "Report of clinical encounter (record artifact)"
        } ]
      },
      "subject": {
        "reference": "urn:uuid:706acbc3-1f6c-4edb-b5c9-02860acf493d"
      },
      "encounter": {
        "reference": "urn:uuid:5dec0cab-8575-4c62-bd44-d0aae0ff75d0"
      },
      "date": "2021-09-29T10:03:04+00:00",
      "author": [ {
        "reference": "urn:uuid:68218c12-2beb-4dd3-9d2c-5df52b952628"
      } ],
      "title": "111 Report",
      "confidentiality": "N",
      "section": [ {
        "section": [ {
          "title": "Patient's Reported Condition",
          "text": {
            "status": "generated",
            "div": "<div xmlns=\"http://www.w3.org/1999/xhtml\">&lt;br/&gt;WHITCHURCH MIU TEST</div>"
          }
        }, {
          "title": "Pathways Disposition",
          "text": {
            "status": "generated",
            "div": "<div xmlns=\"http://www.w3.org/1999/xhtml\">&lt;br/&gt;\n                                                    &lt;br/&gt;\n                                                    &lt;br/&gt;To contact a local service within 2 hours (Dx05)\n\n                                                    Selected service: DO NOT BOOK APPOINTMENT - TESTING Whitchurch Minor Injury Unit</div>"
          }
        }, {
          "title": "Consultation Summary",
          "text": {
            "status": "generated",
            "div": "<div xmlns=\"http://www.w3.org/1999/xhtml\">&lt;br/&gt;\n                                                    &lt;br/&gt;\n                                                    &lt;br/&gt;\n                                                    &lt;br/&gt;\n                                                    &lt;br/&gt;InjuryBite or stingInsect or spider biteSting/bite more than 6 hours agoVery severe, deep limb pain</div>"
          }
        }, {
          "title": "Pathways Assessment",
          "text": {
            "status": "generated",
            "div": "<div xmlns=\"http://www.w3.org/1999/xhtml\">&lt;br/&gt;\n                                                    &lt;br/&gt;\n                                                    &lt;br/&gt;\n                                                    &lt;br/&gt;\n                                                    &lt;br/&gt;\n                                                    &lt;br/&gt;\n                                                    &lt;br/&gt;\n                                                    &lt;br/&gt;\n                                                    &lt;br/&gt;\n                                                    &lt;br/&gt;\n                                                    &lt;br/&gt;\n                                                    &lt;br/&gt;\n                                                    &lt;br/&gt;\n                                                    &lt;br/&gt;\n                                                    &lt;br/&gt;\n                                                    &lt;br/&gt;\n                                                    &lt;br/&gt;\n                                                    &lt;br/&gt;An injury or health problem was the reason for the contact.Heavy bleeding had not occurred in the previous 2 hours.An injury or symptom relating to an injury was the main problem.User Comments: TESTThere was a minor injury (a bite or sting).User Comments: TESTPathway selected - Bites and StingsThe bite or sting was caused by an insect or spider.User Comments: TESTThe sting/bite had not occurred within the previous 6 hours.The individual had been stung less than 10 timesThe individual was not experiencing nausea and/or vomiting.The sting did not involve the eyes, mouth or limb.There was no insect/insect part remaining attached to the skinThere was very severe, deep pain.Instructions given were: The individual needs to contact a local service within 2 hours.Directory of Services referral: DO NOT BOOK APPOINTMENT - TESTING Whitchurch Minor Injury UnitAdvice given:\n                                                    Worsening</div>"
          }
        }, {
          "title": "Advice Given",
          "text": {
            "status": "generated",
            "div": "<div xmlns=\"http://www.w3.org/1999/xhtml\">&lt;br/&gt;\n                                                    &lt;br/&gt;If there are any new symptoms, or if the condition gets worse, changes or you have any other concerns, call us back.</div>"
          }
        }, {
          "title": "Special Patient Notes",
          "text": {
            "status": "generated",
            "div": "<div xmlns=\"http://www.w3.org/1999/xhtml\">&lt;content styleCode=&quot;bold&quot;&gt;Note:&lt;/content&gt;\n                                                    &lt;br/&gt;\n                                                    &lt;content&gt;TEST NOTE West Midlands Single Instance&lt;/content&gt;\n                                                    &lt;br/&gt;\n                                                    &lt;br/&gt;Special Notes from an external system were flagged as being present for this patient.</div>"
          }
        } ]
      }, {
        "title": "ReferralRequest",
        "entry": [ {
          "reference": "urn:uuid:b0adc08a-d73e-41ee-9160-1174b2e8aef4"
        } ]
      }, {
        "title": "QuestionnaireResponse",
        "entry": [ {
          "reference": "urn:uuid:e12382da-0b54-41fb-a137-d83e50c61c7e"
        } ]
      }, {
        "title": "QuestionnaireResponse",
        "entry": [ {
          "reference": "urn:uuid:f07effa9-74e1-433d-b324-4c801ef1fbf6"
        } ]
      }, {
        "title": "QuestionnaireResponse",
        "entry": [ {
          "reference": "urn:uuid:3f9c3268-0d4a-45ef-a3b4-fa8edf3169c8"
        } ]
      }, {
        "title": "QuestionnaireResponse",
        "entry": [ {
          "reference": "urn:uuid:b92e69f9-7603-4bbc-bc62-cf7b8c9a42b6"
        } ]
      }, {
        "title": "QuestionnaireResponse",
        "entry": [ {
          "reference": "urn:uuid:d184a7db-436d-47d8-af70-957f1432a439"
        } ]
      }, {
        "title": "QuestionnaireResponse",
        "entry": [ {
          "reference": "urn:uuid:b23b7fd5-c02a-4d38-98c5-8aa27f3c1847"
        } ]
      }, {
        "title": "QuestionnaireResponse",
        "entry": [ {
          "reference": "urn:uuid:2c90cfec-86f6-4376-a163-86e293135639"
        } ]
      }, {
        "title": "QuestionnaireResponse",
        "entry": [ {
          "reference": "urn:uuid:7f7904b7-b69d-4ff5-8cce-a6f7f8e170ac"
        } ]
      }, {
        "title": "QuestionnaireResponse",
        "entry": [ {
          "reference": "urn:uuid:1c4ba390-6382-4339-a716-2245320cb714"
        } ]
      }, {
        "title": "QuestionnaireResponse",
        "entry": [ {
          "reference": "urn:uuid:7eb0a8be-91c1-49ed-a827-1290821aa391"
        } ]
      }, {
        "title": "QuestionnaireResponse",
        "entry": [ {
          "reference": "urn:uuid:d48e887c-de26-42ad-8089-6859a3ae5f1b"
        } ]
      }, {
        "title": "QuestionnaireResponse",
        "entry": [ {
          "reference": "urn:uuid:623ef982-c6b8-4cd6-9ae0-7bfd68a1c6b1"
        } ]
      }, {
        "title": "QuestionnaireResponse",
        "entry": [ {
          "reference": "urn:uuid:d504cbe6-0087-4aab-8e32-81767d7b96fc"
        } ]
      }, {
        "title": "QuestionnaireResponse",
        "entry": [ {
          "reference": "urn:uuid:e70016c1-eb87-476f-9c3e-2d190d812b31"
        } ]
      }, {
        "title": "QuestionnaireResponse",
        "entry": [ {
          "reference": "urn:uuid:6cc22ce2-d82b-4f61-8a7e-e64430769292"
        } ]
      }, {
        "title": "QuestionnaireResponse",
        "entry": [ {
          "reference": "urn:uuid:82ea875b-c4fb-4fcb-a2de-09619f997130"
        } ]
      }, {
        "title": "QuestionnaireResponse",
        "entry": [ {
          "reference": "urn:uuid:eda7aa29-6c95-4305-9e41-ec4cd769f6f2"
        } ]
      }, {
        "title": "QuestionnaireResponse",
        "entry": [ {
          "reference": "urn:uuid:f4169888-6440-4c06-92d5-cf043b2ae330"
        } ]
      }, {
        "title": "QuestionnaireResponse",
        "entry": [ {
          "reference": "urn:uuid:20954e52-6636-4b4c-8251-a1de36d65049"
        } ]
      }, {
        "title": "QuestionnaireResponse",
        "entry": [ {
          "reference": "urn:uuid:4fe0c95a-deba-4d90-ab3c-17941af00d6a"
        } ]
      }, {
        "title": "QuestionnaireResponse",
        "entry": [ {
          "reference": "urn:uuid:5b2c518a-b788-48a2-9e5c-860d90ec7df2"
        } ]
      }, {
        "title": "QuestionnaireResponse",
        "entry": [ {
          "reference": "urn:uuid:6c238be1-da3d-4156-8318-f3525f3353ad"
        } ]
      } ]
    }
  }, {
    "fullUrl": "urn:uuid:276ecd74-f364-45cc-86c8-67990f432683",
    "resource": {
      "resourceType": "Consent",
      "id": "276ecd74-f364-45cc-86c8-67990f432683",
      "identifier": {
        "use": "usual",
        "value": "499BEC45-8F01-498C-A61F-B8AC124ED50E"
      },
      "status": "active",
      "patient": {
        "reference": "urn:uuid:706acbc3-1f6c-4edb-b5c9-02860acf493d"
      },
      "period": {
        "start": "2025-10-30T09:45:22+00:00"
      },
      "consentingParty": [ {
        "reference": "urn:uuid:706acbc3-1f6c-4edb-b5c9-02860acf493d"
      } ],
      "action": [ {
        "coding": [ {
          "system": "http://snomed.info/sct",
          "code": "425691002",
          "display": "Consent given for electronic record sharing"
        } ],
        "text": "Consent given for electronic record sharing"
      } ],
      "organization": [ {
        "reference": "urn:uuid:a5c5b609-bb92-496c-9386-ce76455f416e"
      } ],
      "policyRule": "http://hl7.org/fhir/ConsentPolicy/opt-out",
      "data": [ {
        "meaning": "related",
        "reference": {
          "reference": "urn:uuid:5dec0cab-8575-4c62-bd44-d0aae0ff75d0"
        }
      } ]
    }
  }, {
    "fullUrl": "urn:uuid:6a710d44-c9a4-4fb7-b4cd-0022e903dfa4",
    "resource": {
      "resourceType": "Condition",
      "id": "6a710d44-c9a4-4fb7-b4cd-0022e903dfa4",
      "clinicalStatus": "active",
      "verificationStatus": "unknown",
      "subject": {
        "reference": "urn:uuid:706acbc3-1f6c-4edb-b5c9-02860acf493d"
      },
      "context": {
        "reference": "urn:uuid:5dec0cab-8575-4c62-bd44-d0aae0ff75d0"
      },
      "evidence": [ {
        "detail": [ {
          "reference": "urn:uuid:e12382da-0b54-41fb-a137-d83e50c61c7e"
        } ]
      }, {
        "detail": [ {
          "reference": "urn:uuid:f07effa9-74e1-433d-b324-4c801ef1fbf6"
        } ]
      }, {
        "detail": [ {
          "reference": "urn:uuid:3f9c3268-0d4a-45ef-a3b4-fa8edf3169c8"
        } ]
      }, {
        "detail": [ {
          "reference": "urn:uuid:b92e69f9-7603-4bbc-bc62-cf7b8c9a42b6"
        } ]
      }, {
        "detail": [ {
          "reference": "urn:uuid:d184a7db-436d-47d8-af70-957f1432a439"
        } ]
      }, {
        "detail": [ {
          "reference": "urn:uuid:b23b7fd5-c02a-4d38-98c5-8aa27f3c1847"
        } ]
      }, {
        "detail": [ {
          "reference": "urn:uuid:2c90cfec-86f6-4376-a163-86e293135639"
        } ]
      }, {
        "detail": [ {
          "reference": "urn:uuid:7f7904b7-b69d-4ff5-8cce-a6f7f8e170ac"
        } ]
      }, {
        "detail": [ {
          "reference": "urn:uuid:1c4ba390-6382-4339-a716-2245320cb714"
        } ]
      }, {
        "detail": [ {
          "reference": "urn:uuid:7eb0a8be-91c1-49ed-a827-1290821aa391"
        } ]
      }, {
        "detail": [ {
          "reference": "urn:uuid:d48e887c-de26-42ad-8089-6859a3ae5f1b"
        } ]
      }, {
        "detail": [ {
          "reference": "urn:uuid:623ef982-c6b8-4cd6-9ae0-7bfd68a1c6b1"
        } ]
      }, {
        "detail": [ {
          "reference": "urn:uuid:d504cbe6-0087-4aab-8e32-81767d7b96fc"
        } ]
      }, {
        "detail": [ {
          "reference": "urn:uuid:e70016c1-eb87-476f-9c3e-2d190d812b31"
        } ]
      }, {
        "detail": [ {
          "reference": "urn:uuid:6cc22ce2-d82b-4f61-8a7e-e64430769292"
        } ]
      }, {
        "detail": [ {
          "reference": "urn:uuid:82ea875b-c4fb-4fcb-a2de-09619f997130"
        } ]
      }, {
        "detail": [ {
          "reference": "urn:uuid:eda7aa29-6c95-4305-9e41-ec4cd769f6f2"
        } ]
      }, {
        "detail": [ {
          "reference": "urn:uuid:f4169888-6440-4c06-92d5-cf043b2ae330"
        } ]
      }, {
        "detail": [ {
          "reference": "urn:uuid:20954e52-6636-4b4c-8251-a1de36d65049"
        } ]
      }, {
        "detail": [ {
          "reference": "urn:uuid:4fe0c95a-deba-4d90-ab3c-17941af00d6a"
        } ]
      }, {
        "detail": [ {
          "reference": "urn:uuid:5b2c518a-b788-48a2-9e5c-860d90ec7df2"
        } ]
      }, {
        "detail": [ {
          "reference": "urn:uuid:6c238be1-da3d-4156-8318-f3525f3353ad"
        } ]
      } ]
    }
  }, {
    "fullUrl": "urn:uuid:e12382da-0b54-41fb-a137-d83e50c61c7e",
    "resource": {
      "resourceType": "QuestionnaireResponse",
      "id": "e12382da-0b54-41fb-a137-d83e50c61c7e",
      "identifier": {
        "value": "1193164"
      },
      "questionnaire": {
        "reference": "urn:uuid:64474cc2-9a8c-49f6-94ea-80d1e7ebbe73"
      },
      "status": "completed",
      "subject": {
        "reference": "urn:uuid:706acbc3-1f6c-4edb-b5c9-02860acf493d"
      },
      "context": {
        "reference": "urn:uuid:5dec0cab-8575-4c62-bd44-d0aae0ff75d0"
      },
      "authored": "2020-10-30T09:45:23+00:00",
      "item": [ {
        "linkId": "Tx220074",
        "text": "What is the reason for the contact?",
        "answer": [ {
          "valueString": "an injury or other health problem"
        } ]
      } ]
    }
  }, {
    "fullUrl": "urn:uuid:64474cc2-9a8c-49f6-94ea-80d1e7ebbe73",
    "resource": {
      "resourceType": "Questionnaire",
      "id": "64474cc2-9a8c-49f6-94ea-80d1e7ebbe73",
      "identifier": [ {
        "value": "1193164"
      } ],
      "version": "2020-10-30T09:45:23.026Z",
      "status": "active",
      "experimental": false,
      "date": "2020-10-30T09:45:23+00:00",
      "publisher": "User ID: 'HOLDENR' User name: 'Rachael Holden' User skill set: 'T3'",
      "lastReviewDate": "2020-10-30",
      "subjectType": [ "Patient" ],
      "item": [ {
        "linkId": "1193164",
        "prefix": "5",
        "text": "What is the reason for the contact?",
        "type": "choice",
        "required": true,
        "repeats": false,
        "option": [ {
          "valueString": "an injury or other health problem, Selected: true"
        }, {
          "valueString": "labour or childbirth, Selected: false"
        }, {
          "valueString": "a need to access another healthcare service, Selected: false"
        }, {
          "valueString": "a healthcare professional requesting contact with another clinician, Selected: false"
        }, {
          "valueString": "a report of results or tests, Selected: false"
        }, {
          "valueString": "a possible failure of contraception, Selected: false"
        }, {
          "valueString": "more, Selected: false"
        } ]
      } ]
    }
  }, {
    "fullUrl": "urn:uuid:f07effa9-74e1-433d-b324-4c801ef1fbf6",
    "resource": {
      "resourceType": "QuestionnaireResponse",
      "id": "f07effa9-74e1-433d-b324-4c801ef1fbf6",
      "identifier": {
        "value": "1193164"
      },
      "questionnaire": {
        "reference": "urn:uuid:9cd92511-f383-41b1-a258-ae48000e8dec"
      },
      "status": "completed",
      "subject": {
        "reference": "urn:uuid:706acbc3-1f6c-4edb-b5c9-02860acf493d"
      },
      "context": {
        "reference": "urn:uuid:5dec0cab-8575-4c62-bd44-d0aae0ff75d0"
      },
      "authored": "2020-10-30T09:45:23+00:00",
      "item": [ {
        "linkId": "Tx221807",
        "text": "STRING:to'Immediatethreatstolife(SPA/OOHversion)'-'Majorbloodloss'stem",
        "answer": [ {
          "valueString": "\"present\""
        } ]
      } ]
    }
  }, {
    "fullUrl": "urn:uuid:9cd92511-f383-41b1-a258-ae48000e8dec",
    "resource": {
      "resourceType": "Questionnaire",
      "id": "9cd92511-f383-41b1-a258-ae48000e8dec",
      "identifier": [ {
        "value": "1193164"
      } ],
      "version": "2020-10-30T09:45:23.026Z",
      "status": "active",
      "experimental": false,
      "date": "2020-10-30T09:45:23+00:00",
      "publisher": "User ID: 'HOLDENR' User name: 'Rachael Holden' User skill set: 'T3'",
      "lastReviewDate": "2020-10-30",
      "subjectType": [ "Patient" ],
      "item": [ {
        "linkId": "1193164",
        "prefix": "200",
        "text": "STRING:to'Immediatethreatstolife(SPA/OOHversion)'-'Majorbloodloss'stem",
        "type": "choice",
        "required": true,
        "repeats": false,
        "option": [ {
          "valueString": "\"present\", Selected: true"
        } ]
      } ]
    }
  }, {
    "fullUrl": "urn:uuid:3f9c3268-0d4a-45ef-a3b4-fa8edf3169c8",
    "resource": {
      "resourceType": "QuestionnaireResponse",
      "id": "3f9c3268-0d4a-45ef-a3b4-fa8edf3169c8",
      "identifier": {
        "value": "1193164"
      },
      "questionnaire": {
        "reference": "urn:uuid:6d747f03-f786-446a-9456-0037fa4586c4"
      },
      "status": "completed",
      "subject": {
        "reference": "urn:uuid:706acbc3-1f6c-4edb-b5c9-02860acf493d"
      },
      "context": {
        "reference": "urn:uuid:5dec0cab-8575-4c62-bd44-d0aae0ff75d0"
      },
      "authored": "2020-10-30T09:45:23+00:00"
    }
  }, {
    "fullUrl": "urn:uuid:6d747f03-f786-446a-9456-0037fa4586c4",
    "resource": {
      "resourceType": "Questionnaire",
      "id": "6d747f03-f786-446a-9456-0037fa4586c4",
      "identifier": [ {
        "value": "1193164"
      } ],
      "version": "2020-10-30T09:45:23.026Z",
      "status": "active",
      "experimental": false,
      "date": "2020-10-30T09:45:23+00:00",
      "publisher": "User ID: 'HOLDENR' User name: 'Rachael Holden' User skill set: 'T3'",
      "lastReviewDate": "2020-10-30",
      "subjectType": [ "Patient" ]
    }
  }, {
    "fullUrl": "urn:uuid:b92e69f9-7603-4bbc-bc62-cf7b8c9a42b6",
    "resource": {
      "resourceType": "QuestionnaireResponse",
      "id": "b92e69f9-7603-4bbc-bc62-cf7b8c9a42b6",
      "identifier": {
        "value": "1193164"
      },
      "questionnaire": {
        "reference": "urn:uuid:b97cd131-b427-48f3-9681-1ce4d6ebc5ff"
      },
      "status": "completed",
      "subject": {
        "reference": "urn:uuid:706acbc3-1f6c-4edb-b5c9-02860acf493d"
      },
      "context": {
        "reference": "urn:uuid:5dec0cab-8575-4c62-bd44-d0aae0ff75d0"
      },
      "authored": "2020-10-30T09:45:23+00:00",
      "item": [ {
        "linkId": "Tx221799",
        "text": "STRING:injury,illnessorlabourestablishedinEntryFlow",
        "answer": [ {
          "valueString": "\"present\""
        } ]
      } ]
    }
  }, {
    "fullUrl": "urn:uuid:b97cd131-b427-48f3-9681-1ce4d6ebc5ff",
    "resource": {
      "resourceType": "Questionnaire",
      "id": "b97cd131-b427-48f3-9681-1ce4d6ebc5ff",
      "identifier": [ {
        "value": "1193164"
      } ],
      "version": "2020-10-30T09:45:23.026Z",
      "status": "active",
      "experimental": false,
      "date": "2020-10-30T09:45:23+00:00",
      "publisher": "User ID: 'HOLDENR' User name: 'Rachael Holden' User skill set: 'T3'",
      "lastReviewDate": "2020-10-30",
      "subjectType": [ "Patient" ],
      "item": [ {
        "linkId": "1193164",
        "prefix": "0",
        "text": "STRING:injury,illnessorlabourestablishedinEntryFlow",
        "type": "choice",
        "required": true,
        "repeats": false,
        "option": [ {
          "valueString": "\"present\", Selected: true"
        } ]
      } ]
    }
  }, {
    "fullUrl": "urn:uuid:d184a7db-436d-47d8-af70-957f1432a439",
    "resource": {
      "resourceType": "QuestionnaireResponse",
      "id": "d184a7db-436d-47d8-af70-957f1432a439",
      "identifier": {
        "value": "1193164"
      },
      "questionnaire": {
        "reference": "urn:uuid:0868adcc-1bde-4bbc-98cc-efc2d5ee108d"
      },
      "status": "completed",
      "subject": {
        "reference": "urn:uuid:706acbc3-1f6c-4edb-b5c9-02860acf493d"
      },
      "context": {
        "reference": "urn:uuid:5dec0cab-8575-4c62-bd44-d0aae0ff75d0"
      },
      "authored": "2020-10-30T09:45:23+00:00",
      "item": [ {
        "linkId": "Tx224120",
        "text": "Have you been bleeding RED BLOOD very heavily IN THE LAST 2 HOURS?",
        "answer": [ {
          "valueString": "no"
        } ]
      } ]
    }
  }, {
    "fullUrl": "urn:uuid:0868adcc-1bde-4bbc-98cc-efc2d5ee108d",
    "resource": {
      "resourceType": "Questionnaire",
      "id": "0868adcc-1bde-4bbc-98cc-efc2d5ee108d",
      "identifier": [ {
        "value": "1193164"
      } ],
      "version": "2020-10-30T09:45:23.026Z",
      "status": "active",
      "experimental": false,
      "date": "2020-10-30T09:45:23+00:00",
      "publisher": "User ID: 'HOLDENR' User name: 'Rachael Holden' User skill set: 'T3'",
      "lastReviewDate": "2020-10-30",
      "subjectType": [ "Patient" ],
      "item": [ {
        "linkId": "1193164",
        "prefix": "10100",
        "text": "Have you been bleeding RED BLOOD very heavily IN THE LAST 2 HOURS?",
        "type": "choice",
        "required": true,
        "repeats": false,
        "option": [ {
          "valueString": "yes, Selected: false"
        }, {
          "valueString": "not sure, Selected: false"
        }, {
          "valueString": "no, Selected: true"
        } ]
      } ]
    }
  }, {
    "fullUrl": "urn:uuid:b23b7fd5-c02a-4d38-98c5-8aa27f3c1847",
    "resource": {
      "resourceType": "QuestionnaireResponse",
      "id": "b23b7fd5-c02a-4d38-98c5-8aa27f3c1847",
      "identifier": {
        "value": "1193164"
      },
      "questionnaire": {
        "reference": "urn:uuid:6bb0c7e5-92c2-465f-b33f-9d020c61ddba"
      },
      "status": "completed",
      "subject": {
        "reference": "urn:uuid:706acbc3-1f6c-4edb-b5c9-02860acf493d"
      },
      "context": {
        "reference": "urn:uuid:5dec0cab-8575-4c62-bd44-d0aae0ff75d0"
      },
      "authored": "2020-10-30T09:45:23+00:00",
      "item": [ {
        "linkId": "Tx221343",
        "text": "SocialConcernsExcluded",
        "answer": [ {
          "valueString": "==\"present\""
        } ]
      } ]
    }
  }, {
    "fullUrl": "urn:uuid:6bb0c7e5-92c2-465f-b33f-9d020c61ddba",
    "resource": {
      "resourceType": "Questionnaire",
      "id": "6bb0c7e5-92c2-465f-b33f-9d020c61ddba",
      "identifier": [ {
        "value": "1193164"
      } ],
      "version": "2020-10-30T09:45:23.026Z",
      "status": "active",
      "experimental": false,
      "date": "2020-10-30T09:45:23+00:00",
      "publisher": "User ID: 'HOLDENR' User name: 'Rachael Holden' User skill set: 'T3'",
      "lastReviewDate": "2020-10-30",
      "subjectType": [ "Patient" ],
      "item": [ {
        "linkId": "1193164",
        "prefix": "1100",
        "text": "SocialConcernsExcluded",
        "type": "choice",
        "required": true,
        "repeats": false,
        "option": [ {
          "valueString": "==\"present\", Selected: true"
        }, {
          "valueString": "*, Selected: false"
        } ]
      } ]
    }
  }, {
    "fullUrl": "urn:uuid:2c90cfec-86f6-4376-a163-86e293135639",
    "resource": {
      "resourceType": "QuestionnaireResponse",
      "id": "2c90cfec-86f6-4376-a163-86e293135639",
      "identifier": {
        "value": "1193164"
      },
      "questionnaire": {
        "reference": "urn:uuid:1a79df47-80c5-498b-8f16-a4edd9d4ad94"
      },
      "status": "completed",
      "subject": {
        "reference": "urn:uuid:706acbc3-1f6c-4edb-b5c9-02860acf493d"
      },
      "context": {
        "reference": "urn:uuid:5dec0cab-8575-4c62-bd44-d0aae0ff75d0"
      },
      "authored": "2020-10-30T09:45:23+00:00",
      "item": [ {
        "linkId": "Tx130011",
        "text": "What is the main problem?",
        "answer": [ {
          "valueString": "injury (specify)"
        } ]
      } ]
    }
  }, {
    "fullUrl": "urn:uuid:1a79df47-80c5-498b-8f16-a4edd9d4ad94",
    "resource": {
      "resourceType": "Questionnaire",
      "id": "1a79df47-80c5-498b-8f16-a4edd9d4ad94",
      "identifier": [ {
        "value": "1193164"
      } ],
      "version": "2020-10-30T09:45:23.026Z",
      "status": "active",
      "experimental": false,
      "date": "2020-10-30T09:45:23+00:00",
      "publisher": "User ID: 'HOLDENR' User name: 'Rachael Holden' User skill set: 'T3'",
      "lastReviewDate": "2020-10-30",
      "subjectType": [ "Patient" ],
      "item": [ {
        "linkId": "1193164",
        "prefix": "2300",
        "text": "What is the main problem?",
        "type": "choice",
        "required": true,
        "repeats": false,
        "option": [ {
          "valueString": "the individual has been told to follow a particular course of action (specify), Selected: false"
        }, {
          "valueString": "the individual is an identified frequent caller, Selected: false"
        }, {
          "valueString": "injury (specify), Selected: true"
        }, {
          "valueString": "illness or other health problem (specify), Selected: false"
        }, {
          "valueString": "child protection/vulnerable adult concern, Selected: false"
        }, {
          "valueString": "social or domestic emergency, Selected: false"
        }, {
          "valueString": "the environment potentially poses an immediate threat to life (specify), Selected: false"
        } ]
      } ]
    }
  }, {
    "fullUrl": "urn:uuid:7f7904b7-b69d-4ff5-8cce-a6f7f8e170ac",
    "resource": {
      "resourceType": "QuestionnaireResponse",
      "id": "7f7904b7-b69d-4ff5-8cce-a6f7f8e170ac",
      "identifier": {
        "value": "1193164"
      },
      "questionnaire": {
        "reference": "urn:uuid:6e454918-8892-4f74-841a-73335036b091"
      },
      "status": "completed",
      "subject": {
        "reference": "urn:uuid:706acbc3-1f6c-4edb-b5c9-02860acf493d"
      },
      "context": {
        "reference": "urn:uuid:5dec0cab-8575-4c62-bd44-d0aae0ff75d0"
      },
      "authored": "2020-10-30T09:45:23+00:00",
      "item": [ {
        "linkId": "Tx224119",
        "text": "FROM WHAT YOU HAVE HEARD IS THIS A MINOR INJURY?",
        "answer": [ {
          "valueString": "yes - a minor bite or sting (specify)"
        } ]
      } ]
    }
  }, {
    "fullUrl": "urn:uuid:6e454918-8892-4f74-841a-73335036b091",
    "resource": {
      "resourceType": "Questionnaire",
      "id": "6e454918-8892-4f74-841a-73335036b091",
      "identifier": [ {
        "value": "1193164"
      } ],
      "version": "2020-10-30T09:45:23.026Z",
      "status": "active",
      "experimental": false,
      "date": "2020-10-30T09:45:23+00:00",
      "publisher": "User ID: 'HOLDENR' User name: 'Rachael Holden' User skill set: 'T3'",
      "lastReviewDate": "2020-10-30",
      "subjectType": [ "Patient" ],
      "item": [ {
        "linkId": "1193164",
        "prefix": "15000",
        "text": "FROM WHAT YOU HAVE HEARD IS THIS A MINOR INJURY?",
        "type": "choice",
        "required": true,
        "repeats": false,
        "option": [ {
          "valueString": "yes - a minor bite or sting (specify), Selected: true"
        }, {
          "valueString": "yes - a scratch, graze or minor wound, Selected: false"
        }, {
          "valueString": "yes - skin minor foreign body or skin glued, Selected: false"
        }, {
          "valueString": "yes - trauma blisters, Selected: false"
        }, {
          "valueString": "yes - a single finger or toe injury, Selected: false"
        }, {
          "valueString": "not sure, Selected: false"
        }, {
          "valueString": "no, Selected: false"
        } ]
      } ]
    }
  }, {
    "fullUrl": "urn:uuid:1c4ba390-6382-4339-a716-2245320cb714",
    "resource": {
      "resourceType": "QuestionnaireResponse",
      "id": "1c4ba390-6382-4339-a716-2245320cb714",
      "identifier": {
        "value": "1193164"
      },
      "questionnaire": {
        "reference": "urn:uuid:acac5bfc-6606-4798-b781-b8f76b870a93"
      },
      "status": "completed",
      "subject": {
        "reference": "urn:uuid:706acbc3-1f6c-4edb-b5c9-02860acf493d"
      },
      "context": {
        "reference": "urn:uuid:5dec0cab-8575-4c62-bd44-d0aae0ff75d0"
      },
      "authored": "2020-10-30T09:45:23+00:00",
      "item": [ {
        "linkId": "Tx225125",
        "text": "SYSTEM_INJURYMODULE",
        "answer": [ {
          "valueString": "==\"injurymodule\""
        } ]
      } ]
    }
  }, {
    "fullUrl": "urn:uuid:acac5bfc-6606-4798-b781-b8f76b870a93",
    "resource": {
      "resourceType": "Questionnaire",
      "id": "acac5bfc-6606-4798-b781-b8f76b870a93",
      "identifier": [ {
        "value": "1193164"
      } ],
      "version": "2020-10-30T09:45:23.026Z",
      "status": "active",
      "experimental": false,
      "date": "2020-10-30T09:45:23+00:00",
      "publisher": "User ID: 'HOLDENR' User name: 'Rachael Holden' User skill set: 'T3'",
      "lastReviewDate": "2020-10-30",
      "subjectType": [ "Patient" ],
      "item": [ {
        "linkId": "1193164",
        "prefix": "23700",
        "text": "SYSTEM_INJURYMODULE",
        "type": "choice",
        "required": true,
        "repeats": false,
        "option": [ {
          "valueString": "==\"injurymodule\", Selected: true"
        }, {
          "valueString": "*, Selected: false"
        } ]
      } ]
    }
  }, {
    "fullUrl": "urn:uuid:7eb0a8be-91c1-49ed-a827-1290821aa391",
    "resource": {
      "resourceType": "QuestionnaireResponse",
      "id": "7eb0a8be-91c1-49ed-a827-1290821aa391",
      "identifier": {
        "value": "1193164"
      },
      "questionnaire": {
        "reference": "urn:uuid:6f5a2797-4ed1-40c0-b98c-1ffdd20101f2"
      },
      "status": "completed",
      "subject": {
        "reference": "urn:uuid:706acbc3-1f6c-4edb-b5c9-02860acf493d"
      },
      "context": {
        "reference": "urn:uuid:5dec0cab-8575-4c62-bd44-d0aae0ff75d0"
      },
      "authored": "2020-10-30T09:45:23+00:00"
    }
  }, {
    "fullUrl": "urn:uuid:6f5a2797-4ed1-40c0-b98c-1ffdd20101f2",
    "resource": {
      "resourceType": "Questionnaire",
      "id": "6f5a2797-4ed1-40c0-b98c-1ffdd20101f2",
      "identifier": [ {
        "value": "1193164"
      } ],
      "version": "2020-10-30T09:45:23.026Z",
      "status": "active",
      "experimental": false,
      "date": "2020-10-30T09:45:23+00:00",
      "publisher": "User ID: 'HOLDENR' User name: 'Rachael Holden' User skill set: 'T3'",
      "lastReviewDate": "2020-10-30",
      "subjectType": [ "Patient" ]
    }
  }, {
    "fullUrl": "urn:uuid:d48e887c-de26-42ad-8089-6859a3ae5f1b",
    "resource": {
      "resourceType": "QuestionnaireResponse",
      "id": "d48e887c-de26-42ad-8089-6859a3ae5f1b",
      "identifier": {
        "value": "1193164"
      },
      "questionnaire": {
        "reference": "urn:uuid:e0add54b-0554-4dd6-b685-116cba072655"
      },
      "status": "completed",
      "subject": {
        "reference": "urn:uuid:706acbc3-1f6c-4edb-b5c9-02860acf493d"
      },
      "context": {
        "reference": "urn:uuid:5dec0cab-8575-4c62-bd44-d0aae0ff75d0"
      },
      "authored": "2020-10-30T09:45:23+00:00",
      "item": [ {
        "linkId": "Tx3529",
        "text": "WHAT WAS THE CAUSE?",
        "answer": [ {
          "valueString": "an insect or spider (specify if known)"
        } ]
      } ]
    }
  }, {
    "fullUrl": "urn:uuid:e0add54b-0554-4dd6-b685-116cba072655",
    "resource": {
      "resourceType": "Questionnaire",
      "id": "e0add54b-0554-4dd6-b685-116cba072655",
      "identifier": [ {
        "value": "1193164"
      } ],
      "version": "2020-10-30T09:45:23.026Z",
      "status": "active",
      "experimental": false,
      "date": "2020-10-30T09:45:23+00:00",
      "publisher": "User ID: 'HOLDENR' User name: 'Rachael Holden' User skill set: 'T3'",
      "lastReviewDate": "2020-10-30",
      "subjectType": [ "Patient" ],
      "item": [ {
        "linkId": "1193164",
        "prefix": "0",
        "text": "WHAT WAS THE CAUSE?",
        "type": "choice",
        "required": true,
        "repeats": false,
        "option": [ {
          "valueString": "a person, Selected: false"
        }, {
          "valueString": "an animal (specify if known), Selected: false"
        }, {
          "valueString": "a snake (specify if known), Selected: false"
        }, {
          "valueString": "an insect or spider (specify if known), Selected: true"
        }, {
          "valueString": "stung by a water creature (specify if known), Selected: false"
        }, {
          "valueString": "bitten by a water creature (specify if known), Selected: false"
        }, {
          "valueString": "not sure, Selected: false"
        } ]
      } ]
    }
  }, {
    "fullUrl": "urn:uuid:623ef982-c6b8-4cd6-9ae0-7bfd68a1c6b1",
    "resource": {
      "resourceType": "QuestionnaireResponse",
      "id": "623ef982-c6b8-4cd6-9ae0-7bfd68a1c6b1",
      "identifier": {
        "value": "1193164"
      },
      "questionnaire": {
        "reference": "urn:uuid:b03c5895-51d3-4eb4-91c5-d60a546b4495"
      },
      "status": "completed",
      "subject": {
        "reference": "urn:uuid:706acbc3-1f6c-4edb-b5c9-02860acf493d"
      },
      "context": {
        "reference": "urn:uuid:5dec0cab-8575-4c62-bd44-d0aae0ff75d0"
      },
      "authored": "2020-10-30T09:45:23+00:00"
    }
  }, {
    "fullUrl": "urn:uuid:b03c5895-51d3-4eb4-91c5-d60a546b4495",
    "resource": {
      "resourceType": "Questionnaire",
      "id": "b03c5895-51d3-4eb4-91c5-d60a546b4495",
      "identifier": [ {
        "value": "1193164"
      } ],
      "version": "2020-10-30T09:45:23.026Z",
      "status": "active",
      "experimental": false,
      "date": "2020-10-30T09:45:23+00:00",
      "publisher": "User ID: 'HOLDENR' User name: 'Rachael Holden' User skill set: 'T3'",
      "lastReviewDate": "2020-10-30",
      "subjectType": [ "Patient" ]
    }
  }, {
    "fullUrl": "urn:uuid:d504cbe6-0087-4aab-8e32-81767d7b96fc",
    "resource": {
      "resourceType": "QuestionnaireResponse",
      "id": "d504cbe6-0087-4aab-8e32-81767d7b96fc",
      "identifier": {
        "value": "1193164"
      },
      "questionnaire": {
        "reference": "urn:uuid:cb857407-6b9d-4c5a-88e2-3b05e137e297"
      },
      "status": "completed",
      "subject": {
        "reference": "urn:uuid:706acbc3-1f6c-4edb-b5c9-02860acf493d"
      },
      "context": {
        "reference": "urn:uuid:5dec0cab-8575-4c62-bd44-d0aae0ff75d0"
      },
      "authored": "2020-10-30T09:45:23+00:00",
      "item": [ {
        "linkId": "Tx220302",
        "text": "Did it happen WITHIN THE LAST 6 HOURS?",
        "answer": [ {
          "valueString": "no"
        } ]
      } ]
    }
  }, {
    "fullUrl": "urn:uuid:cb857407-6b9d-4c5a-88e2-3b05e137e297",
    "resource": {
      "resourceType": "Questionnaire",
      "id": "cb857407-6b9d-4c5a-88e2-3b05e137e297",
      "identifier": [ {
        "value": "1193164"
      } ],
      "version": "2020-10-30T09:45:23.026Z",
      "status": "active",
      "experimental": false,
      "date": "2020-10-30T09:45:23+00:00",
      "publisher": "User ID: 'HOLDENR' User name: 'Rachael Holden' User skill set: 'T3'",
      "lastReviewDate": "2020-10-30",
      "subjectType": [ "Patient" ],
      "item": [ {
        "linkId": "1193164",
        "prefix": "0",
        "text": "Did it happen WITHIN THE LAST 6 HOURS?",
        "type": "choice",
        "required": true,
        "repeats": false,
        "option": [ {
          "valueString": "yes, Selected: false"
        }, {
          "valueString": "not sure, Selected: false"
        }, {
          "valueString": "no, Selected: true"
        } ]
      } ]
    }
  }, {
    "fullUrl": "urn:uuid:e70016c1-eb87-476f-9c3e-2d190d812b31",
    "resource": {
      "resourceType": "QuestionnaireResponse",
      "id": "e70016c1-eb87-476f-9c3e-2d190d812b31",
      "identifier": {
        "value": "1193164"
      },
      "questionnaire": {
        "reference": "urn:uuid:98413c97-9699-4b71-872d-29807224f36e"
      },
      "status": "completed",
      "subject": {
        "reference": "urn:uuid:706acbc3-1f6c-4edb-b5c9-02860acf493d"
      },
      "context": {
        "reference": "urn:uuid:5dec0cab-8575-4c62-bd44-d0aae0ff75d0"
      },
      "authored": "2020-10-30T09:45:23+00:00",
      "item": [ {
        "linkId": "Tx3543",
        "text": "Have you been stung 10 or more times?",
        "answer": [ {
          "valueString": "no"
        } ]
      } ]
    }
  }, {
    "fullUrl": "urn:uuid:98413c97-9699-4b71-872d-29807224f36e",
    "resource": {
      "resourceType": "Questionnaire",
      "id": "98413c97-9699-4b71-872d-29807224f36e",
      "identifier": [ {
        "value": "1193164"
      } ],
      "version": "2020-10-30T09:45:23.026Z",
      "status": "active",
      "experimental": false,
      "date": "2020-10-30T09:45:23+00:00",
      "publisher": "User ID: 'HOLDENR' User name: 'Rachael Holden' User skill set: 'T3'",
      "lastReviewDate": "2020-10-30",
      "subjectType": [ "Patient" ],
      "item": [ {
        "linkId": "1193164",
        "prefix": "2900",
        "text": "Have you been stung 10 or more times?",
        "type": "choice",
        "required": true,
        "repeats": false,
        "option": [ {
          "valueString": "yes, Selected: false"
        }, {
          "valueString": "not sure, Selected: false"
        }, {
          "valueString": "no, Selected: true"
        } ]
      } ]
    }
  }, {
    "fullUrl": "urn:uuid:6cc22ce2-d82b-4f61-8a7e-e64430769292",
    "resource": {
      "resourceType": "QuestionnaireResponse",
      "id": "6cc22ce2-d82b-4f61-8a7e-e64430769292",
      "identifier": {
        "value": "1193164"
      },
      "questionnaire": {
        "reference": "urn:uuid:0dd9e641-bdbf-49c5-89bb-ef6dbd2f5903"
      },
      "status": "completed",
      "subject": {
        "reference": "urn:uuid:706acbc3-1f6c-4edb-b5c9-02860acf493d"
      },
      "context": {
        "reference": "urn:uuid:5dec0cab-8575-4c62-bd44-d0aae0ff75d0"
      },
      "authored": "2020-10-30T09:45:23+00:00",
      "item": [ {
        "linkId": "Tx3557",
        "text": "Have you got nausea or vomiting now?",
        "answer": [ {
          "valueString": "no"
        } ]
      } ]
    }
  }, {
    "fullUrl": "urn:uuid:0dd9e641-bdbf-49c5-89bb-ef6dbd2f5903",
    "resource": {
      "resourceType": "Questionnaire",
      "id": "0dd9e641-bdbf-49c5-89bb-ef6dbd2f5903",
      "identifier": [ {
        "value": "1193164"
      } ],
      "version": "2020-10-30T09:45:23.026Z",
      "status": "active",
      "experimental": false,
      "date": "2020-10-30T09:45:23+00:00",
      "publisher": "User ID: 'HOLDENR' User name: 'Rachael Holden' User skill set: 'T3'",
      "lastReviewDate": "2020-10-30",
      "subjectType": [ "Patient" ],
      "item": [ {
        "linkId": "1193164",
        "prefix": "3000",
        "text": "Have you got nausea or vomiting now?",
        "type": "choice",
        "required": true,
        "repeats": false,
        "option": [ {
          "valueString": "yes, Selected: false"
        }, {
          "valueString": "not sure, Selected: false"
        }, {
          "valueString": "no, Selected: true"
        } ]
      } ]
    }
  }, {
    "fullUrl": "urn:uuid:82ea875b-c4fb-4fcb-a2de-09619f997130",
    "resource": {
      "resourceType": "QuestionnaireResponse",
      "id": "82ea875b-c4fb-4fcb-a2de-09619f997130",
      "identifier": {
        "value": "1193164"
      },
      "questionnaire": {
        "reference": "urn:uuid:640eb9fb-f444-47d7-b007-8ecada7b2807"
      },
      "status": "completed",
      "subject": {
        "reference": "urn:uuid:706acbc3-1f6c-4edb-b5c9-02860acf493d"
      },
      "context": {
        "reference": "urn:uuid:5dec0cab-8575-4c62-bd44-d0aae0ff75d0"
      },
      "authored": "2020-10-30T09:45:23+00:00",
      "item": [ {
        "linkId": "Tx3561",
        "text": "Have you been bitten or stung in any of these areas?",
        "answer": [ {
          "valueString": "no"
        } ]
      } ]
    }
  }, {
    "fullUrl": "urn:uuid:640eb9fb-f444-47d7-b007-8ecada7b2807",
    "resource": {
      "resourceType": "Questionnaire",
      "id": "640eb9fb-f444-47d7-b007-8ecada7b2807",
      "identifier": [ {
        "value": "1193164"
      } ],
      "version": "2020-10-30T09:45:23.026Z",
      "status": "active",
      "experimental": false,
      "date": "2020-10-30T09:45:23+00:00",
      "publisher": "User ID: 'HOLDENR' User name: 'Rachael Holden' User skill set: 'T3'",
      "lastReviewDate": "2020-10-30",
      "subjectType": [ "Patient" ],
      "item": [ {
        "linkId": "1193164",
        "prefix": "3900",
        "text": "Have you been bitten or stung in any of these areas?",
        "type": "choice",
        "required": true,
        "repeats": false,
        "option": [ {
          "valueString": "the eyeball, Selected: false"
        }, {
          "valueString": "inside the mouth or on the lips, Selected: false"
        }, {
          "valueString": "limb, Selected: false"
        }, {
          "valueString": "not sure, Selected: false"
        }, {
          "valueString": "no, Selected: true"
        } ]
      } ]
    }
  }, {
    "fullUrl": "urn:uuid:eda7aa29-6c95-4305-9e41-ec4cd769f6f2",
    "resource": {
      "resourceType": "QuestionnaireResponse",
      "id": "eda7aa29-6c95-4305-9e41-ec4cd769f6f2",
      "identifier": {
        "value": "1193164"
      },
      "questionnaire": {
        "reference": "urn:uuid:ab33be4b-c24c-4a12-9f59-35227581c6c5"
      },
      "status": "completed",
      "subject": {
        "reference": "urn:uuid:706acbc3-1f6c-4edb-b5c9-02860acf493d"
      },
      "context": {
        "reference": "urn:uuid:5dec0cab-8575-4c62-bd44-d0aae0ff75d0"
      },
      "authored": "2020-10-30T09:45:23+00:00",
      "item": [ {
        "linkId": "Tx3544",
        "text": "Is the insect or part of the insect still attached to the skin?",
        "answer": [ {
          "valueString": "no"
        } ]
      } ]
    }
  }, {
    "fullUrl": "urn:uuid:ab33be4b-c24c-4a12-9f59-35227581c6c5",
    "resource": {
      "resourceType": "Questionnaire",
      "id": "ab33be4b-c24c-4a12-9f59-35227581c6c5",
      "identifier": [ {
        "value": "1193164"
      } ],
      "version": "2020-10-30T09:45:23.026Z",
      "status": "active",
      "experimental": false,
      "date": "2020-10-30T09:45:23+00:00",
      "publisher": "User ID: 'HOLDENR' User name: 'Rachael Holden' User skill set: 'T3'",
      "lastReviewDate": "2020-10-30",
      "subjectType": [ "Patient" ],
      "item": [ {
        "linkId": "1193164",
        "prefix": "9400",
        "text": "Is the insect or part of the insect still attached to the skin?",
        "type": "choice",
        "required": true,
        "repeats": false,
        "option": [ {
          "valueString": "yes, Selected: false"
        }, {
          "valueString": "not sure, Selected: false"
        }, {
          "valueString": "no, Selected: true"
        } ]
      } ]
    }
  }, {
    "fullUrl": "urn:uuid:f4169888-6440-4c06-92d5-cf043b2ae330",
    "resource": {
      "resourceType": "QuestionnaireResponse",
      "id": "f4169888-6440-4c06-92d5-cf043b2ae330",
      "identifier": {
        "value": "1193164"
      },
      "questionnaire": {
        "reference": "urn:uuid:0d99e944-598b-4924-9f77-ee35a03c5939"
      },
      "status": "completed",
      "subject": {
        "reference": "urn:uuid:706acbc3-1f6c-4edb-b5c9-02860acf493d"
      },
      "context": {
        "reference": "urn:uuid:5dec0cab-8575-4c62-bd44-d0aae0ff75d0"
      },
      "authored": "2020-10-30T09:45:23+00:00",
      "item": [ {
        "linkId": "Tx1449",
        "text": "Have you got very severe pain deep inside the affected area?",
        "answer": [ {
          "valueString": "yes"
        } ]
      } ]
    }
  }, {
    "fullUrl": "urn:uuid:0d99e944-598b-4924-9f77-ee35a03c5939",
    "resource": {
      "resourceType": "Questionnaire",
      "id": "0d99e944-598b-4924-9f77-ee35a03c5939",
      "identifier": [ {
        "value": "1193164"
      } ],
      "version": "2020-10-30T09:45:23.026Z",
      "status": "active",
      "experimental": false,
      "date": "2020-10-30T09:45:23+00:00",
      "publisher": "User ID: 'HOLDENR' User name: 'Rachael Holden' User skill set: 'T3'",
      "lastReviewDate": "2020-10-30",
      "subjectType": [ "Patient" ],
      "item": [ {
        "linkId": "1193164",
        "prefix": "19700",
        "text": "Have you got very severe pain deep inside the affected area?",
        "type": "choice",
        "required": true,
        "repeats": false,
        "option": [ {
          "valueString": "yes, Selected: true"
        }, {
          "valueString": "not sure, Selected: false"
        }, {
          "valueString": "no, Selected: false"
        } ]
      } ]
    }
  }, {
    "fullUrl": "urn:uuid:20954e52-6636-4b4c-8251-a1de36d65049",
    "resource": {
      "resourceType": "QuestionnaireResponse",
      "id": "20954e52-6636-4b4c-8251-a1de36d65049",
      "identifier": {
        "value": "1193164"
      },
      "questionnaire": {
        "reference": "urn:uuid:68e1125a-2e2b-4782-96d6-89e283e7d644"
      },
      "status": "completed",
      "subject": {
        "reference": "urn:uuid:706acbc3-1f6c-4edb-b5c9-02860acf493d"
      },
      "context": {
        "reference": "urn:uuid:5dec0cab-8575-4c62-bd44-d0aae0ff75d0"
      },
      "authored": "2020-10-30T09:45:23+00:00",
      "item": [ {
        "linkId": "Tx221449",
        "text": "STRING:SDPCFullPrimaryCareassessmentandprescribingcapability",
        "answer": [ {
          "valueString": "\"PC full Primary Care assessment and prescribing capability\""
        } ]
      } ]
    }
  }, {
    "fullUrl": "urn:uuid:68e1125a-2e2b-4782-96d6-89e283e7d644",
    "resource": {
      "resourceType": "Questionnaire",
      "id": "68e1125a-2e2b-4782-96d6-89e283e7d644",
      "identifier": [ {
        "value": "1193164"
      } ],
      "version": "2020-10-30T09:45:23.026Z",
      "status": "active",
      "experimental": false,
      "date": "2020-10-30T09:45:23+00:00",
      "publisher": "User ID: 'HOLDENR' User name: 'Rachael Holden' User skill set: 'T3'",
      "lastReviewDate": "2020-10-30",
      "subjectType": [ "Patient" ],
      "item": [ {
        "linkId": "1193164",
        "prefix": "19900",
        "text": "STRING:SDPCFullPrimaryCareassessmentandprescribingcapability",
        "type": "choice",
        "required": true,
        "repeats": false,
        "option": [ {
          "valueString": "\"PC full Primary Care assessment and prescribing capability\", Selected: true"
        } ]
      } ]
    }
  }, {
    "fullUrl": "urn:uuid:4fe0c95a-deba-4d90-ab3c-17941af00d6a",
    "resource": {
      "resourceType": "QuestionnaireResponse",
      "id": "4fe0c95a-deba-4d90-ab3c-17941af00d6a",
      "identifier": {
        "value": "1193164"
      },
      "questionnaire": {
        "reference": "urn:uuid:448f3834-fee4-4fdb-bdf6-0c017302d232"
      },
      "status": "completed",
      "subject": {
        "reference": "urn:uuid:706acbc3-1f6c-4edb-b5c9-02860acf493d"
      },
      "context": {
        "reference": "urn:uuid:5dec0cab-8575-4c62-bd44-d0aae0ff75d0"
      },
      "authored": "2020-10-30T09:45:23+00:00"
    }
  }, {
    "fullUrl": "urn:uuid:448f3834-fee4-4fdb-bdf6-0c017302d232",
    "resource": {
      "resourceType": "Questionnaire",
      "id": "448f3834-fee4-4fdb-bdf6-0c017302d232",
      "identifier": [ {
        "value": "1193164"
      } ],
      "version": "2020-10-30T09:45:23.026Z",
      "status": "active",
      "experimental": false,
      "date": "2020-10-30T09:45:23+00:00",
      "publisher": "User ID: 'HOLDENR' User name: 'Rachael Holden' User skill set: 'T3'",
      "lastReviewDate": "2020-10-30",
      "subjectType": [ "Patient" ]
    }
  }, {
    "fullUrl": "urn:uuid:5b2c518a-b788-48a2-9e5c-860d90ec7df2",
    "resource": {
      "resourceType": "QuestionnaireResponse",
      "id": "5b2c518a-b788-48a2-9e5c-860d90ec7df2",
      "identifier": {
        "value": "1193164"
      },
      "questionnaire": {
        "reference": "urn:uuid:f59f2253-726b-4164-8e40-29dd41c22d06"
      },
      "status": "completed",
      "subject": {
        "reference": "urn:uuid:706acbc3-1f6c-4edb-b5c9-02860acf493d"
      },
      "context": {
        "reference": "urn:uuid:5dec0cab-8575-4c62-bd44-d0aae0ff75d0"
      },
      "authored": "2020-10-30T09:45:23+00:00"
    }
  }, {
    "fullUrl": "urn:uuid:f59f2253-726b-4164-8e40-29dd41c22d06",
    "resource": {
      "resourceType": "Questionnaire",
      "id": "f59f2253-726b-4164-8e40-29dd41c22d06",
      "identifier": [ {
        "value": "1193164"
      } ],
      "version": "2020-10-30T09:45:23.026Z",
      "status": "active",
      "experimental": false,
      "date": "2020-10-30T09:45:23+00:00",
      "publisher": "User ID: 'HOLDENR' User name: 'Rachael Holden' User skill set: 'T3'",
      "lastReviewDate": "2020-10-30",
      "subjectType": [ "Patient" ]
    }
  }, {
    "fullUrl": "urn:uuid:6c238be1-da3d-4156-8318-f3525f3353ad",
    "resource": {
      "resourceType": "QuestionnaireResponse",
      "id": "6c238be1-da3d-4156-8318-f3525f3353ad",
      "identifier": {
        "value": "1193164"
      },
      "questionnaire": {
        "reference": "urn:uuid:1ea8c43e-02e5-470f-908c-7b6c68badff3"
      },
      "status": "completed",
      "subject": {
        "reference": "urn:uuid:706acbc3-1f6c-4edb-b5c9-02860acf493d"
      },
      "context": {
        "reference": "urn:uuid:5dec0cab-8575-4c62-bd44-d0aae0ff75d0"
      },
      "authored": "2020-10-30T09:45:23+00:00"
    }
  }, {
    "fullUrl": "urn:uuid:1ea8c43e-02e5-470f-908c-7b6c68badff3",
    "resource": {
      "resourceType": "Questionnaire",
      "id": "1ea8c43e-02e5-470f-908c-7b6c68badff3",
      "identifier": [ {
        "value": "1193164"
      } ],
      "version": "2020-10-30T09:45:23.026Z",
      "status": "active",
      "experimental": false,
      "date": "2020-10-30T09:45:23+00:00",
      "publisher": "User ID: 'HOLDENR' User name: 'Rachael Holden' User skill set: 'T3'",
      "lastReviewDate": "2020-10-30",
      "subjectType": [ "Patient" ]
    }
  }, {
    "fullUrl": "urn:uuid:17330fd4-dc53-4152-a6ad-ec1a6da79e1f",
    "resource": {
      "resourceType": "Observation",
      "id": "17330fd4-dc53-4152-a6ad-ec1a6da79e1f",
      "status": "final",
      "code": {
        "coding": [ {
          "system": "http://snomed.info/sct",
          "code": "33962009",
          "display": "Presenting complaint"
        } ]
      },
      "subject": {
        "reference": "urn:uuid:706acbc3-1f6c-4edb-b5c9-02860acf493d"
      },
      "context": {
        "reference": "urn:uuid:5dec0cab-8575-4c62-bd44-d0aae0ff75d0"
      }
    }
  }, {
    "fullUrl": "urn:uuid:de71056e-2f90-4698-a76a-24f8766f1f20",
    "resource": {
      "resourceType": "PractitionerRole",
      "id": "de71056e-2f90-4698-a76a-24f8766f1f20",
      "practitioner": {
        "reference": "urn:uuid:68218c12-2beb-4dd3-9d2c-5df52b952628"
      },
      "organization": {
        "reference": "urn:uuid:da82bcfe-a2d3-4258-8b5f-16260c4fccad"
      },
      "code": [ {
        "coding": [ {
          "system": "2.16.840.1.113883.2.1.3.2.4.17.339",
          "code": "DOCTOR",
          "display": "Doctor"
        } ]
      } ]
    }
  }, {
    "fullUrl": "urn:uuid:da82bcfe-a2d3-4258-8b5f-16260c4fccad",
    "resource": {
      "resourceType": "Organization",
      "id": "da82bcfe-a2d3-4258-8b5f-16260c4fccad",
      "identifier": [ {
        "value": "RYA06"
      } ],
      "name": "WMAS - Navigation Point Call Centre (West Midlands Single Instance)"
    }
  }, {
    "fullUrl": "urn:uuid:df2f3384-31f3-4023-b19f-d3d0d105a48f",
    "resource": {
      "resourceType": "PractitionerRole",
      "id": "df2f3384-31f3-4023-b19f-d3d0d105a48f",
      "practitioner": {
        "reference": "urn:uuid:0cf4f86f-b61e-4625-b37d-b75a1254ab61"
      },
      "organization": {
        "reference": "urn:uuid:ed9572dc-b1ca-4fe9-8aa8-86af98255bd7"
      },
      "code": [ {
        "coding": [ {
          "system": "2.16.840.1.113883.2.1.3.2.4.17.196",
          "code": "R0010",
          "display": "Medical Director"
        } ]
      } ]
    }
  }, {
    "fullUrl": "urn:uuid:ed9572dc-b1ca-4fe9-8aa8-86af98255bd7",
    "resource": {
      "resourceType": "Organization",
      "id": "ed9572dc-b1ca-4fe9-8aa8-86af98255bd7",
      "identifier": [ {
        "value": "RYA06"
      } ],
      "name": "West Midlands Single Instance"
    }
  }, {
    "fullUrl": "urn:uuid:ec8b5143-c608-4233-885c-b45fd599204d",
    "resource": {
      "resourceType": "RelatedPerson",
      "id": "ec8b5143-c608-4233-885c-b45fd599204d",
      "patient": {
        "reference": "urn:uuid:706acbc3-1f6c-4edb-b5c9-02860acf493d"
      },
      "relationship": {
        "coding": [ {
          "system": "http://hl7.org/fhir/v2/0131",
          "code": "C",
          "display": "Emergency Contact"
        } ]
      },
      "telecom": [ {
        "system": "phone",
        "value": "tel:01204428013"
      } ]
    }
  }, {
    "fullUrl": "urn:uuid:80758f5a-86e7-45a3-a5c5-e718dc2ef383",
    "resource": {
      "resourceType": "Device",
      "id": "80758f5a-86e7-45a3-a5c5-e718dc2ef383",
      "model": "111 Adaptor",
      "version": "0.9.0"
    }
  }, {
    "fullUrl": "urn:uuid:001c6cd0-9d93-444b-9915-534195664a41",
    "resource": {
      "resourceType": "List",
      "id": "001c6cd0-9d93-444b-9915-534195664a41",
      "status": "current",
      "mode": "working",
      "title": "111 Report List",
      "code": {
        "coding": [ {
          "system": "http://snomed.info/sct",
          "code": "225390008",
          "display": "Triage"
        } ]
      },
      "subject": {
        "reference": "urn:uuid:706acbc3-1f6c-4edb-b5c9-02860acf493d"
      },
      "encounter": {
        "reference": "urn:uuid:5dec0cab-8575-4c62-bd44-d0aae0ff75d0"
      },
      "date": "2021-09-29T10:03:04+00:00",
      "source": {
        "reference": "urn:uuid:80758f5a-86e7-45a3-a5c5-e718dc2ef383"
      },
      "orderedBy": {
        "coding": [ {
          "system": "http://hl7.org/fhir/list-order",
          "code": "event-date",
          "display": "Sorted by Event Date"
        } ]
      },
      "entry": [ {
        "item": {
          "reference": "urn:uuid:da82bcfe-a2d3-4258-8b5f-16260c4fccad"
        }
      }, {
        "item": {
          "reference": "urn:uuid:ed9572dc-b1ca-4fe9-8aa8-86af98255bd7"
        }
      }, {
        "item": {
          "reference": "urn:uuid:092ac7d2-6e43-45b5-96c1-1b1d24de5eef"
        }
      }, {
        "item": {
          "reference": "urn:uuid:ec8b5143-c608-4233-885c-b45fd599204d"
        }
      }, {
        "item": {
          "reference": "urn:uuid:a5c5b609-bb92-496c-9386-ce76455f416e"
        }
      }, {
        "item": {
          "reference": "urn:uuid:6a710d44-c9a4-4fb7-b4cd-0022e903dfa4"
        }
      }, {
        "item": {
          "reference": "urn:uuid:d57605f6-e2b1-4ed9-b4b4-27bfa6819d0e"
        }
      }, {
        "item": {
          "reference": "urn:uuid:17330fd4-dc53-4152-a6ad-ec1a6da79e1f"
        }
      }, {
        "item": {
          "reference": "urn:uuid:6960e180-7c34-4a34-be76-a5ea08eaf7be"
        }
      }, {
        "item": {
          "reference": "urn:uuid:68218c12-2beb-4dd3-9d2c-5df52b952628"
        }
      }, {
        "item": {
          "reference": "urn:uuid:0cf4f86f-b61e-4625-b37d-b75a1254ab61"
        }
      }, {
        "item": {
          "reference": "urn:uuid:9cd92511-f383-41b1-a258-ae48000e8dec"
        }
      }, {
        "item": {
          "reference": "urn:uuid:6d747f03-f786-446a-9456-0037fa4586c4"
        }
      }, {
        "item": {
          "reference": "urn:uuid:0868adcc-1bde-4bbc-98cc-efc2d5ee108d"
        }
      }, {
        "item": {
          "reference": "urn:uuid:6c238be1-da3d-4156-8318-f3525f3353ad"
        }
      }, {
        "item": {
          "reference": "urn:uuid:68e1125a-2e2b-4782-96d6-89e283e7d644"
        }
      }, {
        "item": {
          "reference": "urn:uuid:6bb0c7e5-92c2-465f-b33f-9d020c61ddba"
        }
      }, {
        "item": {
          "reference": "urn:uuid:7f7904b7-b69d-4ff5-8cce-a6f7f8e170ac"
        }
      }, {
        "item": {
          "reference": "urn:uuid:d184a7db-436d-47d8-af70-957f1432a439"
        }
      }, {
        "item": {
          "reference": "urn:uuid:b03c5895-51d3-4eb4-91c5-d60a546b4495"
        }
      }, {
        "item": {
          "reference": "urn:uuid:0dd9e641-bdbf-49c5-89bb-ef6dbd2f5903"
        }
      }, {
        "item": {
          "reference": "urn:uuid:b97cd131-b427-48f3-9681-1ce4d6ebc5ff"
        }
      }, {
        "item": {
          "reference": "urn:uuid:ab33be4b-c24c-4a12-9f59-35227581c6c5"
        }
      }, {
        "item": {
          "reference": "urn:uuid:6cc22ce2-d82b-4f61-8a7e-e64430769292"
        }
      }, {
        "item": {
          "reference": "urn:uuid:20954e52-6636-4b4c-8251-a1de36d65049"
        }
      }, {
        "item": {
          "reference": "urn:uuid:7eb0a8be-91c1-49ed-a827-1290821aa391"
        }
      }, {
        "item": {
          "reference": "urn:uuid:623ef982-c6b8-4cd6-9ae0-7bfd68a1c6b1"
        }
      }, {
        "item": {
          "reference": "urn:uuid:98413c97-9699-4b71-872d-29807224f36e"
        }
      }, {
        "item": {
          "reference": "urn:uuid:5b2c518a-b788-48a2-9e5c-860d90ec7df2"
        }
      }, {
        "item": {
          "reference": "urn:uuid:640eb9fb-f444-47d7-b007-8ecada7b2807"
        }
      }, {
        "item": {
          "reference": "urn:uuid:3f9c3268-0d4a-45ef-a3b4-fa8edf3169c8"
        }
      }, {
        "item": {
          "reference": "urn:uuid:e70016c1-eb87-476f-9c3e-2d190d812b31"
        }
      }, {
        "item": {
          "reference": "urn:uuid:cb857407-6b9d-4c5a-88e2-3b05e137e297"
        }
      }, {
        "item": {
          "reference": "urn:uuid:e12382da-0b54-41fb-a137-d83e50c61c7e"
        }
      }, {
        "item": {
          "reference": "urn:uuid:1c4ba390-6382-4339-a716-2245320cb714"
        }
      }, {
        "item": {
          "reference": "urn:uuid:d48e887c-de26-42ad-8089-6859a3ae5f1b"
        }
      }, {
        "item": {
          "reference": "urn:uuid:4fe0c95a-deba-4d90-ab3c-17941af00d6a"
        }
      }, {
        "item": {
          "reference": "urn:uuid:d504cbe6-0087-4aab-8e32-81767d7b96fc"
        }
      }, {
        "item": {
          "reference": "urn:uuid:f59f2253-726b-4164-8e40-29dd41c22d06"
        }
      }, {
        "item": {
          "reference": "urn:uuid:b92e69f9-7603-4bbc-bc62-cf7b8c9a42b6"
        }
      }, {
        "item": {
          "reference": "urn:uuid:1ea8c43e-02e5-470f-908c-7b6c68badff3"
        }
      }, {
        "item": {
          "reference": "urn:uuid:82ea875b-c4fb-4fcb-a2de-09619f997130"
        }
      }, {
        "item": {
          "reference": "urn:uuid:b23b7fd5-c02a-4d38-98c5-8aa27f3c1847"
        }
      }, {
        "item": {
          "reference": "urn:uuid:1a79df47-80c5-498b-8f16-a4edd9d4ad94"
        }
      }, {
        "item": {
          "reference": "urn:uuid:6e454918-8892-4f74-841a-73335036b091"
        }
      }, {
        "item": {
          "reference": "urn:uuid:64474cc2-9a8c-49f6-94ea-80d1e7ebbe73"
        }
      }, {
        "item": {
          "reference": "urn:uuid:0d99e944-598b-4924-9f77-ee35a03c5939"
        }
      }, {
        "item": {
          "reference": "urn:uuid:acac5bfc-6606-4798-b781-b8f76b870a93"
        }
      }, {
        "item": {
          "reference": "urn:uuid:6f5a2797-4ed1-40c0-b98c-1ffdd20101f2"
        }
      }, {
        "item": {
          "reference": "urn:uuid:e0add54b-0554-4dd6-b685-116cba072655"
        }
      }, {
        "item": {
          "reference": "urn:uuid:eda7aa29-6c95-4305-9e41-ec4cd769f6f2"
        }
      }, {
        "item": {
          "reference": "urn:uuid:2c90cfec-86f6-4376-a163-86e293135639"
        }
      }, {
        "item": {
          "reference": "urn:uuid:f4169888-6440-4c06-92d5-cf043b2ae330"
        }
      }, {
        "item": {
          "reference": "urn:uuid:448f3834-fee4-4fdb-bdf6-0c017302d232"
        }
      }, {
        "item": {
          "reference": "urn:uuid:f07effa9-74e1-433d-b324-4c801ef1fbf6"
        }
      }, {
        "item": {
          "reference": "urn:uuid:b0adc08a-d73e-41ee-9160-1174b2e8aef4"
        }
      } ]
    }
  } ]
}