{
  "resourceType": "Bundle",
  "identifier": {
    "type": {
      "text": "ClinicalDocument VersionNumber"
    },
    "value": "1"
  },
  "type": "message",
  "entry": [ {
    "fullUrl": "urn:uuid:2B77B3F5-3016-4A6D-821F-152CE420E58D",
    "resource": {
      "resourceType": "MessageHeader",
      "id": "2B77B3F5-3016-4A6D-821F-152CE420E58D",
      "event": {
        "system": "https://fhir.nhs.uk/STU3/CodeSystem/EventType-1",
        "code": "referral-1",
        "display": "Referral"
      },
      "destination": [ {
        "endpoint": "urn:nhs-uk:addressing:ods:EM396:DOSServiceID:26428"
      } ],
      "timestamp": "2025-10-30T09:45:22.000+00:00",
      "source": {
        "name": "NHS 111 Adaptor",
        "endpoint": "http://localhost:8080/report"
      },
      "reason": {
        "coding": [ {
          "system": "urn:nhs-itk:ns:201005:interaction",
          "code": "urn:nhs-itk:interaction:primaryNHS111RepeatCallerDocumentSet-v1-0"
        } ]
      }
    }
  }, {
    "fullUrl": "urn:uuid:f85ff7fc-aec1-4673-afea-0ac31e926dae",
    "resource": {
      "resourceType": "Encounter",
      "id": "f85ff7fc-aec1-4673-afea-0ac31e926dae",
      "identifier": [ {
        "system": "2.16.840.1.113883.2.1.3.2.4.18.34",
        "value": "D47E4F49-D4B8-4913-85B9-64AF5523B268"
      }, {
        "system": "2.16.840.1.113883.2.1.3.2.4.18.35",
        "value": "1193164"
      } ],
      "status": "finished",
      "type": [ {
        "text": "111 Encounter Referral"
      } ],
      "subject": {
        "reference": "urn:uuid:002841bb-9abe-446b-b2c6-ab774279ba87"
      },
      "participant": [ {
        "type": [ {
          "coding": [ {
            "system": "http://hl7.org/fhir/ValueSet/encounter-participant-type",
            "code": "PPRF",
            "display": "Author"
          } ]
        } ],
        "individual": {
          "reference": "urn:uuid:8e788ff5-08b1-40a2-a112-bdd623739d5d"
        }
      }, {
        "type": [ {
          "coding": [ {
            "system": "http://hl7.org/fhir/ValueSet/encounter-participant-type",
            "code": "ATND",
            "display": "Responsible Party"
          } ]
        } ],
        "individual": {
          "reference": "urn:uuid:920babc1-df36-4fa1-9cb3-955a307ca238"
        }
      } ],
      "period": {
        "start": "2025-10-30T09:45:22+00:00"
      },
      "location": [ {
        "location": {
          "reference": "urn:uuid:64eb680e-5738-481a-bb97-8c9812538528"
        },
        "status": "active"
      }, {
        "location": {
          "reference": "urn:uuid:4f05f684-de5b-4493-af3a-f57e8c361701"
        },
        "status": "completed"
      } ],
      "serviceProvider": {
        "reference": "urn:uuid:23fa7197-3dfa-4abf-a454-bd282ef7edaa"
      }
    }
  }, {
    "fullUrl": "urn:uuid:23fa7197-3dfa-4abf-a454-bd282ef7edaa",
    "resource": {
      "resourceType": "Organization",
      "id": "23fa7197-3dfa-4abf-a454-bd282ef7edaa",
      "active": true,
      "type": [ {
        "text": "CST"
      } ],
      "name": "West Midlands Single Instance"
    }
  }, {
    "fullUrl": "urn:uuid:8e788ff5-08b1-40a2-a112-bdd623739d5d",
    "resource": {
      "resourceType": "Practitioner",
      "id": "8e788ff5-08b1-40a2-a112-bdd623739d5d",
      "active": true,
      "name": [ {
        "use": "official"
      } ]
    }
  }, {
    "fullUrl": "urn:uuid:920babc1-df36-4fa1-9cb3-955a307ca238",
    "resource": {
      "resourceType": "Practitioner",
      "id": "920babc1-df36-4fa1-9cb3-955a307ca238",
      "active": true,
      "name": [ {
        "use": "official",
        "family": "Walker",
        "given": [ "Alison" ]
      } ]
    }
  }, {
    "fullUrl": "urn:uuid:64eb680e-5738-481a-bb97-8c9812538528",
    "resource": {
      "resourceType": "Location",
      "id": "64eb680e-5738-481a-bb97-8c9812538528",
      "managingOrganization": {
        "reference": "urn:uuid:fb035fe5-3bc5-4f4a-881b-f8364704ba1d"
      }
    }
  }, {
    "fullUrl": "urn:uuid:fb035fe5-3bc5-4f4a-881b-f8364704ba1d",
    "resource": {
      "resourceType": "Organization",
      "id": "fb035fe5-3bc5-4f4a-881b-f8364704ba1d",
      "identifier": [ {
        "value": "F81718"
      } ],
      "type": [ {
        "text": "GP Practice"
      } ],
      "name": "LYDIA HOUSE PRACTICE"
    }
  }, {
    "fullUrl": "urn:uuid:4f05f684-de5b-4493-af3a-f57e8c361701",
    "resource": {
      "resourceType": "Location",
      "id": "4f05f684-de5b-4493-af3a-f57e8c361701",
      "name": "Incident Location",
      "address": {
        "type": "physical",
        "line": [ "Whitchurch Hospital", "Claypit Street", "Whitchurch", "Shropshire" ],
        "postalCode": "SY13 1NT"
      }
    }
  }, {
    "fullUrl": "urn:uuid:002841bb-9abe-446b-b2c6-ab774279ba87",
    "resource": {
      "resourceType": "Patient",
      "id": "002841bb-9abe-446b-b2c6-ab774279ba87",
      "identifier": [ {
        "extension": [ {
          "url": "https://fhir.hl7.org.uk/STU3/StructureDefinition/Extension-CareConnect-NHSNumberVerificationStatus-1",
          "valueCodeableConcept": {
            "coding": [ {
              "system": "https://fhir.hl7.org.uk/STU3/StructureDefinition/Extension-CareConnect-NHSNumberVerificationStatus-1",
              "code": "01"
            } ]
          }
        } ],
        "system": "https://fhir.nhs.uk/Id/nhs-number",
        "value": "9990238359"
      } ],
      "active": true,
      "name": [ {
        "use": "official",
        "family": "Xxtestpatientdzadn",
        "given": [ "Scrdonotuse" ]
      } ],
      "telecom": [ {
        "system": "phone",
        "value": "tel:01204428013",
        "use": "home"
      }, {
        "system": "phone",
        "value": "tel:01204428013"
      } ],
      "gender": "female",
      "birthDate": "1965-02-17",
      "address": [ {
        "use": "home",
        "line": [ "Test Address", "Captain Lees Road", "Westhoughton", "Bolton", "Greater Manchester" ],
        "postalCode": "BL5 3UB"
      }, {
        "type": "physical",
        "line": [ "Whitchurch Hospital", "Claypit Street", "Whitchurch", "Shropshire" ],
        "postalCode": "SY13 1NT"
      } ],
      "generalPractitioner": [ {
        "reference": "urn:uuid:b7b18948-0cab-4ca9-b32f-762fbed4215d"
      } ]
    }
  }, {
    "fullUrl": "urn:uuid:b7b18948-0cab-4ca9-b32f-762fbed4215d",
    "resource": {
      "resourceType": "Organization",
      "id": "b7b18948-0cab-4ca9-b32f-762fbed4215d",
      "identifier": [ {
        "value": "F81718"
      } ],
      "type": [ {
        "text": "GP Practice"
      } ],
      "name": "LYDIA HOUSE PRACTICE"
    }
  }, {
    "fullUrl": "urn:uuid:8783a8a4-15b5-4813-9839-31f0c0b98830",
    "resource": {
      "resourceType": "HealthcareService",
      "id": "8783a8a4-15b5-4813-9839-31f0c0b98830",
      "active": true,
      "providedBy": {
        "reference": "urn:uuid:d0764c66-83c7-4d4b-89df-30d3da667afe"
      },
      "location": [ {
        "reference": "urn:uuid:c07ddcea-da03-4ea2-a2df-cbed5df966a4"
      } ],
      "name": "Repeat Caller - Live (v2)"
    }
  }, {
    "fullUrl": "urn:uuid:c07ddcea-da03-4ea2-a2df-cbed5df966a4",
    "resource": {
      "resourceType": "Location",
      "id": "c07ddcea-da03-4ea2-a2df-cbed5df966a4",
      "managingOrganization": {
        "reference": "urn:uuid:d0764c66-83c7-4d4b-89df-30d3da667afe"
      }
    }
  }, {
    "fullUrl": "urn:uuid:d0764c66-83c7-4d4b-89df-30d3da667afe",
    "resource": {
      "resourceType": "Organization",
      "id": "d0764c66-83c7-4d4b-89df-30d3da667afe",
      "identifier": [ {
        "value": "RHY25"
      } ],
      "type": [ {
        "coding": [ {
          "code": "PRCP",
          "display": "Repeat Caller - Live (v2)"
        } ]
      } ],
      "name": "Repeat Caller - Live (v2)"
    }
  }, {
    "fullUrl": "urn:uuid:e27daf63-abda-40a8-9569-9a86548b7a6f",
    "resource": {
      "resourceType": "ReferralRequest",
      "id": "e27daf63-abda-40a8-9569-9a86548b7a6f",
      "status": "active",
      "intent": "plan",
      "priority": "routine",
      "subject": {
        "reference": "urn:uuid:002841bb-9abe-446b-b2c6-ab774279ba87"
      },
      "context": {
        "reference": "urn:uuid:f85ff7fc-aec1-4673-afea-0ac31e926dae"
      },
      "occurrencePeriod": {
        "start": "2022-04-07T07:52:13+00:00",
        "end": "2022-04-07T08:52:13+00:00"
      },
      "authoredOn": "2020-10-30T09:44:13+00:00",
      "requester": {
        "agent": {
          "reference": "urn:uuid:69374d50-9f08-433b-9d3b-0090045f7118"
        },
        "onBehalfOf": {
          "reference": "urn:uuid:23fa7197-3dfa-4abf-a454-bd282ef7edaa"
        }
      },
      "recipient": [ {
        "reference": "urn:uuid:8783a8a4-15b5-4813-9839-31f0c0b98830"
      } ],
      "reasonReference": [ {
        "reference": "urn:uuid:ed398082-09de-48dd-a447-cb3e2f2ca303"
      } ],
      "supportingInfo": [ {
        "reference": "urn:uuid:03d5e561-1d21-4f3d-ab30-828afd3cc453"
      } ]
    }
  }, {
    "fullUrl": "urn:uuid:03d5e561-1d21-4f3d-ab30-828afd3cc453",
    "resource": {
      "resourceType": "ProcedureRequest",
      "id": "03d5e561-1d21-4f3d-ab30-828afd3cc453",
      "status": "active",
      "intent": "plan",
      "priority": "routine",
      "doNotPerform": false,
      "code": {
        "coding": [ {
          "system": "2.16.840.1.113883.2.1.3.2.4.17.325",
          "code": "Dx05",
          "display": "To contact a local service within 2 hours"
        } ]
      },
      "subject": {
        "reference": "urn:uuid:002841bb-9abe-446b-b2c6-ab774279ba87"
      },
      "occurrencePeriod": {
        "start": "2022-04-07T07:52:13+00:00",
        "end": "2022-04-07T08:52:13+00:00"
      },
      "reasonReference": [ {
        "reference": "urn:uuid:ed398082-09de-48dd-a447-cb3e2f2ca303"
      } ]
    }
  }, {
    "fullUrl": "urn:uuid:d7c4bb9e-db9e-4d92-a88e-e4a48818415c",
    "resource": {
      "resourceType": "Composition",
      "id": "d7c4bb9e-db9e-4d92-a88e-e4a48818415c",
      "identifier": {
        "use": "usual",
        "value": "499BEC45-8F01-498C-A61F-B8AC124ED50E"
      },
      "status": "final",
      "type": {
        "coding": [ {
          "system": "http://snomed.info/sct",
          "code": "371531000",
          "display": "Report of clinical encounter (record artifact)"
        } ]
      },
      "subject": {
        "reference": "urn:uuid:002841bb-9abe-446b-b2c6-ab774279ba87"
      },
      "encounter": {
        "reference": "urn:uuid:f85ff7fc-aec1-4673-afea-0ac31e926dae"
      },
      "date": "2022-04-07T07:52:13+00:00",
      "author": [ {
        "reference": "urn:uuid:8e788ff5-08b1-40a2-a112-bdd623739d5d"
      } ],
      "title": "111 Report",
      "confidentiality": "N",
      "section": [ {
        "section": [ {
          "title": "Patient's Reported Condition",
          "text": {
            "status": "generated",
            "div": "<div xmlns=\"http://www.w3.org/1999/xhtml\">&lt;br/&gt;WHITCHURCH MIU TEST</div>"
          }
        }, {
          "title": "Pathways Disposition",
          "text": {
            "status": "generated",
            "div": "<div xmlns=\"http://www.w3.org/1999/xhtml\">&lt;br/&gt;\n                                                    &lt;br/&gt;\n                                                    &lt;br/&gt;To contact a local service within 2 hours (Dx05)\n\n                                                    Selected service: DO NOT BOOK APPOINTMENT - TESTING Whitchurch Minor Injury Unit</div>"
          }
        }, {
          "title": "Consultation Summary",
          "text": {
            "status": "generated",
            "div": "<div xmlns=\"http://www.w3.org/1999/xhtml\">&lt;br/&gt;\n                                                    &lt;br/&gt;\n                                                    &lt;br/&gt;\n                                                    &lt;br/&gt;\n                                                    &lt;br/&gt;InjuryBite or stingInsect or spider biteSting/bite more than 6 hours agoVery severe, deep limb pain</div>"
          }
        }, {
          "title": "Pathways Assessment",
          "text": {
            "status": "generated",
            "div": "<div xmlns=\"http://www.w3.org/1999/xhtml\">&lt;br/&gt;\n                                                    &lt;br/&gt;\n                                                    &lt;br/&gt;\n                                                    &lt;br/&gt;\n                                                    &lt;br/&gt;\n                                                    &lt;br/&gt;\n                                                    &lt;br/&gt;\n                                                    &lt;br/&gt;\n                                                    &lt;br/&gt;\n                                                    &lt;br/&gt;\n                                                    &lt;br/&gt;\n                                                    &lt;br/&gt;\n                                                    &lt;br/&gt;\n                                                    &lt;br/&gt;\n                                                    &lt;br/&gt;\n                                                    &lt;br/&gt;\n                                                    &lt;br/&gt;\n                                                    &lt;br/&gt;An injury or health problem was the reason for the contact.Heavy bleeding had not occurred in the previous 2 hours.An injury or symptom relating to an injury was the main problem.User Comments: TESTThere was a minor injury (a bite or sting).User Comments: TESTPathway selected - Bites and StingsThe bite or sting was caused by an insect or spider.User Comments: TESTThe sting/bite had not occurred within the previous 6 hours.The individual had been stung less than 10 timesThe individual was not experiencing nausea and/or vomiting.The sting did not involve the eyes, mouth or limb.There was no insect/insect part remaining attached to the skinThere was very severe, deep pain.Instructions given were: The individual needs to contact a local service within 2 hours.Directory of Services referral: DO NOT BOOK APPOINTMENT - TESTING Whitchurch Minor Injury UnitAdvice given:\n                                                    Worsening</div>"
          }
        }, {
          "title": "Advice Given",
          "text": {
            "status": "generated",
            "div": "<div xmlns=\"http://www.w3.org/1999/xhtml\">&lt;br/&gt;\n                                                    &lt;br/&gt;If there are any new symptoms, or if the condition gets worse, changes or you have any other concerns, call us back.</div>"
          }
        }, {
          "title": "Special Patient Notes",
          "text": {
            "status": "generated",
            "div": "<div xmlns=\"http://www.w3.org/1999/xhtml\">&lt;content styleCode=&quot;bold&quot;&gt;Note:&lt;/content&gt;\n                                                    &lt;br/&gt;\n                                                    &lt;content&gt;TEST NOTE West Midlands Single Instance&lt;/content&gt;\n                                                    &lt;br/&gt;\n                                                    &lt;br/&gt;Special Notes from an external system were flagged as being present for this patient.</div>"
          }
        } ]
      }, {
        "title": "ReferralRequest",
        "entry": [ {
          "reference": "urn:uuid:e27daf63-abda-40a8-9569-9a86548b7a6f"
        } ]
      }, {
        "title": "QuestionnaireResponse",
        "entry": [ {
          "reference": "urn:uuid:df6ab080-2d5b-41c4-8a29-29d394ebf55d"
        } ]
      }, {
        "title": "QuestionnaireResponse",
        "entry": [ {
          "reference": "urn:uuid:a20a0ec6-7d54-409f-bb56-45eebdccd525"
        } ]
      }, {
        "title": "QuestionnaireResponse",
        "entry": [ {
          "reference": "urn:uuid:c32053cd-ccd8-40de-b2c7-c06386022cd6"
        } ]
      }, {
        "title": "QuestionnaireResponse",
        "entry": [ {
          "reference": "urn:uuid:e469df7c-2d7a-435b-aa38-7191cdde55e4"
        } ]
      }, {
        "title": "QuestionnaireResponse",
        "entry": [ {
          "reference": "urn:uuid:96b55c75-e9c3-456a-b517-bc538c8a04c3"
        } ]
      }, {
        "title": "QuestionnaireResponse",
        "entry": [ {
          "reference": "urn:uuid:70cf931c-1d34-4f3a-96bf-c47e10375da7"
        } ]
      }, {
        "title": "QuestionnaireResponse",
        "entry": [ {
          "reference": "urn:uuid:e50c54ad-effd-44dc-ad63-3cac6cd992b7"
        } ]
      }, {
        "title": "QuestionnaireResponse",
        "entry": [ {
          "reference": "urn:uuid:0dd4fec0-459d-4d67-82e1-ba4790de6bf4"
        } ]
      }, {
        "title": "QuestionnaireResponse",
        "entry": [ {
          "reference": "urn:uuid:a219230e-dd15-4fbd-a2b5-260ddb678a05"
        } ]
      }, {
        "title": "QuestionnaireResponse",
        "entry": [ {
          "reference": "urn:uuid:3bab73d6-84d3-4624-8c34-1e6df5af2897"
        } ]
      }, {
        "title": "QuestionnaireResponse",
        "entry": [ {
          "reference": "urn:uuid:e2df1a58-63f8-4c58-8c07-00ae03736554"
        } ]
      }, {
        "title": "QuestionnaireResponse",
        "entry": [ {
          "reference": "urn:uuid:28a90c6f-a4ef-40b6-b538-5d673baf4fee"
        } ]
      }, {
        "title": "QuestionnaireResponse",
        "entry": [ {
          "reference": "urn:uuid:d1a5aa0e-7df2-4446-a9b0-2012fcdcf233"
        } ]
      }, {
        "title": "QuestionnaireResponse",
        "entry": [ {
          "reference": "urn:uuid:74740054-8050-4ee4-8805-aada5b892a51"
        } ]
      }, {
        "title": "QuestionnaireResponse",
        "entry": [ {
          "reference": "urn:uuid:540df56c-7988-42f5-bd9d-38ef382e704c"
        } ]
      }, {
        "title": "QuestionnaireResponse",
        "entry": [ {
          "reference": "urn:uuid:a5403d22-3ee7-42eb-b36d-17b8d0e8d3b1"
        } ]
      }, {
        "title": "QuestionnaireResponse",
        "entry": [ {
          "reference": "urn:uuid:c5f4f191-513c-4f54-a518-cbc46ea8cb9c"
        } ]
      }, {
        "title": "QuestionnaireResponse",
        "entry": [ {
          "reference": "urn:uuid:3dcf0d27-0033-4b14-9a23-f456eab31769"
        } ]
      }, {
        "title": "QuestionnaireResponse",
        "entry": [ {
          "reference": "urn:uuid:c2cdedb7-afa0-442e-8ee6-8767d2bcd5c9"
        } ]
      }, {
        "title": "QuestionnaireResponse",
        "entry": [ {
          "reference": "urn:uuid:588ada46-af34-4beb-8f0c-ac7a848c3b7b"
        } ]
      }, {
        "title": "QuestionnaireResponse",
        "entry": [ {
          "reference": "urn:uuid:34f9716c-5ab8-48c8-82df-4a4c16634298"
        } ]
      }, {
        "title": "QuestionnaireResponse",
        "entry": [ {
          "reference": "urn:uuid:107d44c8-2d23-4a06-bbb7-7e7fdb101133"
        } ]
      } ]
    }
  }, {
    "fullUrl": "urn:uuid:8ade6ee7-bb82-495c-8044-4d0b3cead41a",
    "resource": {
      "resourceType": "Consent",
      "id": "8ade6ee7-bb82-495c-8044-4d0b3cead41a",
      "identifier": {
        "use": "usual",
        "value": "499BEC45-8F01-498C-A61F-B8AC124ED50E"
      },
      "status": "active",
      "patient": {
        "reference": "urn:uuid:002841bb-9abe-446b-b2c6-ab774279ba87"
      },
      "period": {
        "start": "2025-10-30T09:45:22+00:00"
      },
      "consentingParty": [ {
        "reference": "urn:uuid:002841bb-9abe-446b-b2c6-ab774279ba87"
      } ],
      "action": [ {
        "coding": [ {
          "system": "http://snomed.info/sct",
          "code": "425691002",
          "display": "Consent given for electronic record sharing"
        } ],
        "text": "Consent given for electronic record sharing"
      } ],
      "organization": [ {
        "reference": "urn:uuid:23fa7197-3dfa-4abf-a454-bd282ef7edaa"
      } ],
      "policyRule": "http://hl7.org/fhir/ConsentPolicy/opt-out",
      "data": [ {
        "meaning": "related",
        "reference": {
          "reference": "urn:uuid:f85ff7fc-aec1-4673-afea-0ac31e926dae"
        }
      } ]
    }
  }, {
    "fullUrl": "urn:uuid:ed398082-09de-48dd-a447-cb3e2f2ca303",
    "resource": {
      "resourceType": "Condition",
      "id": "ed398082-09de-48dd-a447-cb3e2f2ca303",
      "clinicalStatus": "active",
      "verificationStatus": "unknown",
      "subject": {
        "reference": "urn:uuid:002841bb-9abe-446b-b2c6-ab774279ba87"
      },
      "context": {
        "reference": "urn:uuid:f85ff7fc-aec1-4673-afea-0ac31e926dae"
      },
      "evidence": [ {
        "detail": [ {
          "reference": "urn:uuid:df6ab080-2d5b-41c4-8a29-29d394ebf55d"
        } ]
      }, {
        "detail": [ {
          "reference": "urn:uuid:a20a0ec6-7d54-409f-bb56-45eebdccd525"
        } ]
      }, {
        "detail": [ {
          "reference": "urn:uuid:c32053cd-ccd8-40de-b2c7-c06386022cd6"
        } ]
      }, {
        "detail": [ {
          "reference": "urn:uuid:e469df7c-2d7a-435b-aa38-7191cdde55e4"
        } ]
      }, {
        "detail": [ {
          "reference": "urn:uuid:96b55c75-e9c3-456a-b517-bc538c8a04c3"
        } ]
      }, {
        "detail": [ {
          "reference": "urn:uuid:70cf931c-1d34-4f3a-96bf-c47e10375da7"
        } ]
      }, {
        "detail": [ {
          "reference": "urn:uuid:e50c54ad-effd-44dc-ad63-3cac6cd992b7"
        } ]
      }, {
        "detail": [ {
          "reference": "urn:uuid:0dd4fec0-459d-4d67-82e1-ba4790de6bf4"
        } ]
      }, {
        "detail": [ {
          "reference": "urn:uuid:a219230e-dd15-4fbd-a2b5-260ddb678a05"
        } ]
      }, {
        "detail": [ {
          "reference": "urn:uuid:3bab73d6-84d3-4624-8c34-1e6df5af2897"
        } ]
      }, {
        "detail": [ {
          "reference": "urn:uuid:e2df1a58-63f8-4c58-8c07-00ae03736554"
        } ]
      }, {
        "detail": [ {
          "reference": "urn:uuid:28a90c6f-a4ef-40b6-b538-5d673baf4fee"
        } ]
      }, {
        "detail": [ {
          "reference": "urn:uuid:d1a5aa0e-7df2-4446-a9b0-2012fcdcf233"
        } ]
      }, {
        "detail": [ {
          "reference": "urn:uuid:74740054-8050-4ee4-8805-aada5b892a51"
        } ]
      }, {
        "detail": [ {
          "reference": "urn:uuid:540df56c-7988-42f5-bd9d-38ef382e704c"
        } ]
      }, {
        "detail": [ {
          "reference": "urn:uuid:a5403d22-3ee7-42eb-b36d-17b8d0e8d3b1"
        } ]
      }, {
        "detail": [ {
          "reference": "urn:uuid:c5f4f191-513c-4f54-a518-cbc46ea8cb9c"
        } ]
      }, {
        "detail": [ {
          "reference": "urn:uuid:3dcf0d27-0033-4b14-9a23-f456eab31769"
        } ]
      }, {
        "detail": [ {
          "reference": "urn:uuid:c2cdedb7-afa0-442e-8ee6-8767d2bcd5c9"
        } ]
      }, {
        "detail": [ {
          "reference": "urn:uuid:588ada46-af34-4beb-8f0c-ac7a848c3b7b"
        } ]
      }, {
        "detail": [ {
          "reference": "urn:uuid:34f9716c-5ab8-48c8-82df-4a4c16634298"
        } ]
      }, {
        "detail": [ {
          "reference": "urn:uuid:107d44c8-2d23-4a06-bbb7-7e7fdb101133"
        } ]
      } ]
    }
  }, {
    "fullUrl": "urn:uuid:df6ab080-2d5b-41c4-8a29-29d394ebf55d",
    "resource": {
      "resourceType": "QuestionnaireResponse",
      "id": "df6ab080-2d5b-41c4-8a29-29d394ebf55d",
      "identifier": {
        "value": "1193164"
      },
      "questionnaire": {
        "reference": "urn:uuid:44501564-1b71-4f65-8c64-dcdd814c3283"
      },
      "status": "completed",
      "subject": {
        "reference": "urn:uuid:002841bb-9abe-446b-b2c6-ab774279ba87"
      },
      "context": {
        "reference": "urn:uuid:f85ff7fc-aec1-4673-afea-0ac31e926dae"
      },
      "authored": "2020-10-30T09:45:23+00:00",
      "item": [ {
        "linkId": "Tx220074",
        "text": "What is the reason for the contact?",
        "answer": [ {
          "valueString": "an injury or other health problem"
        } ]
      } ]
    }
  }, {
    "fullUrl": "urn:uuid:44501564-1b71-4f65-8c64-dcdd814c3283",
    "resource": {
      "resourceType": "Questionnaire",
      "id": "44501564-1b71-4f65-8c64-dcdd814c3283",
      "identifier": [ {
        "value": "1193164"
      } ],
      "version": "2020-10-30T09:45:23.026Z",
      "status": "active",
      "experimental": false,
      "date": "2020-10-30T09:45:23+00:00",
      "publisher": "User ID: 'HOLDENR' User name: 'Rachael Holden' User skill set: 'T3'",
      "lastReviewDate": "2020-10-30",
      "subjectType": [ "Patient" ],
      "item": [ {
        "linkId": "1193164",
        "prefix": "5",
        "text": "What is the reason for the contact?",
        "type": "choice",
        "required": true,
        "repeats": false,
        "option": [ {
          "valueString": "an injury or other health problem, Selected: true"
        }, {
          "valueString": "labour or childbirth, Selected: false"
        }, {
          "valueString": "a need to access another healthcare service, Selected: false"
        }, {
          "valueString": "a healthcare professional requesting contact with another clinician, Selected: false"
        }, {
          "valueString": "a report of results or tests, Selected: false"
        }, {
          "valueString": "a possible failure of contraception, Selected: false"
        }, {
          "valueString": "more, Selected: false"
        } ]
      } ]
    }
  }, {
    "fullUrl": "urn:uuid:a20a0ec6-7d54-409f-bb56-45eebdccd525",
    "resource": {
      "resourceType": "QuestionnaireResponse",
      "id": "a20a0ec6-7d54-409f-bb56-45eebdccd525",
      "identifier": {
        "value": "1193164"
      },
      "questionnaire": {
        "reference": "urn:uuid:914c9fb6-4859-470d-bf65-e2ccb5a8a0c8"
      },
      "status": "completed",
      "subject": {
        "reference": "urn:uuid:002841bb-9abe-446b-b2c6-ab774279ba87"
      },
      "context": {
        "reference": "urn:uuid:f85ff7fc-aec1-4673-afea-0ac31e926dae"
      },
      "authored": "2020-10-30T09:45:23+00:00",
      "item": [ {
        "linkId": "Tx221807",
        "text": "STRING:to'Immediatethreatstolife(SPA/OOHversion)'-'Majorbloodloss'stem",
        "answer": [ {
          "valueString": "\"present\""
        } ]
      } ]
    }
  }, {
    "fullUrl": "urn:uuid:914c9fb6-4859-470d-bf65-e2ccb5a8a0c8",
    "resource": {
      "resourceType": "Questionnaire",
      "id": "914c9fb6-4859-470d-bf65-e2ccb5a8a0c8",
      "identifier": [ {
        "value": "1193164"
      } ],
      "version": "2020-10-30T09:45:23.026Z",
      "status": "active",
      "experimental": false,
      "date": "2020-10-30T09:45:23+00:00",
      "publisher": "User ID: 'HOLDENR' User name: 'Rachael Holden' User skill set: 'T3'",
      "lastReviewDate": "2020-10-30",
      "subjectType": [ "Patient" ],
      "item": [ {
        "linkId": "1193164",
        "prefix": "200",
        "text": "STRING:to'Immediatethreatstolife(SPA/OOHversion)'-'Majorbloodloss'stem",
        "type": "choice",
        "required": true,
        "repeats": false,
        "option": [ {
          "valueString": "\"present\", Selected: true"
        } ]
      } ]
    }
  }, {
    "fullUrl": "urn:uuid:c32053cd-ccd8-40de-b2c7-c06386022cd6",
    "resource": {
      "resourceType": "QuestionnaireResponse",
      "id": "c32053cd-ccd8-40de-b2c7-c06386022cd6",
      "identifier": {
        "value": "1193164"
      },
      "questionnaire": {
        "reference": "urn:uuid:394b3951-0305-4974-a49c-32ec0f476855"
      },
      "status": "completed",
      "subject": {
        "reference": "urn:uuid:002841bb-9abe-446b-b2c6-ab774279ba87"
      },
      "context": {
        "reference": "urn:uuid:f85ff7fc-aec1-4673-afea-0ac31e926dae"
      },
      "authored": "2020-10-30T09:45:23+00:00"
    }
  }, {
    "fullUrl": "urn:uuid:394b3951-0305-4974-a49c-32ec0f476855",
    "resource": {
      "resourceType": "Questionnaire",
      "id": "394b3951-0305-4974-a49c-32ec0f476855",
      "identifier": [ {
        "value": "1193164"
      } ],
      "version": "2020-10-30T09:45:23.026Z",
      "status": "active",
      "experimental": false,
      "date": "2020-10-30T09:45:23+00:00",
      "publisher": "User ID: 'HOLDENR' User name: 'Rachael Holden' User skill set: 'T3'",
      "lastReviewDate": "2020-10-30",
      "subjectType": [ "Patient" ]
    }
  }, {
    "fullUrl": "urn:uuid:e469df7c-2d7a-435b-aa38-7191cdde55e4",
    "resource": {
      "resourceType": "QuestionnaireResponse",
      "id": "e469df7c-2d7a-435b-aa38-7191cdde55e4",
      "identifier": {
        "value": "1193164"
      },
      "questionnaire": {
        "reference": "urn:uuid:b745915c-98f9-425d-aeb3-ce785583496d"
      },
      "status": "completed",
      "subject": {
        "reference": "urn:uuid:002841bb-9abe-446b-b2c6-ab774279ba87"
      },
      "context": {
        "reference": "urn:uuid:f85ff7fc-aec1-4673-afea-0ac31e926dae"
      },
      "authored": "2020-10-30T09:45:23+00:00",
      "item": [ {
        "linkId": "Tx221799",
        "text": "STRING:injury,illnessorlabourestablishedinEntryFlow",
        "answer": [ {
          "valueString": "\"present\""
        } ]
      } ]
    }
  }, {
    "fullUrl": "urn:uuid:b745915c-98f9-425d-aeb3-ce785583496d",
    "resource": {
      "resourceType": "Questionnaire",
      "id": "b745915c-98f9-425d-aeb3-ce785583496d",
      "identifier": [ {
        "value": "1193164"
      } ],
      "version": "2020-10-30T09:45:23.026Z",
      "status": "active",
      "experimental": false,
      "date": "2020-10-30T09:45:23+00:00",
      "publisher": "User ID: 'HOLDENR' User name: 'Rachael Holden' User skill set: 'T3'",
      "lastReviewDate": "2020-10-30",
      "subjectType": [ "Patient" ],
      "item": [ {
        "linkId": "1193164",
        "prefix": "0",
        "text": "STRING:injury,illnessorlabourestablishedinEntryFlow",
        "type": "choice",
        "required": true,
        "repeats": false,
        "option": [ {
          "valueString": "\"present\", Selected: true"
        } ]
      } ]
    }
  }, {
    "fullUrl": "urn:uuid:96b55c75-e9c3-456a-b517-bc538c8a04c3",
    "resource": {
      "resourceType": "QuestionnaireResponse",
      "id": "96b55c75-e9c3-456a-b517-bc538c8a04c3",
      "identifier": {
        "value": "1193164"
      },
      "questionnaire": {
        "reference": "urn:uuid:65b1b966-5cf3-485e-898e-7ab5596a54d5"
      },
      "status": "completed",
      "subject": {
        "reference": "urn:uuid:002841bb-9abe-446b-b2c6-ab774279ba87"
      },
      "context": {
        "reference": "urn:uuid:f85ff7fc-aec1-4673-afea-0ac31e926dae"
      },
      "authored": "2020-10-30T09:45:23+00:00",
      "item": [ {
        "linkId": "Tx224120",
        "text": "Have you been bleeding RED BLOOD very heavily IN THE LAST 2 HOURS?",
        "answer": [ {
          "valueString": "no"
        } ]
      } ]
    }
  }, {
    "fullUrl": "urn:uuid:65b1b966-5cf3-485e-898e-7ab5596a54d5",
    "resource": {
      "resourceType": "Questionnaire",
      "id": "65b1b966-5cf3-485e-898e-7ab5596a54d5",
      "identifier": [ {
        "value": "1193164"
      } ],
      "version": "2020-10-30T09:45:23.026Z",
      "status": "active",
      "experimental": false,
      "date": "2020-10-30T09:45:23+00:00",
      "publisher": "User ID: 'HOLDENR' User name: 'Rachael Holden' User skill set: 'T3'",
      "lastReviewDate": "2020-10-30",
      "subjectType": [ "Patient" ],
      "item": [ {
        "linkId": "1193164",
        "prefix": "10100",
        "text": "Have you been bleeding RED BLOOD very heavily IN THE LAST 2 HOURS?",
        "type": "choice",
        "required": true,
        "repeats": false,
        "option": [ {
          "valueString": "yes, Selected: false"
        }, {
          "valueString": "not sure, Selected: false"
        }, {
          "valueString": "no, Selected: true"
        } ]
      } ]
    }
  }, {
    "fullUrl": "urn:uuid:70cf931c-1d34-4f3a-96bf-c47e10375da7",
    "resource": {
      "resourceType": "QuestionnaireResponse",
      "id": "70cf931c-1d34-4f3a-96bf-c47e10375da7",
      "identifier": {
        "value": "1193164"
      },
      "questionnaire": {
        "reference": "urn:uuid:85cd0f5a-26d2-4ce2-8697-755ae139535d"
      },
      "status": "completed",
      "subject": {
        "reference": "urn:uuid:002841bb-9abe-446b-b2c6-ab774279ba87"
      },
      "context": {
        "reference": "urn:uuid:f85ff7fc-aec1-4673-afea-0ac31e926dae"
      },
      "authored": "2020-10-30T09:45:23+00:00",
      "item": [ {
        "linkId": "Tx221343",
        "text": "SocialConcernsExcluded",
        "answer": [ {
          "valueString": "==\"present\""
        } ]
      } ]
    }
  }, {
    "fullUrl": "urn:uuid:85cd0f5a-26d2-4ce2-8697-755ae139535d",
    "resource": {
      "resourceType": "Questionnaire",
      "id": "85cd0f5a-26d2-4ce2-8697-755ae139535d",
      "identifier": [ {
        "value": "1193164"
      } ],
      "version": "2020-10-30T09:45:23.026Z",
      "status": "active",
      "experimental": false,
      "date": "2020-10-30T09:45:23+00:00",
      "publisher": "User ID: 'HOLDENR' User name: 'Rachael Holden' User skill set: 'T3'",
      "lastReviewDate": "2020-10-30",
      "subjectType": [ "Patient" ],
      "item": [ {
        "linkId": "1193164",
        "prefix": "1100",
        "text": "SocialConcernsExcluded",
        "type": "choice",
        "required": true,
        "repeats": false,
        "option": [ {
          "valueString": "==\"present\", Selected: true"
        }, {
          "valueString": "*, Selected: false"
        } ]
      } ]
    }
  }, {
    "fullUrl": "urn:uuid:e50c54ad-effd-44dc-ad63-3cac6cd992b7",
    "resource": {
      "resourceType": "QuestionnaireResponse",
      "id": "e50c54ad-effd-44dc-ad63-3cac6cd992b7",
      "identifier": {
        "value": "1193164"
      },
      "questionnaire": {
        "reference": "urn:uuid:0357c0ce-9bfa-41f1-845e-b5ac7ce609b9"
      },
      "status": "completed",
      "subject": {
        "reference": "urn:uuid:002841bb-9abe-446b-b2c6-ab774279ba87"
      },
      "context": {
        "reference": "urn:uuid:f85ff7fc-aec1-4673-afea-0ac31e926dae"
      },
      "authored": "2020-10-30T09:45:23+00:00",
      "item": [ {
        "linkId": "Tx130011",
        "text": "What is the main problem?",
        "answer": [ {
          "valueString": "injury (specify)"
        } ]
      } ]
    }
  }, {
    "fullUrl": "urn:uuid:0357c0ce-9bfa-41f1-845e-b5ac7ce609b9",
    "resource": {
      "resourceType": "Questionnaire",
      "id": "0357c0ce-9bfa-41f1-845e-b5ac7ce609b9",
      "identifier": [ {
        "value": "1193164"
      } ],
      "version": "2020-10-30T09:45:23.026Z",
      "status": "active",
      "experimental": false,
      "date": "2020-10-30T09:45:23+00:00",
      "publisher": "User ID: 'HOLDENR' User name: 'Rachael Holden' User skill set: 'T3'",
      "lastReviewDate": "2020-10-30",
      "subjectType": [ "Patient" ],
      "item": [ {
        "linkId": "1193164",
        "prefix": "2300",
        "text": "What is the main problem?",
        "type": "choice",
        "required": true,
        "repeats": false,
        "option": [ {
          "valueString": "the individual has been told to follow a particular course of action (specify), Selected: false"
        }, {
          "valueString": "the individual is an identified frequent caller, Selected: false"
        }, {
          "valueString": "injury (specify), Selected: true"
        }, {
          "valueString": "illness or other health problem (specify), Selected: false"
        }, {
          "valueString": "child protection/vulnerable adult concern, Selected: false"
        }, {
          "valueString": "social or domestic emergency, Selected: false"
        }, {
          "valueString": "the environment potentially poses an immediate threat to life (specify), Selected: false"
        } ]
      } ]
    }
  }, {
    "fullUrl": "urn:uuid:0dd4fec0-459d-4d67-82e1-ba4790de6bf4",
    "resource": {
      "resourceType": "QuestionnaireResponse",
      "id": "0dd4fec0-459d-4d67-82e1-ba4790de6bf4",
      "identifier": {
        "value": "1193164"
      },
      "questionnaire": {
        "reference": "urn:uuid:314eb03a-d5fc-450c-bf17-5cb5e65a4be3"
      },
      "status": "completed",
      "subject": {
        "reference": "urn:uuid:002841bb-9abe-446b-b2c6-ab774279ba87"
      },
      "context": {
        "reference": "urn:uuid:f85ff7fc-aec1-4673-afea-0ac31e926dae"
      },
      "authored": "2020-10-30T09:45:23+00:00",
      "item": [ {
        "linkId": "Tx224119",
        "text": "FROM WHAT YOU HAVE HEARD IS THIS A MINOR INJURY?",
        "answer": [ {
          "valueString": "yes - a minor bite or sting (specify)"
        } ]
      } ]
    }
  }, {
    "fullUrl": "urn:uuid:314eb03a-d5fc-450c-bf17-5cb5e65a4be3",
    "resource": {
      "resourceType": "Questionnaire",
      "id": "314eb03a-d5fc-450c-bf17-5cb5e65a4be3",
      "identifier": [ {
        "value": "1193164"
      } ],
      "version": "2020-10-30T09:45:23.026Z",
      "status": "active",
      "experimental": false,
      "date": "2020-10-30T09:45:23+00:00",
      "publisher": "User ID: 'HOLDENR' User name: 'Rachael Holden' User skill set: 'T3'",
      "lastReviewDate": "2020-10-30",
      "subjectType": [ "Patient" ],
      "item": [ {
        "linkId": "1193164",
        "prefix": "15000",
        "text": "FROM WHAT YOU HAVE HEARD IS THIS A MINOR INJURY?",
        "type": "choice",
        "required": true,
        "repeats": false,
        "option": [ {
          "valueString": "yes - a minor bite or sting (specify), Selected: true"
        }, {
          "valueString": "yes - a scratch, graze or minor wound, Selected: false"
        }, {
          "valueString": "yes - skin minor foreign body or skin glued, Selected: false"
        }, {
          "valueString": "yes - trauma blisters, Selected: false"
        }, {
          "valueString": "yes - a single finger or toe injury, Selected: false"
        }, {
          "valueString": "not sure, Selected: false"
        }, {
          "valueString": "no, Selected: false"
        } ]
      } ]
    }
  }, {
    "fullUrl": "urn:uuid:a219230e-dd15-4fbd-a2b5-260ddb678a05",
    "resource": {
      "resourceType": "QuestionnaireResponse",
      "id": "a219230e-dd15-4fbd-a2b5-260ddb678a05",
      "identifier": {
        "value": "1193164"
      },
      "questionnaire": {
        "reference": "urn:uuid:028701b7-0b6a-4c3f-bc57-1067d6a31424"
      },
      "status": "completed",
      "subject": {
        "reference": "urn:uuid:002841bb-9abe-446b-b2c6-ab774279ba87"
      },
      "context": {
        "reference": "urn:uuid:f85ff7fc-aec1-4673-afea-0ac31e926dae"
      },
      "authored": "2020-10-30T09:45:23+00:00",
      "item": [ {
        "linkId": "Tx225125",
        "text": "SYSTEM_INJURYMODULE",
        "answer": [ {
          "valueString": "==\"injurymodule\""
        } ]
      } ]
    }
  }, {
    "fullUrl": "urn:uuid:028701b7-0b6a-4c3f-bc57-1067d6a31424",
    "resource": {
      "resourceType": "Questionnaire",
      "id": "028701b7-0b6a-4c3f-bc57-1067d6a31424",
      "identifier": [ {
        "value": "1193164"
      } ],
      "version": "2020-10-30T09:45:23.026Z",
      "status": "active",
      "experimental": false,
      "date": "2020-10-30T09:45:23+00:00",
      "publisher": "User ID: 'HOLDENR' User name: 'Rachael Holden' User skill set: 'T3'",
      "lastReviewDate": "2020-10-30",
      "subjectType": [ "Patient" ],
      "item": [ {
        "linkId": "1193164",
        "prefix": "23700",
        "text": "SYSTEM_INJURYMODULE",
        "type": "choice",
        "required": true,
        "repeats": false,
        "option": [ {
          "valueString": "==\"injurymodule\", Selected: true"
        }, {
          "valueString": "*, Selected: false"
        } ]
      } ]
    }
  }, {
    "fullUrl": "urn:uuid:3bab73d6-84d3-4624-8c34-1e6df5af2897",
    "resource": {
      "resourceType": "QuestionnaireResponse",
      "id": "3bab73d6-84d3-4624-8c34-1e6df5af2897",
      "identifier": {
        "value": "1193164"
      },
      "questionnaire": {
        "reference": "urn:uuid:206936d4-6979-441b-9fa7-151dc0be51ef"
      },
      "status": "completed",
      "subject": {
        "reference": "urn:uuid:002841bb-9abe-446b-b2c6-ab774279ba87"
      },
      "context": {
        "reference": "urn:uuid:f85ff7fc-aec1-4673-afea-0ac31e926dae"
      },
      "authored": "2020-10-30T09:45:23+00:00"
    }
  }, {
    "fullUrl": "urn:uuid:206936d4-6979-441b-9fa7-151dc0be51ef",
    "resource": {
      "resourceType": "Questionnaire",
      "id": "206936d4-6979-441b-9fa7-151dc0be51ef",
      "identifier": [ {
        "value": "1193164"
      } ],
      "version": "2020-10-30T09:45:23.026Z",
      "status": "active",
      "experimental": false,
      "date": "2020-10-30T09:45:23+00:00",
      "publisher": "User ID: 'HOLDENR' User name: 'Rachael Holden' User skill set: 'T3'",
      "lastReviewDate": "2020-10-30",
      "subjectType": [ "Patient" ]
    }
  }, {
    "fullUrl": "urn:uuid:e2df1a58-63f8-4c58-8c07-00ae03736554",
    "resource": {
      "resourceType": "QuestionnaireResponse",
      "id": "e2df1a58-63f8-4c58-8c07-00ae03736554",
      "identifier": {
        "value": "1193164"
      },
      "questionnaire": {
        "reference": "urn:uuid:0ac246ce-fc9c-4309-89e0-6cb0a9a38268"
      },
      "status": "completed",
      "subject": {
        "reference": "urn:uuid:002841bb-9abe-446b-b2c6-ab774279ba87"
      },
      "context": {
        "reference": "urn:uuid:f85ff7fc-aec1-4673-afea-0ac31e926dae"
      },
      "authored": "2020-10-30T09:45:23+00:00",
      "item": [ {
        "linkId": "Tx3529",
        "text": "WHAT WAS THE CAUSE?",
        "answer": [ {
          "valueString": "an insect or spider (specify if known)"
        } ]
      } ]
    }
  }, {
    "fullUrl": "urn:uuid:0ac246ce-fc9c-4309-89e0-6cb0a9a38268",
    "resource": {
      "resourceType": "Questionnaire",
      "id": "0ac246ce-fc9c-4309-89e0-6cb0a9a38268",
      "identifier": [ {
        "value": "1193164"
      } ],
      "version": "2020-10-30T09:45:23.026Z",
      "status": "active",
      "experimental": false,
      "date": "2020-10-30T09:45:23+00:00",
      "publisher": "User ID: 'HOLDENR' User name: 'Rachael Holden' User skill set: 'T3'",
      "lastReviewDate": "2020-10-30",
      "subjectType": [ "Patient" ],
      "item": [ {
        "linkId": "1193164",
        "prefix": "0",
        "text": "WHAT WAS THE CAUSE?",
        "type": "choice",
        "required": true,
        "repeats": false,
        "option": [ {
          "valueString": "a person, Selected: false"
        }, {
          "valueString": "an animal (specify if known), Selected: false"
        }, {
          "valueString": "a snake (specify if known), Selected: false"
        }, {
          "valueString": "an insect or spider (specify if known), Selected: true"
        }, {
          "valueString": "stung by a water creature (specify if known), Selected: false"
        }, {
          "valueString": "bitten by a water creature (specify if known), Selected: false"
        }, {
          "valueString": "not sure, Selected: false"
        } ]
      } ]
    }
  }, {
    "fullUrl": "urn:uuid:28a90c6f-a4ef-40b6-b538-5d673baf4fee",
    "resource": {
      "resourceType": "QuestionnaireResponse",
      "id": "28a90c6f-a4ef-40b6-b538-5d673baf4fee",
      "identifier": {
        "value": "1193164"
      },
      "questionnaire": {
        "reference": "urn:uuid:85b7869f-5b79-4ccf-80c0-823b1e472a8d"
      },
      "status": "completed",
      "subject": {
        "reference": "urn:uuid:002841bb-9abe-446b-b2c6-ab774279ba87"
      },
      "context": {
        "reference": "urn:uuid:f85ff7fc-aec1-4673-afea-0ac31e926dae"
      },
      "authored": "2020-10-30T09:45:23+00:00"
    }
  }, {
    "fullUrl": "urn:uuid:85b7869f-5b79-4ccf-80c0-823b1e472a8d",
    "resource": {
      "resourceType": "Questionnaire",
      "id": "85b7869f-5b79-4ccf-80c0-823b1e472a8d",
      "identifier": [ {
        "value": "1193164"
      } ],
      "version": "2020-10-30T09:45:23.026Z",
      "status": "active",
      "experimental": false,
      "date": "2020-10-30T09:45:23+00:00",
      "publisher": "User ID: 'HOLDENR' User name: 'Rachael Holden' User skill set: 'T3'",
      "lastReviewDate": "2020-10-30",
      "subjectType": [ "Patient" ]
    }
  }, {
    "fullUrl": "urn:uuid:d1a5aa0e-7df2-4446-a9b0-2012fcdcf233",
    "resource": {
      "resourceType": "QuestionnaireResponse",
      "id": "d1a5aa0e-7df2-4446-a9b0-2012fcdcf233",
      "identifier": {
        "value": "1193164"
      },
      "questionnaire": {
        "reference": "urn:uuid:f577527a-b2ef-452d-83fb-dfa684495f09"
      },
      "status": "completed",
      "subject": {
        "reference": "urn:uuid:002841bb-9abe-446b-b2c6-ab774279ba87"
      },
      "context": {
        "reference": "urn:uuid:f85ff7fc-aec1-4673-afea-0ac31e926dae"
      },
      "authored": "2020-10-30T09:45:23+00:00",
      "item": [ {
        "linkId": "Tx220302",
        "text": "Did it happen WITHIN THE LAST 6 HOURS?",
        "answer": [ {
          "valueString": "no"
        } ]
      } ]
    }
  }, {
    "fullUrl": "urn:uuid:f577527a-b2ef-452d-83fb-dfa684495f09",
    "resource": {
      "resourceType": "Questionnaire",
      "id": "f577527a-b2ef-452d-83fb-dfa684495f09",
      "identifier": [ {
        "value": "1193164"
      } ],
      "version": "2020-10-30T09:45:23.026Z",
      "status": "active",
      "experimental": false,
      "date": "2020-10-30T09:45:23+00:00",
      "publisher": "User ID: 'HOLDENR' User name: 'Rachael Holden' User skill set: 'T3'",
      "lastReviewDate": "2020-10-30",
      "subjectType": [ "Patient" ],
      "item": [ {
        "linkId": "1193164",
        "prefix": "0",
        "text": "Did it happen WITHIN THE LAST 6 HOURS?",
        "type": "choice",
        "required": true,
        "repeats": false,
        "option": [ {
          "valueString": "yes, Selected: false"
        }, {
          "valueString": "not sure, Selected: false"
        }, {
          "valueString": "no, Selected: true"
        } ]
      } ]
    }
  }, {
    "fullUrl": "urn:uuid:74740054-8050-4ee4-8805-aada5b892a51",
    "resource": {
      "resourceType": "QuestionnaireResponse",
      "id": "74740054-8050-4ee4-8805-aada5b892a51",
      "identifier": {
        "value": "1193164"
      },
      "questionnaire": {
        "reference": "urn:uuid:e3d6afcd-1b7b-4ec3-b0bf-e9adcbe3f3b3"
      },
      "status": "completed",
      "subject": {
        "reference": "urn:uuid:002841bb-9abe-446b-b2c6-ab774279ba87"
      },
      "context": {
        "reference": "urn:uuid:f85ff7fc-aec1-4673-afea-0ac31e926dae"
      },
      "authored": "2020-10-30T09:45:23+00:00",
      "item": [ {
        "linkId": "Tx3543",
        "text": "Have you been stung 10 or more times?",
        "answer": [ {
          "valueString": "no"
        } ]
      } ]
    }
  }, {
    "fullUrl": "urn:uuid:e3d6afcd-1b7b-4ec3-b0bf-e9adcbe3f3b3",
    "resource": {
      "resourceType": "Questionnaire",
      "id": "e3d6afcd-1b7b-4ec3-b0bf-e9adcbe3f3b3",
      "identifier": [ {
        "value": "1193164"
      } ],
      "version": "2020-10-30T09:45:23.026Z",
      "status": "active",
      "experimental": false,
      "date": "2020-10-30T09:45:23+00:00",
      "publisher": "User ID: 'HOLDENR' User name: 'Rachael Holden' User skill set: 'T3'",
      "lastReviewDate": "2020-10-30",
      "subjectType": [ "Patient" ],
      "item": [ {
        "linkId": "1193164",
        "prefix": "2900",
        "text": "Have you been stung 10 or more times?",
        "type": "choice",
        "required": true,
        "repeats": false,
        "option": [ {
          "valueString": "yes, Selected: false"
        }, {
          "valueString": "not sure, Selected: false"
        }, {
          "valueString": "no, Selected: true"
        } ]
      } ]
    }
  }, {
    "fullUrl": "urn:uuid:540df56c-7988-42f5-bd9d-38ef382e704c",
    "resource": {
      "resourceType": "QuestionnaireResponse",
      "id": "540df56c-7988-42f5-bd9d-38ef382e704c",
      "identifier": {
        "value": "1193164"
      },
      "questionnaire": {
        "reference": "urn:uuid:8f94c3f8-150b-4837-9908-039dd1cc54e2"
      },
      "status": "completed",
      "subject": {
        "reference": "urn:uuid:002841bb-9abe-446b-b2c6-ab774279ba87"
      },
      "context": {
        "reference": "urn:uuid:f85ff7fc-aec1-4673-afea-0ac31e926dae"
      },
      "authored": "2020-10-30T09:45:23+00:00",
      "item": [ {
        "linkId": "Tx3557",
        "text": "Have you got nausea or vomiting now?",
        "answer": [ {
          "valueString": "no"
        } ]
      } ]
    }
  }, {
    "fullUrl": "urn:uuid:8f94c3f8-150b-4837-9908-039dd1cc54e2",
    "resource": {
      "resourceType": "Questionnaire",
      "id": "8f94c3f8-150b-4837-9908-039dd1cc54e2",
      "identifier": [ {
        "value": "1193164"
      } ],
      "version": "2020-10-30T09:45:23.026Z",
      "status": "active",
      "experimental": false,
      "date": "2020-10-30T09:45:23+00:00",
      "publisher": "User ID: 'HOLDENR' User name: 'Rachael Holden' User skill set: 'T3'",
      "lastReviewDate": "2020-10-30",
      "subjectType": [ "Patient" ],
      "item": [ {
        "linkId": "1193164",
        "prefix": "3000",
        "text": "Have you got nausea or vomiting now?",
        "type": "choice",
        "required": true,
        "repeats": false,
        "option": [ {
          "valueString": "yes, Selected: false"
        }, {
          "valueString": "not sure, Selected: false"
        }, {
          "valueString": "no, Selected: true"
        } ]
      } ]
    }
  }, {
    "fullUrl": "urn:uuid:a5403d22-3ee7-42eb-b36d-17b8d0e8d3b1",
    "resource": {
      "resourceType": "QuestionnaireResponse",
      "id": "a5403d22-3ee7-42eb-b36d-17b8d0e8d3b1",
      "identifier": {
        "value": "1193164"
      },
      "questionnaire": {
        "reference": "urn:uuid:08bd6d12-bb39-4206-a0cd-7c09ca9ac164"
      },
      "status": "completed",
      "subject": {
        "reference": "urn:uuid:002841bb-9abe-446b-b2c6-ab774279ba87"
      },
      "context": {
        "reference": "urn:uuid:f85ff7fc-aec1-4673-afea-0ac31e926dae"
      },
      "authored": "2020-10-30T09:45:23+00:00",
      "item": [ {
        "linkId": "Tx3561",
        "text": "Have you been bitten or stung in any of these areas?",
        "answer": [ {
          "valueString": "no"
        } ]
      } ]
    }
  }, {
    "fullUrl": "urn:uuid:08bd6d12-bb39-4206-a0cd-7c09ca9ac164",
    "resource": {
      "resourceType": "Questionnaire",
      "id": "08bd6d12-bb39-4206-a0cd-7c09ca9ac164",
      "identifier": [ {
        "value": "1193164"
      } ],
      "version": "2020-10-30T09:45:23.026Z",
      "status": "active",
      "experimental": false,
      "date": "2020-10-30T09:45:23+00:00",
      "publisher": "User ID: 'HOLDENR' User name: 'Rachael Holden' User skill set: 'T3'",
      "lastReviewDate": "2020-10-30",
      "subjectType": [ "Patient" ],
      "item": [ {
        "linkId": "1193164",
        "prefix": "3900",
        "text": "Have you been bitten or stung in any of these areas?",
        "type": "choice",
        "required": true,
        "repeats": false,
        "option": [ {
          "valueString": "the eyeball, Selected: false"
        }, {
          "valueString": "inside the mouth or on the lips, Selected: false"
        }, {
          "valueString": "limb, Selected: false"
        }, {
          "valueString": "not sure, Selected: false"
        }, {
          "valueString": "no, Selected: true"
        } ]
      } ]
    }
  }, {
    "fullUrl": "urn:uuid:c5f4f191-513c-4f54-a518-cbc46ea8cb9c",
    "resource": {
      "resourceType": "QuestionnaireResponse",
      "id": "c5f4f191-513c-4f54-a518-cbc46ea8cb9c",
      "identifier": {
        "value": "1193164"
      },
      "questionnaire": {
        "reference": "urn:uuid:0de3585d-b754-41ba-81dd-3a2a6630804f"
      },
      "status": "completed",
      "subject": {
        "reference": "urn:uuid:002841bb-9abe-446b-b2c6-ab774279ba87"
      },
      "context": {
        "reference": "urn:uuid:f85ff7fc-aec1-4673-afea-0ac31e926dae"
      },
      "authored": "2020-10-30T09:45:23+00:00",
      "item": [ {
        "linkId": "Tx3544",
        "text": "Is the insect or part of the insect still attached to the skin?",
        "answer": [ {
          "valueString": "no"
        } ]
      } ]
    }
  }, {
    "fullUrl": "urn:uuid:0de3585d-b754-41ba-81dd-3a2a6630804f",
    "resource": {
      "resourceType": "Questionnaire",
      "id": "0de3585d-b754-41ba-81dd-3a2a6630804f",
      "identifier": [ {
        "value": "1193164"
      } ],
      "version": "2020-10-30T09:45:23.026Z",
      "status": "active",
      "experimental": false,
      "date": "2020-10-30T09:45:23+00:00",
      "publisher": "User ID: 'HOLDENR' User name: 'Rachael Holden' User skill set: 'T3'",
      "lastReviewDate": "2020-10-30",
      "subjectType": [ "Patient" ],
      "item": [ {
        "linkId": "1193164",
        "prefix": "9400",
        "text": "Is the insect or part of the insect still attached to the skin?",
        "type": "choice",
        "required": true,
        "repeats": false,
        "option": [ {
          "valueString": "yes, Selected: false"
        }, {
          "valueString": "not sure, Selected: false"
        }, {
          "valueString": "no, Selected: true"
        } ]
      } ]
    }
  }, {
    "fullUrl": "urn:uuid:3dcf0d27-0033-4b14-9a23-f456eab31769",
    "resource": {
      "resourceType": "QuestionnaireResponse",
      "id": "3dcf0d27-0033-4b14-9a23-f456eab31769",
      "identifier": {
        "value": "1193164"
      },
      "questionnaire": {
        "reference": "urn:uuid:9049c95f-b4a2-4ae7-a1ad-ac74054b2a30"
      },
      "status": "completed",
      "subject": {
        "reference": "urn:uuid:002841bb-9abe-446b-b2c6-ab774279ba87"
      },
      "context": {
        "reference": "urn:uuid:f85ff7fc-aec1-4673-afea-0ac31e926dae"
      },
      "authored": "2020-10-30T09:45:23+00:00",
      "item": [ {
        "linkId": "Tx1449",
        "text": "Have you got very severe pain deep inside the affected area?",
        "answer": [ {
          "valueString": "yes"
        } ]
      } ]
    }
  }, {
    "fullUrl": "urn:uuid:9049c95f-b4a2-4ae7-a1ad-ac74054b2a30",
    "resource": {
      "resourceType": "Questionnaire",
      "id": "9049c95f-b4a2-4ae7-a1ad-ac74054b2a30",
      "identifier": [ {
        "value": "1193164"
      } ],
      "version": "2020-10-30T09:45:23.026Z",
      "status": "active",
      "experimental": false,
      "date": "2020-10-30T09:45:23+00:00",
      "publisher": "User ID: 'HOLDENR' User name: 'Rachael Holden' User skill set: 'T3'",
      "lastReviewDate": "2020-10-30",
      "subjectType": [ "Patient" ],
      "item": [ {
        "linkId": "1193164",
        "prefix": "19700",
        "text": "Have you got very severe pain deep inside the affected area?",
        "type": "choice",
        "required": true,
        "repeats": false,
        "option": [ {
          "valueString": "yes, Selected: true"
        }, {
          "valueString": "not sure, Selected: false"
        }, {
          "valueString": "no, Selected: false"
        } ]
      } ]
    }
  }, {
    "fullUrl": "urn:uuid:c2cdedb7-afa0-442e-8ee6-8767d2bcd5c9",
    "resource": {
      "resourceType": "QuestionnaireResponse",
      "id": "c2cdedb7-afa0-442e-8ee6-8767d2bcd5c9",
      "identifier": {
        "value": "1193164"
      },
      "questionnaire": {
        "reference": "urn:uuid:c3698303-96be-490f-ab55-ecc36c9e8ed3"
      },
      "status": "completed",
      "subject": {
        "reference": "urn:uuid:002841bb-9abe-446b-b2c6-ab774279ba87"
      },
      "context": {
        "reference": "urn:uuid:f85ff7fc-aec1-4673-afea-0ac31e926dae"
      },
      "authored": "2020-10-30T09:45:23+00:00",
      "item": [ {
        "linkId": "Tx221449",
        "text": "STRING:SDPCFullPrimaryCareassessmentandprescribingcapability",
        "answer": [ {
          "valueString": "\"PC full Primary Care assessment and prescribing capability\""
        } ]
      } ]
    }
  }, {
    "fullUrl": "urn:uuid:c3698303-96be-490f-ab55-ecc36c9e8ed3",
    "resource": {
      "resourceType": "Questionnaire",
      "id": "c3698303-96be-490f-ab55-ecc36c9e8ed3",
      "identifier": [ {
        "value": "1193164"
      } ],
      "version": "2020-10-30T09:45:23.026Z",
      "status": "active",
      "experimental": false,
      "date": "2020-10-30T09:45:23+00:00",
      "publisher": "User ID: 'HOLDENR' User name: 'Rachael Holden' User skill set: 'T3'",
      "lastReviewDate": "2020-10-30",
      "subjectType": [ "Patient" ],
      "item": [ {
        "linkId": "1193164",
        "prefix": "19900",
        "text": "STRING:SDPCFullPrimaryCareassessmentandprescribingcapability",
        "type": "choice",
        "required": true,
        "repeats": false,
        "option": [ {
          "valueString": "\"PC full Primary Care assessment and prescribing capability\", Selected: true"
        } ]
      } ]
    }
  }, {
    "fullUrl": "urn:uuid:588ada46-af34-4beb-8f0c-ac7a848c3b7b",
    "resource": {
      "resourceType": "QuestionnaireResponse",
      "id": "588ada46-af34-4beb-8f0c-ac7a848c3b7b",
      "identifier": {
        "value": "1193164"
      },
      "questionnaire": {
        "reference": "urn:uuid:c7bef616-3913-4f19-a127-09ba42a521ba"
      },
      "status": "completed",
      "subject": {
        "reference": "urn:uuid:002841bb-9abe-446b-b2c6-ab774279ba87"
      },
      "context": {
        "reference": "urn:uuid:f85ff7fc-aec1-4673-afea-0ac31e926dae"
      },
      "authored": "2020-10-30T09:45:23+00:00"
    }
  }, {
    "fullUrl": "urn:uuid:c7bef616-3913-4f19-a127-09ba42a521ba",
    "resource": {
      "resourceType": "Questionnaire",
      "id": "c7bef616-3913-4f19-a127-09ba42a521ba",
      "identifier": [ {
        "value": "1193164"
      } ],
      "version": "2020-10-30T09:45:23.026Z",
      "status": "active",
      "experimental": false,
      "date": "2020-10-30T09:45:23+00:00",
      "publisher": "User ID: 'HOLDENR' User name: 'Rachael Holden' User skill set: 'T3'",
      "lastReviewDate": "2020-10-30",
      "subjectType": [ "Patient" ]
    }
  }, {
    "fullUrl": "urn:uuid:34f9716c-5ab8-48c8-82df-4a4c16634298",
    "resource": {
      "resourceType": "QuestionnaireResponse",
      "id": "34f9716c-5ab8-48c8-82df-4a4c16634298",
      "identifier": {
        "value": "1193164"
      },
      "questionnaire": {
        "reference": "urn:uuid:15f1b315-bb01-43c7-a986-b6fb1e695642"
      },
      "status": "completed",
      "subject": {
        "reference": "urn:uuid:002841bb-9abe-446b-b2c6-ab774279ba87"
      },
      "context": {
        "reference": "urn:uuid:f85ff7fc-aec1-4673-afea-0ac31e926dae"
      },
      "authored": "2020-10-30T09:45:23+00:00"
    }
  }, {
    "fullUrl": "urn:uuid:15f1b315-bb01-43c7-a986-b6fb1e695642",
    "resource": {
      "resourceType": "Questionnaire",
      "id": "15f1b315-bb01-43c7-a986-b6fb1e695642",
      "identifier": [ {
        "value": "1193164"
      } ],
      "version": "2020-10-30T09:45:23.026Z",
      "status": "active",
      "experimental": false,
      "date": "2020-10-30T09:45:23+00:00",
      "publisher": "User ID: 'HOLDENR' User name: 'Rachael Holden' User skill set: 'T3'",
      "lastReviewDate": "2020-10-30",
      "subjectType": [ "Patient" ]
    }
  }, {
    "fullUrl": "urn:uuid:107d44c8-2d23-4a06-bbb7-7e7fdb101133",
    "resource": {
      "resourceType": "QuestionnaireResponse",
      "id": "107d44c8-2d23-4a06-bbb7-7e7fdb101133",
      "identifier": {
        "value": "1193164"
      },
      "questionnaire": {
        "reference": "urn:uuid:f4da7314-106f-4da8-91dd-2e03ad4a95e8"
      },
      "status": "completed",
      "subject": {
        "reference": "urn:uuid:002841bb-9abe-446b-b2c6-ab774279ba87"
      },
      "context": {
        "reference": "urn:uuid:f85ff7fc-aec1-4673-afea-0ac31e926dae"
      },
      "authored": "2020-10-30T09:45:23+00:00"
    }
  }, {
    "fullUrl": "urn:uuid:f4da7314-106f-4da8-91dd-2e03ad4a95e8",
    "resource": {
      "resourceType": "Questionnaire",
      "id": "f4da7314-106f-4da8-91dd-2e03ad4a95e8",
      "identifier": [ {
        "value": "1193164"
      } ],
      "version": "2020-10-30T09:45:23.026Z",
      "status": "active",
      "experimental": false,
      "date": "2020-10-30T09:45:23+00:00",
      "publisher": "User ID: 'HOLDENR' User name: 'Rachael Holden' User skill set: 'T3'",
      "lastReviewDate": "2020-10-30",
      "subjectType": [ "Patient" ]
    }
  }, {
    "fullUrl": "urn:uuid:869c238b-11eb-4401-8b1e-96babf36c3c2",
    "resource": {
      "resourceType": "Observation",
      "id": "869c238b-11eb-4401-8b1e-96babf36c3c2",
      "status": "final",
      "code": {
        "coding": [ {
          "system": "http://snomed.info/sct",
          "code": "33962009",
          "display": "Presenting complaint"
        } ]
      },
      "subject": {
        "reference": "urn:uuid:002841bb-9abe-446b-b2c6-ab774279ba87"
      },
      "context": {
        "reference": "urn:uuid:f85ff7fc-aec1-4673-afea-0ac31e926dae"
      }
    }
  }, {
    "fullUrl": "urn:uuid:eb99aa96-9c68-45a5-bedc-6bf66280a345",
    "resource": {
      "resourceType": "PractitionerRole",
      "id": "eb99aa96-9c68-45a5-bedc-6bf66280a345",
      "practitioner": {
        "reference": "urn:uuid:8e788ff5-08b1-40a2-a112-bdd623739d5d"
      },
      "organization": {
        "reference": "urn:uuid:35d0918a-be76-44bc-9a75-c4384742fb2d"
      },
      "code": [ {
        "coding": [ {
          "system": "2.16.840.1.113883.2.1.3.2.4.17.339",
          "code": "DOCTOR",
          "display": "Doctor"
        } ]
      } ]
    }
  }, {
    "fullUrl": "urn:uuid:35d0918a-be76-44bc-9a75-c4384742fb2d",
    "resource": {
      "resourceType": "Organization",
      "id": "35d0918a-be76-44bc-9a75-c4384742fb2d",
      "identifier": [ {
        "value": "RYA06"
      } ],
      "name": "WMAS - Navigation Point Call Centre (West Midlands Single Instance)"
    }
  }, {
    "fullUrl": "urn:uuid:3b6a8374-7f9c-4157-951e-1d0bdd7ff8aa",
    "resource": {
      "resourceType": "PractitionerRole",
      "id": "3b6a8374-7f9c-4157-951e-1d0bdd7ff8aa",
      "practitioner": {
        "reference": "urn:uuid:920babc1-df36-4fa1-9cb3-955a307ca238"
      },
      "organization": {
        "reference": "urn:uuid:48ba7b18-7a36-4431-b5c6-8c087bdb5d9c"
      },
      "code": [ {
        "coding": [ {
          "system": "2.16.840.1.113883.2.1.3.2.4.17.196",
          "code": "R0010",
          "display": "Medical Director"
        } ]
      } ]
    }
  }, {
    "fullUrl": "urn:uuid:48ba7b18-7a36-4431-b5c6-8c087bdb5d9c",
    "resource": {
      "resourceType": "Organization",
      "id": "48ba7b18-7a36-4431-b5c6-8c087bdb5d9c",
      "identifier": [ {
        "value": "RYA06"
      } ],
      "name": "West Midlands Single Instance"
    }
  }, {
    "fullUrl": "urn:uuid:e7e8c1a7-60a5-4cdd-90b4-6e84567d2413",
    "resource": {
      "resourceType": "RelatedPerson",
      "id": "e7e8c1a7-60a5-4cdd-90b4-6e84567d2413",
      "patient": {
        "reference": "urn:uuid:002841bb-9abe-446b-b2c6-ab774279ba87"
      },
      "relationship": {
        "coding": [ {
          "system": "http://hl7.org/fhir/v2/0131",
          "code": "C",
          "display": "Emergency Contact"
        } ]
      },
      "telecom": [ {
        "system": "phone",
        "value": "tel:01204428013"
      } ]
    }
  }, {
    "fullUrl": "urn:uuid:69374d50-9f08-433b-9d3b-0090045f7118",
    "resource": {
      "resourceType": "Device",
      "id": "69374d50-9f08-433b-9d3b-0090045f7118",
      "model": "111 Adaptor",
      "version": "1.0.1"
    }
  }, {
    "fullUrl": "urn:uuid:0c0793a6-a919-4d6a-8bce-633778896237",
    "resource": {
      "resourceType": "List",
      "id": "0c0793a6-a919-4d6a-8bce-633778896237",
      "status": "current",
      "mode": "working",
      "title": "111 Report List",
      "code": {
        "coding": [ {
          "system": "http://snomed.info/sct",
          "code": "225390008",
          "display": "Triage"
        } ]
      },
      "subject": {
        "reference": "urn:uuid:002841bb-9abe-446b-b2c6-ab774279ba87"
      },
      "encounter": {
        "reference": "urn:uuid:f85ff7fc-aec1-4673-afea-0ac31e926dae"
      },
      "date": "2022-04-07T07:52:13+00:00",
      "source": {
        "reference": "urn:uuid:69374d50-9f08-433b-9d3b-0090045f7118"
      },
      "orderedBy": {
        "coding": [ {
          "system": "http://hl7.org/fhir/list-order",
          "code": "event-date",
          "display": "Sorted by Event Date"
        } ]
      },
      "entry": [ {
        "item": {
          "reference": "urn:uuid:23fa7197-3dfa-4abf-a454-bd282ef7edaa"
        }
      }, {
        "item": {
          "reference": "urn:uuid:8e788ff5-08b1-40a2-a112-bdd623739d5d"
        }
      }, {
        "item": {
          "reference": "urn:uuid:35d0918a-be76-44bc-9a75-c4384742fb2d"
        }
      }, {
        "item": {
          "reference": "urn:uuid:920babc1-df36-4fa1-9cb3-955a307ca238"
        }
      }, {
        "item": {
          "reference": "urn:uuid:869c238b-11eb-4401-8b1e-96babf36c3c2"
        }
      }, {
        "item": {
          "reference": "urn:uuid:48ba7b18-7a36-4431-b5c6-8c087bdb5d9c"
        }
      }, {
        "item": {
          "reference": "urn:uuid:fb035fe5-3bc5-4f4a-881b-f8364704ba1d"
        }
      }, {
        "item": {
          "reference": "urn:uuid:ed398082-09de-48dd-a447-cb3e2f2ca303"
        }
      }, {
        "item": {
          "reference": "urn:uuid:e7e8c1a7-60a5-4cdd-90b4-6e84567d2413"
        }
      }, {
        "item": {
          "reference": "urn:uuid:d0764c66-83c7-4d4b-89df-30d3da667afe"
        }
      }, {
        "item": {
          "reference": "urn:uuid:b7b18948-0cab-4ca9-b32f-762fbed4215d"
        }
      }, {
        "item": {
          "reference": "urn:uuid:c32053cd-ccd8-40de-b2c7-c06386022cd6"
        }
      }, {
        "item": {
          "reference": "urn:uuid:206936d4-6979-441b-9fa7-151dc0be51ef"
        }
      }, {
        "item": {
          "reference": "urn:uuid:314eb03a-d5fc-450c-bf17-5cb5e65a4be3"
        }
      }, {
        "item": {
          "reference": "urn:uuid:e2df1a58-63f8-4c58-8c07-00ae03736554"
        }
      }, {
        "item": {
          "reference": "urn:uuid:394b3951-0305-4974-a49c-32ec0f476855"
        }
      }, {
        "item": {
          "reference": "urn:uuid:a20a0ec6-7d54-409f-bb56-45eebdccd525"
        }
      }, {
        "item": {
          "reference": "urn:uuid:a219230e-dd15-4fbd-a2b5-260ddb678a05"
        }
      }, {
        "item": {
          "reference": "urn:uuid:588ada46-af34-4beb-8f0c-ac7a848c3b7b"
        }
      }, {
        "item": {
          "reference": "urn:uuid:8f94c3f8-150b-4837-9908-039dd1cc54e2"
        }
      }, {
        "item": {
          "reference": "urn:uuid:0de3585d-b754-41ba-81dd-3a2a6630804f"
        }
      }, {
        "item": {
          "reference": "urn:uuid:70cf931c-1d34-4f3a-96bf-c47e10375da7"
        }
      }, {
        "item": {
          "reference": "urn:uuid:d1a5aa0e-7df2-4446-a9b0-2012fcdcf233"
        }
      }, {
        "item": {
          "reference": "urn:uuid:c7bef616-3913-4f19-a127-09ba42a521ba"
        }
      }, {
        "item": {
          "reference": "urn:uuid:f4da7314-106f-4da8-91dd-2e03ad4a95e8"
        }
      }, {
        "item": {
          "reference": "urn:uuid:b745915c-98f9-425d-aeb3-ce785583496d"
        }
      }, {
        "item": {
          "reference": "urn:uuid:e3d6afcd-1b7b-4ec3-b0bf-e9adcbe3f3b3"
        }
      }, {
        "item": {
          "reference": "urn:uuid:0dd4fec0-459d-4d67-82e1-ba4790de6bf4"
        }
      }, {
        "item": {
          "reference": "urn:uuid:107d44c8-2d23-4a06-bbb7-7e7fdb101133"
        }
      }, {
        "item": {
          "reference": "urn:uuid:c2cdedb7-afa0-442e-8ee6-8767d2bcd5c9"
        }
      }, {
        "item": {
          "reference": "urn:uuid:28a90c6f-a4ef-40b6-b538-5d673baf4fee"
        }
      }, {
        "item": {
          "reference": "urn:uuid:44501564-1b71-4f65-8c64-dcdd814c3283"
        }
      }, {
        "item": {
          "reference": "urn:uuid:3dcf0d27-0033-4b14-9a23-f456eab31769"
        }
      }, {
        "item": {
          "reference": "urn:uuid:df6ab080-2d5b-41c4-8a29-29d394ebf55d"
        }
      }, {
        "item": {
          "reference": "urn:uuid:914c9fb6-4859-470d-bf65-e2ccb5a8a0c8"
        }
      }, {
        "item": {
          "reference": "urn:uuid:a5403d22-3ee7-42eb-b36d-17b8d0e8d3b1"
        }
      }, {
        "item": {
          "reference": "urn:uuid:65b1b966-5cf3-485e-898e-7ab5596a54d5"
        }
      }, {
        "item": {
          "reference": "urn:uuid:e50c54ad-effd-44dc-ad63-3cac6cd992b7"
        }
      }, {
        "item": {
          "reference": "urn:uuid:f577527a-b2ef-452d-83fb-dfa684495f09"
        }
      }, {
        "item": {
          "reference": "urn:uuid:3bab73d6-84d3-4624-8c34-1e6df5af2897"
        }
      }, {
        "item": {
          "reference": "urn:uuid:08bd6d12-bb39-4206-a0cd-7c09ca9ac164"
        }
      }, {
        "item": {
          "reference": "urn:uuid:028701b7-0b6a-4c3f-bc57-1067d6a31424"
        }
      }, {
        "item": {
          "reference": "urn:uuid:c3698303-96be-490f-ab55-ecc36c9e8ed3"
        }
      }, {
        "item": {
          "reference": "urn:uuid:85b7869f-5b79-4ccf-80c0-823b1e472a8d"
        }
      }, {
        "item": {
          "reference": "urn:uuid:0ac246ce-fc9c-4309-89e0-6cb0a9a38268"
        }
      }, {
        "item": {
          "reference": "urn:uuid:34f9716c-5ab8-48c8-82df-4a4c16634298"
        }
      }, {
        "item": {
          "reference": "urn:uuid:15f1b315-bb01-43c7-a986-b6fb1e695642"
        }
      }, {
        "item": {
          "reference": "urn:uuid:96b55c75-e9c3-456a-b517-bc538c8a04c3"
        }
      }, {
        "item": {
          "reference": "urn:uuid:540df56c-7988-42f5-bd9d-38ef382e704c"
        }
      }, {
        "item": {
          "reference": "urn:uuid:9049c95f-b4a2-4ae7-a1ad-ac74054b2a30"
        }
      }, {
        "item": {
          "reference": "urn:uuid:85cd0f5a-26d2-4ce2-8697-755ae139535d"
        }
      }, {
        "item": {
          "reference": "urn:uuid:0357c0ce-9bfa-41f1-845e-b5ac7ce609b9"
        }
      }, {
        "item": {
          "reference": "urn:uuid:e469df7c-2d7a-435b-aa38-7191cdde55e4"
        }
      }, {
        "item": {
          "reference": "urn:uuid:74740054-8050-4ee4-8805-aada5b892a51"
        }
      }, {
        "item": {
          "reference": "urn:uuid:c5f4f191-513c-4f54-a518-cbc46ea8cb9c"
        }
      }, {
        "item": {
          "reference": "urn:uuid:e27daf63-abda-40a8-9569-9a86548b7a6f"
        }
      } ]
    }
  } ]
}