{
    "resourceType": "Bundle",
    "identifier": {
        "type": {
            "text": "ClinicalDocument VersionNumber"
        },
        "value": "1"
    },
    "type": "message",
    "entry": [
        {
            "fullUrl": "urn:uuid:A12F527F-3808-44BC-9272-8C8A92884A37",
            "resource": {
                "resourceType": "MessageHeader",
                "id": "A12F527F-3808-44BC-9272-8C8A92884A37",
                "event": {
                    "system": "https://fhir.nhs.uk/STU3/CodeSystem/EventType-1",
                    "code": "referral-1",
                    "display": "Referral"
                },
                "destination": [
                    {
                        "endpoint": "urn:nhs-uk:addressing:ods:20000729:DOSServiceID:2000072936"
                    }
                ],
                "timestamp": "2020-10-30T18:29:05.000+00:00",
                "source": {
                    "name": "NHS 111 Adaptor",
                    "endpoint": "http://localhost:8080/report"
                },
                "reason": {
                    "coding": [
                        {
                            "system": "urn:nhs-itk:ns:201005:interaction",
                            "code": "urn:nhs-itk:interaction:primaryNHS111RepeatCallerDocumentSet-v1-0"
                        }
                    ]
                }
            }
        },
        {
            "fullUrl": "urn:uuid:da0dc95b-d1f2-4fb6-9011-b8117738920a",
            "resource": {
                "resourceType": "Encounter",
                "id": "da0dc95b-d1f2-4fb6-9011-b8117738920a",
                "identifier": [
                    {
                        "system": "2.16.840.1.113883.2.1.3.2.4.18.34",
                        "value": "CF1F65AB-2392-4582-9E14-F0384358CB6A"
                    },
                    {
                        "system": "2.16.840.1.113883.2.1.3.2.4.18.35",
                        "value": "7434927"
                    }
                ],
                "status": "finished",
                "type": [
                    {
                        "text": "111 Encounter Referral"
                    }
                ],
                "subject": {
                    "reference": "urn:uuid:77e2a93e-ccfa-4603-a5dc-e8ea04b77fb2"
                },
                "participant": [
                    {
                        "type": [
                            {
                                "coding": [
                                    {
                                        "system": "http://hl7.org/fhir/ValueSet/encounter-participant-type",
                                        "code": "PPRF",
                                        "display": "Author"
                                    }
                                ]
                            }
                        ],
                        "individual": {
                            "reference": "urn:uuid:2aada7cc-34a5-46f4-9ec4-3d624b6823d3"
                        }
                    },
                    {
                        "type": [
                            {
                                "coding": [
                                    {
                                        "system": "http://hl7.org/fhir/ValueSet/encounter-participant-type",
                                        "code": "ATND",
                                        "display": "Responsible Party"
                                    }
                                ]
                            }
                        ],
                        "individual": {
                            "reference": "urn:uuid:a8dbe77e-4624-43b0-9304-19bd4259c720"
                        }
                    }
                ],
                "period": {
                    "start": "2020-10-30T18:29:05+00:00"
                },
                "location": [
                    {
                        "location": {
                            "reference": "urn:uuid:f6965136-72f0-4499-8541-14a41e1d4e8a"
                        },
                        "status": "active"
                    },
                    {
                        "location": {
                            "reference": "urn:uuid:55e0a00c-ac78-4ac3-84c2-cbe3e0d51b27"
                        },
                        "status": "completed"
                    }
                ],
                "serviceProvider": {
                    "reference": "urn:uuid:3439c3e3-0d11-4657-a305-248b1b8a9215"
                }
            }
        },
        {
            "fullUrl": "urn:uuid:3439c3e3-0d11-4657-a305-248b1b8a9215",
            "resource": {
                "resourceType": "Organization",
                "id": "3439c3e3-0d11-4657-a305-248b1b8a9215",
                "active": true,
                "type": [
                    {
                        "text": "CST"
                    }
                ],
                "name": "Devon Doctors Group"
            }
        },
        {
            "fullUrl": "urn:uuid:2aada7cc-34a5-46f4-9ec4-3d624b6823d3",
            "resource": {
                "resourceType": "Practitioner",
                "id": "2aada7cc-34a5-46f4-9ec4-3d624b6823d3",
                "active": true,
                "name": [
                    {
                        "use": "official",
                        "family": "Service Advisor",
                        "given": [
                            "Dental"
                        ]
                    }
                ]
            }
        },
        {
            "fullUrl": "urn:uuid:a8dbe77e-4624-43b0-9304-19bd4259c720",
            "resource": {
                "resourceType": "Practitioner",
                "id": "a8dbe77e-4624-43b0-9304-19bd4259c720",
                "active": true,
                "name": [
                    {
                        "use": "official",
                        "family": "Eggleton",
                        "given": [
                            "Dr. Mark"
                        ]
                    }
                ]
            }
        },
        {
            "fullUrl": "urn:uuid:f6965136-72f0-4499-8541-14a41e1d4e8a",
            "resource": {
                "resourceType": "Location",
                "id": "f6965136-72f0-4499-8541-14a41e1d4e8a",
                "managingOrganization": {
                    "reference": "urn:uuid:cadcd5c0-e6c7-4a61-95bb-21589adc1794"
                }
            }
        },
        {
            "fullUrl": "urn:uuid:cadcd5c0-e6c7-4a61-95bb-21589adc1794",
            "resource": {
                "resourceType": "Organization",
                "id": "cadcd5c0-e6c7-4a61-95bb-21589adc1794",
                "identifier": [
                    {
                        "value": "J85990"
                    }
                ],
                "type": [
                    {
                        "text": "GP Practice"
                    }
                ],
                "name": "Test Somerset"
            }
        },
        {
            "fullUrl": "urn:uuid:55e0a00c-ac78-4ac3-84c2-cbe3e0d51b27",
            "resource": {
                "resourceType": "Location",
                "id": "55e0a00c-ac78-4ac3-84c2-cbe3e0d51b27",
                "name": "Incident Location",
                "address": {
                    "type": "physical",
                    "line": [
                        "NHS England",
                        "Quarry House Quarry Hill",
                        "Leeds",
                        "West Yorkshire"
                    ],
                    "postalCode": "LS2 7UE"
                }
            }
        },
        {
            "fullUrl": "urn:uuid:77e2a93e-ccfa-4603-a5dc-e8ea04b77fb2",
            "resource": {
                "resourceType": "Patient",
                "id": "77e2a93e-ccfa-4603-a5dc-e8ea04b77fb2",
                "identifier": [
                    {
                        "extension": [
                            {
                                "url": "https://fhir.hl7.org.uk/STU3/StructureDefinition/Extension-CareConnect-NHSNumberVerificationStatus-1",
                                "valueCodeableConcept": {
                                    "coding": [
                                        {
                                            "system": "https://fhir.hl7.org.uk/STU3/StructureDefinition/Extension-CareConnect-NHSNumberVerificationStatus-1",
                                            "code": "02"
                                        }
                                    ]
                                }
                            }
                        ],
                        "system": "https://fhir.nhs.uk/Id/nhs-number",
                        "value": "9990238359"
                    }
                ],
                "active": true,
                "name": [
                    {
                        "use": "official",
                        "family": "Xxtestpatientdzadn",
                        "given": [
                            "Scrdonotuse"
                        ]
                    }
                ],
                "telecom": [
                    {
                        "system": "phone",
                        "value": "tel:01702123456",
                        "use": "home"
                    },
                    {
                        "system": "phone",
                        "value": "tel:01702123456"
                    }
                ],
                "gender": "female",
                "birthDate": "1965-02-17",
                "address": [
                    {
                        "use": "home",
                        "line": [
                            "NHS England",
                            "Quarry House Quarry Hill",
                            "Leeds",
                            "West Yorkshire"
                        ],
                        "postalCode": "LS2 7UE"
                    }
                ],
                "generalPractitioner": [
                    {
                        "reference": "urn:uuid:5f551f70-d639-4865-b55b-75c8c767ddd5"
                    }
                ]
            }
        },
        {
            "fullUrl": "urn:uuid:5f551f70-d639-4865-b55b-75c8c767ddd5",
            "resource": {
                "resourceType": "Organization",
                "id": "5f551f70-d639-4865-b55b-75c8c767ddd5",
                "identifier": [
                    {
                        "value": "J85990"
                    }
                ],
                "type": [
                    {
                        "text": "GP Practice"
                    }
                ],
                "name": "Test Somerset"
            }
        },
        {
            "fullUrl": "urn:uuid:e422771c-79bb-4f0c-a52f-6335aeee55db",
            "resource": {
                "resourceType": "HealthcareService",
                "id": "e422771c-79bb-4f0c-a52f-6335aeee55db",
                "active": true,
                "providedBy": {
                    "reference": "urn:uuid:21a7f821-e20d-4d8b-96b2-7a799cc289a1"
                },
                "location": [
                    {
                        "reference": "urn:uuid:befecbc7-a849-47ba-8821-cd0947f83bb7"
                    }
                ],
                "name": "**TESTING ONLY** DO NOT SEND PATIENTS - ED Test Service for EDDI"
            }
        },
        {
            "fullUrl": "urn:uuid:befecbc7-a849-47ba-8821-cd0947f83bb7",
            "resource": {
                "resourceType": "Location",
                "id": "befecbc7-a849-47ba-8821-cd0947f83bb7",
                "managingOrganization": {
                    "reference": "urn:uuid:21a7f821-e20d-4d8b-96b2-7a799cc289a1"
                }
            }
        },
        {
            "fullUrl": "urn:uuid:21a7f821-e20d-4d8b-96b2-7a799cc289a1",
            "resource": {
                "resourceType": "Organization",
                "id": "21a7f821-e20d-4d8b-96b2-7a799cc289a1",
                "identifier": [
                    {
                        "value": "20000729"
                    }
                ],
                "type": [
                    {
                        "coding": [
                            {
                                "code": "PRCP",
                                "display": "**TESTING ONLY** DO NOT SEND PATIENTS - ED Test Service for EDDI"
                            }
                        ]
                    }
                ],
                "name": "**TESTING ONLY** DO NOT SEND PATIENTS - ED Test Service for EDDI"
            }
        },
        {
            "fullUrl": "urn:uuid:54dd13f8-de92-4ee1-85dc-46b36715c451",
            "resource": {
                "resourceType": "ReferralRequest",
                "id": "54dd13f8-de92-4ee1-85dc-46b36715c451",
                "status": "active",
                "intent": "plan",
                "priority": "routine",
                "subject": {
                    "reference": "urn:uuid:77e2a93e-ccfa-4603-a5dc-e8ea04b77fb2"
                },
                "context": {
                    "reference": "urn:uuid:da0dc95b-d1f2-4fb6-9011-b8117738920a"
                },
                "occurrencePeriod": {
                    "start": "2021-09-12T20:49:03+00:00",
                    "end": "2021-09-12T21:49:03+00:00"
                },
                "authoredOn": "2020-10-30T18:28:58+00:00",
                "requester": {
                    "agent": {
                        "reference": "urn:uuid:eaad6504-18a5-456b-b1cb-c4ae88b9ada5"
                    },
                    "onBehalfOf": {
                        "reference": "urn:uuid:3439c3e3-0d11-4657-a305-248b1b8a9215"
                    }
                },
                "recipient": [
                    {
                        "reference": "urn:uuid:e422771c-79bb-4f0c-a52f-6335aeee55db"
                    }
                ],
                "reasonReference": [
                    {
                        "reference": "urn:uuid:f1d37234-18ea-4e88-b315-78eced5bb955"
                    }
                ],
                "supportingInfo": [
                    {
                        "reference": "urn:uuid:02d4afd0-7483-44e5-8b0b-f91521cb53e1"
                    }
                ]
            }
        },
        {
            "fullUrl": "urn:uuid:02d4afd0-7483-44e5-8b0b-f91521cb53e1",
            "resource": {
                "resourceType": "ProcedureRequest",
                "id": "02d4afd0-7483-44e5-8b0b-f91521cb53e1",
                "status": "active",
                "intent": "plan",
                "priority": "routine",
                "doNotPerform": false,
                "code": {
                    "coding": [
                        {
                            "system": "2.16.840.1.113883.2.1.3.2.4.17.325",
                            "code": "Dx02",
                            "display": "Attend a Treatment Centre within 1 hour"
                        }
                    ]
                },
                "subject": {
                    "reference": "urn:uuid:77e2a93e-ccfa-4603-a5dc-e8ea04b77fb2"
                },
                "occurrencePeriod": {
                    "start": "2021-09-12T20:49:03+00:00",
                    "end": "2021-09-12T21:49:03+00:00"
                },
                "reasonReference": [
                    {
                        "reference": "urn:uuid:f1d37234-18ea-4e88-b315-78eced5bb955"
                    }
                ]
            }
        },
        {
            "fullUrl": "urn:uuid:a902f2c2-b003-46b6-8151-0b328a33a065",
            "resource": {
                "resourceType": "Composition",
                "id": "a902f2c2-b003-46b6-8151-0b328a33a065",
                "identifier": {
                    "use": "usual",
                    "value": "B53175B4-0A4A-4503-A6CD-94333AA01645"
                },
                "status": "final",
                "type": {
                    "coding": [
                        {
                            "system": "http://snomed.info/sct",
                            "code": "371531000",
                            "display": "Report of clinical encounter (record artifact)"
                        }
                    ]
                },
                "subject": {
                    "reference": "urn:uuid:77e2a93e-ccfa-4603-a5dc-e8ea04b77fb2"
                },
                "encounter": {
                    "reference": "urn:uuid:da0dc95b-d1f2-4fb6-9011-b8117738920a"
                },
                "date": "2021-09-12T20:49:03+00:00",
                "author": [
                    {
                        "reference": "urn:uuid:2aada7cc-34a5-46f4-9ec4-3d624b6823d3"
                    }
                ],
                "title": "111 Report",
                "confidentiality": "N",
                "section": [
                    {
                        "section": [
                            {
                                "title": "Patient's Reported Condition",
                                "text": {
                                    "status": "generated",
                                    "div": "<div xmlns=\"http://www.w3.org/1999/xhtml\">&lt;xml-fragment xmlns:npfitlc=&quot;NPFIT:HL7:Localisation&quot; xmlns:xsi=&quot;http://www.w3.org/2001/XMLSchema-instance&quot;&gt;TEST&lt;urn:br xmlns:urn=&quot;urn:hl7-org:v3&quot;/&gt;&lt;/xml-fragment&gt;</div>"
                                }
                            },
                            {
                                "title": "Pathways Disposition",
                                "text": {
                                    "status": "generated",
                                    "div": "<div xmlns=\"http://www.w3.org/1999/xhtml\">&lt;xml-fragment xmlns:npfitlc=&quot;NPFIT:HL7:Localisation&quot; xmlns:xsi=&quot;http://www.w3.org/2001/XMLSchema-instance&quot;&gt;Attend a Treatment Centre within 1 hour (Dx02)\n                                                    &lt;urn:br xmlns:urn=&quot;urn:hl7-org:v3&quot;/&gt;&lt;urn:br xmlns:urn=&quot;urn:hl7-org:v3&quot;/&gt;\n                                                    Selected service: **TESTING ONLY** DO NOT SEND PATIENTS - ED Test Se&lt;urn:br xmlns:urn=&quot;urn:hl7-org:v3&quot;/&gt;&lt;/xml-fragment&gt;</div>"
                                }
                            },
                            {
                                "title": "Consultation Summary",
                                "text": {
                                    "status": "generated",
                                    "div": "<div xmlns=\"http://www.w3.org/1999/xhtml\">&lt;xml-fragment xmlns:npfitlc=&quot;NPFIT:HL7:Localisation&quot; xmlns:xsi=&quot;http://www.w3.org/2001/XMLSchema-instance&quot;&gt;Illness&lt;urn:br xmlns:urn=&quot;urn:hl7-org:v3&quot;/&gt;Warm to touch&lt;urn:br xmlns:urn=&quot;urn:hl7-org:v3&quot;/&gt;Nose bleeding freely&lt;urn:br xmlns:urn=&quot;urn:hl7-org:v3&quot;/&gt;Nose bleeding despite first aid measures&lt;urn:br xmlns:urn=&quot;urn:hl7-org:v3&quot;/&gt;&lt;/xml-fragment&gt;</div>"
                                }
                            },
                            {
                                "title": "Pathways Assessment",
                                "text": {
                                    "status": "generated",
                                    "div": "<div xmlns=\"http://www.w3.org/1999/xhtml\">&lt;xml-fragment xmlns:npfitlc=&quot;NPFIT:HL7:Localisation&quot; xmlns:xsi=&quot;http://www.w3.org/2001/XMLSchema-instance&quot;&gt;An injury or health problem was the reason for the contact.&lt;urn:br xmlns:urn=&quot;urn:hl7-org:v3&quot;/&gt;Heavy bleeding had not occurred in the previous 2 hours.&lt;urn:br xmlns:urn=&quot;urn:hl7-org:v3&quot;/&gt;An illness or health problem was the main problem.&lt;urn:br xmlns:urn=&quot;urn:hl7-org:v3&quot;/&gt;User Comments: TEST&lt;urn:br xmlns:urn=&quot;urn:hl7-org:v3&quot;/&gt;The individual was not fighting for breath.&lt;urn:br xmlns:urn=&quot;urn:hl7-org:v3&quot;/&gt;The main reason for the assessment was not an allergic reaction, heart attack, chest/upper back pain, probable stroke, recent fit/seizure or suicide attempt.&lt;urn:br xmlns:urn=&quot;urn:hl7-org:v3&quot;/&gt;The main reason for contact was not new confusion, declared diabetic hypo/hyperglycaemia, or ICD shock.&lt;urn:br xmlns:urn=&quot;urn:hl7-org:v3&quot;/&gt;The skin on the torso felt normal, warm or hot.&lt;urn:br xmlns:urn=&quot;urn:hl7-org:v3&quot;/&gt;Pathway selected - Nosebleeds without Injury&lt;urn:br xmlns:urn=&quot;urn:hl7-org:v3&quot;/&gt;The individual was not feeling faint or dizzy.&lt;urn:br xmlns:urn=&quot;urn:hl7-org:v3&quot;/&gt;The nose was continuing to bleed.&lt;urn:br xmlns:urn=&quot;urn:hl7-org:v3&quot;/&gt;There was no nasal foreign body.&lt;urn:br xmlns:urn=&quot;urn:hl7-org:v3&quot;/&gt;Constant pressure had been applied to the soft part of the nose for at least 10 minutes.&lt;urn:br xmlns:urn=&quot;urn:hl7-org:v3&quot;/&gt;Instructions given were: The individual needs to attend a treatment centre within 1 hour.&lt;urn:br xmlns:urn=&quot;urn:hl7-org:v3&quot;/&gt;Directory of Services referral: **TESTING ONLY** DO NOT SEND PATIENTS - ED Test Service for EDDI&lt;urn:br xmlns:urn=&quot;urn:hl7-org:v3&quot;/&gt;Advice given:\n                                                    Worsening\n                                                    &lt;urn:br xmlns:urn=&quot;urn:hl7-org:v3&quot;/&gt;&lt;/xml-fragment&gt;</div>"
                                }
                            },
                            {
                                "title": "Advice Given",
                                "text": {
                                    "status": "generated",
                                    "div": "<div xmlns=\"http://www.w3.org/1999/xhtml\">&lt;xml-fragment xmlns:npfitlc=&quot;NPFIT:HL7:Localisation&quot; xmlns:xsi=&quot;http://www.w3.org/2001/XMLSchema-instance&quot;&gt;If there are any new symptoms, or if the condition gets worse, changes or you have any other concerns, call us back.&lt;urn:br xmlns:urn=&quot;urn:hl7-org:v3&quot;/&gt;&lt;urn:br xmlns:urn=&quot;urn:hl7-org:v3&quot;/&gt;&lt;/xml-fragment&gt;</div>"
                                }
                            },
                            {
                                "title": "Special Patient Notes",
                                "text": {
                                    "status": "generated",
                                    "div": "<div xmlns=\"http://www.w3.org/1999/xhtml\">&lt;xml-fragment xmlns:npfitlc=&quot;NPFIT:HL7:Localisation&quot; xmlns:xsi=&quot;http://www.w3.org/2001/XMLSchema-instance&quot;&gt;Special Notes from an external system were flagged as being present for this patient.&lt;/xml-fragment&gt;</div>"
                                }
                            }
                        ]
                    },
                    {
                        "title": "ReferralRequest",
                        "entry": [
                            {
                                "reference": "urn:uuid:54dd13f8-de92-4ee1-85dc-46b36715c451"
                            }
                        ]
                    },
                    {
                        "title": "QuestionnaireResponse",
                        "entry": [
                            {
                                "reference": "urn:uuid:73124c30-e45c-4269-9411-7e2e8e7b1e72"
                            }
                        ]
                    },
                    {
                        "title": "QuestionnaireResponse",
                        "entry": [
                            {
                                "reference": "urn:uuid:727b1a43-f7d4-424b-843a-a95ee3cf3dad"
                            }
                        ]
                    },
                    {
                        "title": "QuestionnaireResponse",
                        "entry": [
                            {
                                "reference": "urn:uuid:9e2831bc-27c3-413f-9453-844a91a58432"
                            }
                        ]
                    },
                    {
                        "title": "QuestionnaireResponse",
                        "entry": [
                            {
                                "reference": "urn:uuid:9bb80cc2-fd2a-4d2e-bb08-ab7e531055ad"
                            }
                        ]
                    },
                    {
                        "title": "QuestionnaireResponse",
                        "entry": [
                            {
                                "reference": "urn:uuid:ed227b0d-33d1-43a1-8bf0-301f0fa6cbce"
                            }
                        ]
                    },
                    {
                        "title": "QuestionnaireResponse",
                        "entry": [
                            {
                                "reference": "urn:uuid:2830b755-88a1-4d49-83e5-64b58803c997"
                            }
                        ]
                    },
                    {
                        "title": "QuestionnaireResponse",
                        "entry": [
                            {
                                "reference": "urn:uuid:67838707-fb7b-47b9-9966-8bd92e2a9351"
                            }
                        ]
                    },
                    {
                        "title": "QuestionnaireResponse",
                        "entry": [
                            {
                                "reference": "urn:uuid:f6a1c486-3fde-4ef3-b0ca-20c5257bd3f5"
                            }
                        ]
                    },
                    {
                        "title": "QuestionnaireResponse",
                        "entry": [
                            {
                                "reference": "urn:uuid:8c5c4fb7-1908-4bbf-9ec9-e233864967ca"
                            }
                        ]
                    },
                    {
                        "title": "QuestionnaireResponse",
                        "entry": [
                            {
                                "reference": "urn:uuid:cd6e2714-f1f6-402e-ac03-437422b3e179"
                            }
                        ]
                    },
                    {
                        "title": "QuestionnaireResponse",
                        "entry": [
                            {
                                "reference": "urn:uuid:1263f8d2-f1e1-4dc6-ad14-378bc460985e"
                            }
                        ]
                    },
                    {
                        "title": "QuestionnaireResponse",
                        "entry": [
                            {
                                "reference": "urn:uuid:e734c38b-c6b3-4913-9797-e48e2cd2684a"
                            }
                        ]
                    },
                    {
                        "title": "QuestionnaireResponse",
                        "entry": [
                            {
                                "reference": "urn:uuid:59ac4c36-f08c-4332-8b0c-a085a08fbd1c"
                            }
                        ]
                    },
                    {
                        "title": "QuestionnaireResponse",
                        "entry": [
                            {
                                "reference": "urn:uuid:3a338593-968f-4a21-a3b4-d25a8d92fcaf"
                            }
                        ]
                    },
                    {
                        "title": "QuestionnaireResponse",
                        "entry": [
                            {
                                "reference": "urn:uuid:c5d0e7f9-a592-446c-bbe4-bb070ec69cb0"
                            }
                        ]
                    },
                    {
                        "title": "QuestionnaireResponse",
                        "entry": [
                            {
                                "reference": "urn:uuid:3e6a8b27-fd2d-4972-9fbd-ccadbdc6bc33"
                            }
                        ]
                    },
                    {
                        "title": "QuestionnaireResponse",
                        "entry": [
                            {
                                "reference": "urn:uuid:11769992-1137-413a-8822-f8b6b52f90cd"
                            }
                        ]
                    },
                    {
                        "title": "QuestionnaireResponse",
                        "entry": [
                            {
                                "reference": "urn:uuid:0b237952-7671-46f5-a15b-ac3fbfc4e938"
                            }
                        ]
                    },
                    {
                        "title": "QuestionnaireResponse",
                        "entry": [
                            {
                                "reference": "urn:uuid:504c2a86-0c4c-4814-8899-ab8795b04bb0"
                            }
                        ]
                    },
                    {
                        "title": "QuestionnaireResponse",
                        "entry": [
                            {
                                "reference": "urn:uuid:555b93c5-3702-4149-9905-77e7c19bd481"
                            }
                        ]
                    },
                    {
                        "title": "QuestionnaireResponse",
                        "entry": [
                            {
                                "reference": "urn:uuid:acd28d85-edae-485f-a90f-3b91435d5218"
                            }
                        ]
                    },
                    {
                        "title": "QuestionnaireResponse",
                        "entry": [
                            {
                                "reference": "urn:uuid:a814af43-c1e7-4fd4-abe2-8646590c8484"
                            }
                        ]
                    },
                    {
                        "title": "QuestionnaireResponse",
                        "entry": [
                            {
                                "reference": "urn:uuid:2f266888-dabe-4c9b-a036-231a00a13c27"
                            }
                        ]
                    }
                ]
            }
        },
        {
            "fullUrl": "urn:uuid:cbed9a89-1b73-48bb-86da-2561b0434f5b",
            "resource": {
                "resourceType": "Consent",
                "id": "cbed9a89-1b73-48bb-86da-2561b0434f5b",
                "identifier": {
                    "use": "usual",
                    "value": "B53175B4-0A4A-4503-A6CD-94333AA01645"
                },
                "status": "active",
                "patient": {
                    "reference": "urn:uuid:77e2a93e-ccfa-4603-a5dc-e8ea04b77fb2"
                },
                "period": {
                    "start": "2020-10-30T18:29:05+00:00"
                },
                "consentingParty": [
                    {
                        "reference": "urn:uuid:77e2a93e-ccfa-4603-a5dc-e8ea04b77fb2"
                    }
                ],
                "action": [
                    {
                        "coding": [
                            {
                                "system": "http://snomed.info/sct",
                                "code": "425691002",
                                "display": "Consent given for electronic record sharing"
                            }
                        ],
                        "text": "Consent given for electronic record sharing"
                    }
                ],
                "organization": [
                    {
                        "reference": "urn:uuid:3439c3e3-0d11-4657-a305-248b1b8a9215"
                    }
                ],
                "policyRule": "http://hl7.org/fhir/ConsentPolicy/opt-out",
                "data": [
                    {
                        "meaning": "related",
                        "reference": {
                            "reference": "urn:uuid:da0dc95b-d1f2-4fb6-9011-b8117738920a"
                        }
                    }
                ]
            }
        },
        {
            "fullUrl": "urn:uuid:f1d37234-18ea-4e88-b315-78eced5bb955",
            "resource": {
                "resourceType": "Condition",
                "id": "f1d37234-18ea-4e88-b315-78eced5bb955",
                "clinicalStatus": "active",
                "verificationStatus": "unknown",
                "subject": {
                    "reference": "urn:uuid:77e2a93e-ccfa-4603-a5dc-e8ea04b77fb2"
                },
                "context": {
                    "reference": "urn:uuid:da0dc95b-d1f2-4fb6-9011-b8117738920a"
                },
                "evidence": [
                    {
                        "detail": [
                            {
                                "reference": "urn:uuid:73124c30-e45c-4269-9411-7e2e8e7b1e72"
                            }
                        ]
                    },
                    {
                        "detail": [
                            {
                                "reference": "urn:uuid:727b1a43-f7d4-424b-843a-a95ee3cf3dad"
                            }
                        ]
                    },
                    {
                        "detail": [
                            {
                                "reference": "urn:uuid:9e2831bc-27c3-413f-9453-844a91a58432"
                            }
                        ]
                    },
                    {
                        "detail": [
                            {
                                "reference": "urn:uuid:9bb80cc2-fd2a-4d2e-bb08-ab7e531055ad"
                            }
                        ]
                    },
                    {
                        "detail": [
                            {
                                "reference": "urn:uuid:ed227b0d-33d1-43a1-8bf0-301f0fa6cbce"
                            }
                        ]
                    },
                    {
                        "detail": [
                            {
                                "reference": "urn:uuid:2830b755-88a1-4d49-83e5-64b58803c997"
                            }
                        ]
                    },
                    {
                        "detail": [
                            {
                                "reference": "urn:uuid:67838707-fb7b-47b9-9966-8bd92e2a9351"
                            }
                        ]
                    },
                    {
                        "detail": [
                            {
                                "reference": "urn:uuid:f6a1c486-3fde-4ef3-b0ca-20c5257bd3f5"
                            }
                        ]
                    },
                    {
                        "detail": [
                            {
                                "reference": "urn:uuid:8c5c4fb7-1908-4bbf-9ec9-e233864967ca"
                            }
                        ]
                    },
                    {
                        "detail": [
                            {
                                "reference": "urn:uuid:cd6e2714-f1f6-402e-ac03-437422b3e179"
                            }
                        ]
                    },
                    {
                        "detail": [
                            {
                                "reference": "urn:uuid:1263f8d2-f1e1-4dc6-ad14-378bc460985e"
                            }
                        ]
                    },
                    {
                        "detail": [
                            {
                                "reference": "urn:uuid:e734c38b-c6b3-4913-9797-e48e2cd2684a"
                            }
                        ]
                    },
                    {
                        "detail": [
                            {
                                "reference": "urn:uuid:59ac4c36-f08c-4332-8b0c-a085a08fbd1c"
                            }
                        ]
                    },
                    {
                        "detail": [
                            {
                                "reference": "urn:uuid:3a338593-968f-4a21-a3b4-d25a8d92fcaf"
                            }
                        ]
                    },
                    {
                        "detail": [
                            {
                                "reference": "urn:uuid:c5d0e7f9-a592-446c-bbe4-bb070ec69cb0"
                            }
                        ]
                    },
                    {
                        "detail": [
                            {
                                "reference": "urn:uuid:3e6a8b27-fd2d-4972-9fbd-ccadbdc6bc33"
                            }
                        ]
                    },
                    {
                        "detail": [
                            {
                                "reference": "urn:uuid:11769992-1137-413a-8822-f8b6b52f90cd"
                            }
                        ]
                    },
                    {
                        "detail": [
                            {
                                "reference": "urn:uuid:0b237952-7671-46f5-a15b-ac3fbfc4e938"
                            }
                        ]
                    },
                    {
                        "detail": [
                            {
                                "reference": "urn:uuid:504c2a86-0c4c-4814-8899-ab8795b04bb0"
                            }
                        ]
                    },
                    {
                        "detail": [
                            {
                                "reference": "urn:uuid:555b93c5-3702-4149-9905-77e7c19bd481"
                            }
                        ]
                    },
                    {
                        "detail": [
                            {
                                "reference": "urn:uuid:acd28d85-edae-485f-a90f-3b91435d5218"
                            }
                        ]
                    },
                    {
                        "detail": [
                            {
                                "reference": "urn:uuid:a814af43-c1e7-4fd4-abe2-8646590c8484"
                            }
                        ]
                    },
                    {
                        "detail": [
                            {
                                "reference": "urn:uuid:2f266888-dabe-4c9b-a036-231a00a13c27"
                            }
                        ]
                    }
                ]
            }
        },
        {
            "fullUrl": "urn:uuid:73124c30-e45c-4269-9411-7e2e8e7b1e72",
            "resource": {
                "resourceType": "QuestionnaireResponse",
                "id": "73124c30-e45c-4269-9411-7e2e8e7b1e72",
                "identifier": {
                    "value": "7434927"
                },
                "questionnaire": {
                    "reference": "urn:uuid:150eef15-0ab3-4055-a556-2b099f3a4d23"
                },
                "status": "completed",
                "subject": {
                    "reference": "urn:uuid:77e2a93e-ccfa-4603-a5dc-e8ea04b77fb2"
                },
                "context": {
                    "reference": "urn:uuid:da0dc95b-d1f2-4fb6-9011-b8117738920a"
                },
                "authored": "2020-10-30T18:29:05+00:00",
                "item": [
                    {
                        "linkId": "Tx220074",
                        "text": "What is the reason for the contact?",
                        "answer": [
                            {
                                "valueString": "an injury or other health problem"
                            }
                        ]
                    }
                ]
            }
        },
        {
            "fullUrl": "urn:uuid:150eef15-0ab3-4055-a556-2b099f3a4d23",
            "resource": {
                "resourceType": "Questionnaire",
                "id": "150eef15-0ab3-4055-a556-2b099f3a4d23",
                "identifier": [
                    {
                        "value": "7434927"
                    }
                ],
                "version": "2020-10-30T18:29:05.808Z",
                "status": "active",
                "experimental": false,
                "date": "2020-10-30T18:29:05+00:00",
                "publisher": "User ID: 'RB12' User name: 'Rachel Boyer' User skill set: 'T3'",
                "lastReviewDate": "2020-10-30",
                "subjectType": [
                    "Patient"
                ],
                "item": [
                    {
                        "linkId": "7434927",
                        "prefix": "5",
                        "text": "What is the reason for the contact?",
                        "type": "choice",
                        "required": true,
                        "repeats": false,
                        "option": [
                            {
                                "valueString": "an injury or other health problem, Selected: true"
                            },
                            {
                                "valueString": "labour or childbirth, Selected: false"
                            },
                            {
                                "valueString": "a need to access another healthcare service, Selected: false"
                            },
                            {
                                "valueString": "a healthcare professional requesting contact with another clinician, Selected: false"
                            },
                            {
                                "valueString": "a report of results or tests, Selected: false"
                            },
                            {
                                "valueString": "a possible failure of contraception, Selected: false"
                            },
                            {
                                "valueString": "more, Selected: false"
                            }
                        ]
                    }
                ]
            }
        },
        {
            "fullUrl": "urn:uuid:727b1a43-f7d4-424b-843a-a95ee3cf3dad",
            "resource": {
                "resourceType": "QuestionnaireResponse",
                "id": "727b1a43-f7d4-424b-843a-a95ee3cf3dad",
                "identifier": {
                    "value": "7434927"
                },
                "questionnaire": {
                    "reference": "urn:uuid:a5519121-082c-4a59-8fc6-851edc625950"
                },
                "status": "completed",
                "subject": {
                    "reference": "urn:uuid:77e2a93e-ccfa-4603-a5dc-e8ea04b77fb2"
                },
                "context": {
                    "reference": "urn:uuid:da0dc95b-d1f2-4fb6-9011-b8117738920a"
                },
                "authored": "2020-10-30T18:29:05+00:00",
                "item": [
                    {
                        "linkId": "Tx221807",
                        "text": "STRING:to'Immediatethreatstolife(SPA/OOHversion)'-'Majorbloodloss'stem",
                        "answer": [
                            {
                                "valueString": "\"present\""
                            }
                        ]
                    }
                ]
            }
        },
        {
            "fullUrl": "urn:uuid:a5519121-082c-4a59-8fc6-851edc625950",
            "resource": {
                "resourceType": "Questionnaire",
                "id": "a5519121-082c-4a59-8fc6-851edc625950",
                "identifier": [
                    {
                        "value": "7434927"
                    }
                ],
                "version": "2020-10-30T18:29:05.808Z",
                "status": "active",
                "experimental": false,
                "date": "2020-10-30T18:29:05+00:00",
                "publisher": "User ID: 'RB12' User name: 'Rachel Boyer' User skill set: 'T3'",
                "lastReviewDate": "2020-10-30",
                "subjectType": [
                    "Patient"
                ],
                "item": [
                    {
                        "linkId": "7434927",
                        "prefix": "200",
                        "text": "STRING:to'Immediatethreatstolife(SPA/OOHversion)'-'Majorbloodloss'stem",
                        "type": "choice",
                        "required": true,
                        "repeats": false,
                        "option": [
                            {
                                "valueString": "\"present\", Selected: true"
                            }
                        ]
                    }
                ]
            }
        },
        {
            "fullUrl": "urn:uuid:9e2831bc-27c3-413f-9453-844a91a58432",
            "resource": {
                "resourceType": "QuestionnaireResponse",
                "id": "9e2831bc-27c3-413f-9453-844a91a58432",
                "identifier": {
                    "value": "7434927"
                },
                "questionnaire": {
                    "reference": "urn:uuid:27d43fca-b521-4d1d-a959-4c2db88cdb26"
                },
                "status": "completed",
                "subject": {
                    "reference": "urn:uuid:77e2a93e-ccfa-4603-a5dc-e8ea04b77fb2"
                },
                "context": {
                    "reference": "urn:uuid:da0dc95b-d1f2-4fb6-9011-b8117738920a"
                },
                "authored": "2020-10-30T18:29:05+00:00"
            }
        },
        {
            "fullUrl": "urn:uuid:27d43fca-b521-4d1d-a959-4c2db88cdb26",
            "resource": {
                "resourceType": "Questionnaire",
                "id": "27d43fca-b521-4d1d-a959-4c2db88cdb26",
                "identifier": [
                    {
                        "value": "7434927"
                    }
                ],
                "version": "2020-10-30T18:29:05.808Z",
                "status": "active",
                "experimental": false,
                "date": "2020-10-30T18:29:05+00:00",
                "publisher": "User ID: 'RB12' User name: 'Rachel Boyer' User skill set: 'T3'",
                "lastReviewDate": "2020-10-30",
                "subjectType": [
                    "Patient"
                ]
            }
        },
        {
            "fullUrl": "urn:uuid:9bb80cc2-fd2a-4d2e-bb08-ab7e531055ad",
            "resource": {
                "resourceType": "QuestionnaireResponse",
                "id": "9bb80cc2-fd2a-4d2e-bb08-ab7e531055ad",
                "identifier": {
                    "value": "7434927"
                },
                "questionnaire": {
                    "reference": "urn:uuid:95800a23-b51d-4f20-a578-171b2d8fd3b2"
                },
                "status": "completed",
                "subject": {
                    "reference": "urn:uuid:77e2a93e-ccfa-4603-a5dc-e8ea04b77fb2"
                },
                "context": {
                    "reference": "urn:uuid:da0dc95b-d1f2-4fb6-9011-b8117738920a"
                },
                "authored": "2020-10-30T18:29:05+00:00",
                "item": [
                    {
                        "linkId": "Tx221799",
                        "text": "STRING:injury,illnessorlabourestablishedinEntryFlow",
                        "answer": [
                            {
                                "valueString": "\"present\""
                            }
                        ]
                    }
                ]
            }
        },
        {
            "fullUrl": "urn:uuid:95800a23-b51d-4f20-a578-171b2d8fd3b2",
            "resource": {
                "resourceType": "Questionnaire",
                "id": "95800a23-b51d-4f20-a578-171b2d8fd3b2",
                "identifier": [
                    {
                        "value": "7434927"
                    }
                ],
                "version": "2020-10-30T18:29:05.808Z",
                "status": "active",
                "experimental": false,
                "date": "2020-10-30T18:29:05+00:00",
                "publisher": "User ID: 'RB12' User name: 'Rachel Boyer' User skill set: 'T3'",
                "lastReviewDate": "2020-10-30",
                "subjectType": [
                    "Patient"
                ],
                "item": [
                    {
                        "linkId": "7434927",
                        "prefix": "0",
                        "text": "STRING:injury,illnessorlabourestablishedinEntryFlow",
                        "type": "choice",
                        "required": true,
                        "repeats": false,
                        "option": [
                            {
                                "valueString": "\"present\", Selected: true"
                            }
                        ]
                    }
                ]
            }
        },
        {
            "fullUrl": "urn:uuid:ed227b0d-33d1-43a1-8bf0-301f0fa6cbce",
            "resource": {
                "resourceType": "QuestionnaireResponse",
                "id": "ed227b0d-33d1-43a1-8bf0-301f0fa6cbce",
                "identifier": {
                    "value": "7434927"
                },
                "questionnaire": {
                    "reference": "urn:uuid:413230b5-0737-4b80-a8b6-86893514e262"
                },
                "status": "completed",
                "subject": {
                    "reference": "urn:uuid:77e2a93e-ccfa-4603-a5dc-e8ea04b77fb2"
                },
                "context": {
                    "reference": "urn:uuid:da0dc95b-d1f2-4fb6-9011-b8117738920a"
                },
                "authored": "2020-10-30T18:29:05+00:00",
                "item": [
                    {
                        "linkId": "Tx224120",
                        "text": "Have you been bleeding RED BLOOD very heavily IN THE LAST 2 HOURS?",
                        "answer": [
                            {
                                "valueString": "no"
                            }
                        ]
                    }
                ]
            }
        },
        {
            "fullUrl": "urn:uuid:413230b5-0737-4b80-a8b6-86893514e262",
            "resource": {
                "resourceType": "Questionnaire",
                "id": "413230b5-0737-4b80-a8b6-86893514e262",
                "identifier": [
                    {
                        "value": "7434927"
                    }
                ],
                "version": "2020-10-30T18:29:05.808Z",
                "status": "active",
                "experimental": false,
                "date": "2020-10-30T18:29:05+00:00",
                "publisher": "User ID: 'RB12' User name: 'Rachel Boyer' User skill set: 'T3'",
                "lastReviewDate": "2020-10-30",
                "subjectType": [
                    "Patient"
                ],
                "item": [
                    {
                        "linkId": "7434927",
                        "prefix": "10100",
                        "text": "Have you been bleeding RED BLOOD very heavily IN THE LAST 2 HOURS?",
                        "type": "choice",
                        "required": true,
                        "repeats": false,
                        "option": [
                            {
                                "valueString": "yes, Selected: false"
                            },
                            {
                                "valueString": "not sure, Selected: false"
                            },
                            {
                                "valueString": "no, Selected: true"
                            }
                        ]
                    }
                ]
            }
        },
        {
            "fullUrl": "urn:uuid:2830b755-88a1-4d49-83e5-64b58803c997",
            "resource": {
                "resourceType": "QuestionnaireResponse",
                "id": "2830b755-88a1-4d49-83e5-64b58803c997",
                "identifier": {
                    "value": "7434927"
                },
                "questionnaire": {
                    "reference": "urn:uuid:0b767691-00c9-4330-8dbc-72a233bd80d7"
                },
                "status": "completed",
                "subject": {
                    "reference": "urn:uuid:77e2a93e-ccfa-4603-a5dc-e8ea04b77fb2"
                },
                "context": {
                    "reference": "urn:uuid:da0dc95b-d1f2-4fb6-9011-b8117738920a"
                },
                "authored": "2020-10-30T18:29:05+00:00",
                "item": [
                    {
                        "linkId": "Tx221343",
                        "text": "SocialConcernsExcluded",
                        "answer": [
                            {
                                "valueString": "==\"present\""
                            }
                        ]
                    }
                ]
            }
        },
        {
            "fullUrl": "urn:uuid:0b767691-00c9-4330-8dbc-72a233bd80d7",
            "resource": {
                "resourceType": "Questionnaire",
                "id": "0b767691-00c9-4330-8dbc-72a233bd80d7",
                "identifier": [
                    {
                        "value": "7434927"
                    }
                ],
                "version": "2020-10-30T18:29:05.808Z",
                "status": "active",
                "experimental": false,
                "date": "2020-10-30T18:29:05+00:00",
                "publisher": "User ID: 'RB12' User name: 'Rachel Boyer' User skill set: 'T3'",
                "lastReviewDate": "2020-10-30",
                "subjectType": [
                    "Patient"
                ],
                "item": [
                    {
                        "linkId": "7434927",
                        "prefix": "1100",
                        "text": "SocialConcernsExcluded",
                        "type": "choice",
                        "required": true,
                        "repeats": false,
                        "option": [
                            {
                                "valueString": "==\"present\", Selected: true"
                            },
                            {
                                "valueString": "*, Selected: false"
                            }
                        ]
                    }
                ]
            }
        },
        {
            "fullUrl": "urn:uuid:67838707-fb7b-47b9-9966-8bd92e2a9351",
            "resource": {
                "resourceType": "QuestionnaireResponse",
                "id": "67838707-fb7b-47b9-9966-8bd92e2a9351",
                "identifier": {
                    "value": "7434927"
                },
                "questionnaire": {
                    "reference": "urn:uuid:2a423a51-ab5a-4212-bc5c-721622dd29ab"
                },
                "status": "completed",
                "subject": {
                    "reference": "urn:uuid:77e2a93e-ccfa-4603-a5dc-e8ea04b77fb2"
                },
                "context": {
                    "reference": "urn:uuid:da0dc95b-d1f2-4fb6-9011-b8117738920a"
                },
                "authored": "2020-10-30T18:29:05+00:00",
                "item": [
                    {
                        "linkId": "Tx130011",
                        "text": "What is the main problem?",
                        "answer": [
                            {
                                "valueString": "illness or other health problem (specify)"
                            }
                        ]
                    }
                ]
            }
        },
        {
            "fullUrl": "urn:uuid:2a423a51-ab5a-4212-bc5c-721622dd29ab",
            "resource": {
                "resourceType": "Questionnaire",
                "id": "2a423a51-ab5a-4212-bc5c-721622dd29ab",
                "identifier": [
                    {
                        "value": "7434927"
                    }
                ],
                "version": "2020-10-30T18:29:05.808Z",
                "status": "active",
                "experimental": false,
                "date": "2020-10-30T18:29:05+00:00",
                "publisher": "User ID: 'RB12' User name: 'Rachel Boyer' User skill set: 'T3'",
                "lastReviewDate": "2020-10-30",
                "subjectType": [
                    "Patient"
                ],
                "item": [
                    {
                        "linkId": "7434927",
                        "prefix": "2300",
                        "text": "What is the main problem?",
                        "type": "choice",
                        "required": true,
                        "repeats": false,
                        "option": [
                            {
                                "valueString": "the individual has been told to follow a particular course of action (specify), Selected: false"
                            },
                            {
                                "valueString": "the individual is an identified frequent caller, Selected: false"
                            },
                            {
                                "valueString": "injury (specify), Selected: false"
                            },
                            {
                                "valueString": "illness or other health problem (specify), Selected: true"
                            },
                            {
                                "valueString": "child protection/vulnerable adult concern, Selected: false"
                            },
                            {
                                "valueString": "social or domestic emergency, Selected: false"
                            },
                            {
                                "valueString": "the environment potentially poses an immediate threat to life (specify), Selected: false"
                            }
                        ]
                    }
                ]
            }
        },
        {
            "fullUrl": "urn:uuid:f6a1c486-3fde-4ef3-b0ca-20c5257bd3f5",
            "resource": {
                "resourceType": "QuestionnaireResponse",
                "id": "f6a1c486-3fde-4ef3-b0ca-20c5257bd3f5",
                "identifier": {
                    "value": "7434927"
                },
                "questionnaire": {
                    "reference": "urn:uuid:f8bf4e36-9484-48a5-8608-ec3289e3fe15"
                },
                "status": "completed",
                "subject": {
                    "reference": "urn:uuid:77e2a93e-ccfa-4603-a5dc-e8ea04b77fb2"
                },
                "context": {
                    "reference": "urn:uuid:da0dc95b-d1f2-4fb6-9011-b8117738920a"
                },
                "authored": "2020-10-30T18:29:05+00:00"
            }
        },
        {
            "fullUrl": "urn:uuid:f8bf4e36-9484-48a5-8608-ec3289e3fe15",
            "resource": {
                "resourceType": "Questionnaire",
                "id": "f8bf4e36-9484-48a5-8608-ec3289e3fe15",
                "identifier": [
                    {
                        "value": "7434927"
                    }
                ],
                "version": "2020-10-30T18:29:05.808Z",
                "status": "active",
                "experimental": false,
                "date": "2020-10-30T18:29:05+00:00",
                "publisher": "User ID: 'RB12' User name: 'Rachel Boyer' User skill set: 'T3'",
                "lastReviewDate": "2020-10-30",
                "subjectType": [
                    "Patient"
                ]
            }
        },
        {
            "fullUrl": "urn:uuid:8c5c4fb7-1908-4bbf-9ec9-e233864967ca",
            "resource": {
                "resourceType": "QuestionnaireResponse",
                "id": "8c5c4fb7-1908-4bbf-9ec9-e233864967ca",
                "identifier": {
                    "value": "7434927"
                },
                "questionnaire": {
                    "reference": "urn:uuid:5e214776-6452-4b38-a8c4-4cfe61ba3f62"
                },
                "status": "completed",
                "subject": {
                    "reference": "urn:uuid:77e2a93e-ccfa-4603-a5dc-e8ea04b77fb2"
                },
                "context": {
                    "reference": "urn:uuid:da0dc95b-d1f2-4fb6-9011-b8117738920a"
                },
                "authored": "2020-10-30T18:29:05+00:00",
                "item": [
                    {
                        "linkId": "Tx61025",
                        "text": "Are you so breathless that speaking more than a few words is impossible?",
                        "answer": [
                            {
                                "valueString": "no"
                            }
                        ]
                    }
                ]
            }
        },
        {
            "fullUrl": "urn:uuid:5e214776-6452-4b38-a8c4-4cfe61ba3f62",
            "resource": {
                "resourceType": "Questionnaire",
                "id": "5e214776-6452-4b38-a8c4-4cfe61ba3f62",
                "identifier": [
                    {
                        "value": "7434927"
                    }
                ],
                "version": "2020-10-30T18:29:05.808Z",
                "status": "active",
                "experimental": false,
                "date": "2020-10-30T18:29:05+00:00",
                "publisher": "User ID: 'RB12' User name: 'Rachel Boyer' User skill set: 'T3'",
                "lastReviewDate": "2020-10-30",
                "subjectType": [
                    "Patient"
                ],
                "item": [
                    {
                        "linkId": "7434927",
                        "prefix": "0",
                        "text": "Are you so breathless that speaking more than a few words is impossible?",
                        "type": "choice",
                        "required": true,
                        "repeats": false,
                        "option": [
                            {
                                "valueString": "yes, Selected: false"
                            },
                            {
                                "valueString": "not sure, Selected: false"
                            },
                            {
                                "valueString": "no, Selected: true"
                            }
                        ]
                    }
                ]
            }
        },
        {
            "fullUrl": "urn:uuid:cd6e2714-f1f6-402e-ac03-437422b3e179",
            "resource": {
                "resourceType": "QuestionnaireResponse",
                "id": "cd6e2714-f1f6-402e-ac03-437422b3e179",
                "identifier": {
                    "value": "7434927"
                },
                "questionnaire": {
                    "reference": "urn:uuid:9065cd54-a820-440a-a4d8-97af1c1b6ae5"
                },
                "status": "completed",
                "subject": {
                    "reference": "urn:uuid:77e2a93e-ccfa-4603-a5dc-e8ea04b77fb2"
                },
                "context": {
                    "reference": "urn:uuid:da0dc95b-d1f2-4fb6-9011-b8117738920a"
                },
                "authored": "2020-10-30T18:29:05+00:00",
                "item": [
                    {
                        "linkId": "Tx220845",
                        "text": "SYSTEM_FLUPANDEMIC",
                        "answer": [
                            {
                                "valueString": "==\"pandemic\""
                            }
                        ]
                    }
                ]
            }
        },
        {
            "fullUrl": "urn:uuid:9065cd54-a820-440a-a4d8-97af1c1b6ae5",
            "resource": {
                "resourceType": "Questionnaire",
                "id": "9065cd54-a820-440a-a4d8-97af1c1b6ae5",
                "identifier": [
                    {
                        "value": "7434927"
                    }
                ],
                "version": "2020-10-30T18:29:05.808Z",
                "status": "active",
                "experimental": false,
                "date": "2020-10-30T18:29:05+00:00",
                "publisher": "User ID: 'RB12' User name: 'Rachel Boyer' User skill set: 'T3'",
                "lastReviewDate": "2020-10-30",
                "subjectType": [
                    "Patient"
                ],
                "item": [
                    {
                        "linkId": "7434927",
                        "prefix": "100",
                        "text": "SYSTEM_FLUPANDEMIC",
                        "type": "choice",
                        "required": true,
                        "repeats": false,
                        "option": [
                            {
                                "valueString": "==\"pandemic\", Selected: true"
                            },
                            {
                                "valueString": "*, Selected: false"
                            }
                        ]
                    }
                ]
            }
        },
        {
            "fullUrl": "urn:uuid:1263f8d2-f1e1-4dc6-ad14-378bc460985e",
            "resource": {
                "resourceType": "QuestionnaireResponse",
                "id": "1263f8d2-f1e1-4dc6-ad14-378bc460985e",
                "identifier": {
                    "value": "7434927"
                },
                "questionnaire": {
                    "reference": "urn:uuid:1f0cff3e-2991-40c2-a371-75d0b1b7af25"
                },
                "status": "completed",
                "subject": {
                    "reference": "urn:uuid:77e2a93e-ccfa-4603-a5dc-e8ea04b77fb2"
                },
                "context": {
                    "reference": "urn:uuid:da0dc95b-d1f2-4fb6-9011-b8117738920a"
                },
                "authored": "2020-10-30T18:29:05+00:00",
                "item": [
                    {
                        "linkId": "Tx223440",
                        "text": "WHAT IS SAID TO BE THE MAIN REASON FOR THIS CONTACT?",
                        "answer": [
                            {
                                "valueString": "more"
                            }
                        ]
                    }
                ]
            }
        },
        {
            "fullUrl": "urn:uuid:1f0cff3e-2991-40c2-a371-75d0b1b7af25",
            "resource": {
                "resourceType": "Questionnaire",
                "id": "1f0cff3e-2991-40c2-a371-75d0b1b7af25",
                "identifier": [
                    {
                        "value": "7434927"
                    }
                ],
                "version": "2020-10-30T18:29:05.808Z",
                "status": "active",
                "experimental": false,
                "date": "2020-10-30T18:29:05+00:00",
                "publisher": "User ID: 'RB12' User name: 'Rachel Boyer' User skill set: 'T3'",
                "lastReviewDate": "2020-10-30",
                "subjectType": [
                    "Patient"
                ],
                "item": [
                    {
                        "linkId": "7434927",
                        "prefix": "5200",
                        "text": "WHAT IS SAID TO BE THE MAIN REASON FOR THIS CONTACT?",
                        "type": "choice",
                        "required": true,
                        "repeats": false,
                        "option": [
                            {
                                "valueString": "a probable allergic reaction now, Selected: false"
                            },
                            {
                                "valueString": "a probable heart attack, Selected: false"
                            },
                            {
                                "valueString": "chest or upper back pain, Selected: false"
                            },
                            {
                                "valueString": "a probable stroke or mini-stroke, Selected: false"
                            },
                            {
                                "valueString": "a probable fit or seizure within the last 12 hours, Selected: false"
                            },
                            {
                                "valueString": "a suicide attempt, Selected: false"
                            },
                            {
                                "valueString": "more, Selected: true"
                            }
                        ]
                    }
                ]
            }
        },
        {
            "fullUrl": "urn:uuid:e734c38b-c6b3-4913-9797-e48e2cd2684a",
            "resource": {
                "resourceType": "QuestionnaireResponse",
                "id": "e734c38b-c6b3-4913-9797-e48e2cd2684a",
                "identifier": {
                    "value": "7434927"
                },
                "questionnaire": {
                    "reference": "urn:uuid:c9e09759-ce49-4f2a-ac82-e1eb7811330d"
                },
                "status": "completed",
                "subject": {
                    "reference": "urn:uuid:77e2a93e-ccfa-4603-a5dc-e8ea04b77fb2"
                },
                "context": {
                    "reference": "urn:uuid:da0dc95b-d1f2-4fb6-9011-b8117738920a"
                },
                "authored": "2020-10-30T18:29:05+00:00",
                "item": [
                    {
                        "linkId": "Tx220032",
                        "text": "WHAT IS SAID TO BE THE MAIN REASON FOR THIS CONTACT?",
                        "answer": [
                            {
                                "valueString": "none of the above"
                            }
                        ]
                    }
                ]
            }
        },
        {
            "fullUrl": "urn:uuid:c9e09759-ce49-4f2a-ac82-e1eb7811330d",
            "resource": {
                "resourceType": "Questionnaire",
                "id": "c9e09759-ce49-4f2a-ac82-e1eb7811330d",
                "identifier": [
                    {
                        "value": "7434927"
                    }
                ],
                "version": "2020-10-30T18:29:05.808Z",
                "status": "active",
                "experimental": false,
                "date": "2020-10-30T18:29:05+00:00",
                "publisher": "User ID: 'RB12' User name: 'Rachel Boyer' User skill set: 'T3'",
                "lastReviewDate": "2020-10-30",
                "subjectType": [
                    "Patient"
                ],
                "item": [
                    {
                        "linkId": "7434927",
                        "prefix": "2200",
                        "text": "WHAT IS SAID TO BE THE MAIN REASON FOR THIS CONTACT?",
                        "type": "choice",
                        "required": true,
                        "repeats": false,
                        "option": [
                            {
                                "valueString": "new confusion now, Selected: false"
                            },
                            {
                                "valueString": "a diabetic hypo (low blood sugar) or a diabetic hyper (high blood sugar), Selected: false"
                            },
                            {
                                "valueString": "recovery from an ICD (implanted cardioverter defibrillator) shock, Selected: false"
                            },
                            {
                                "valueString": "none of the above, Selected: true"
                            }
                        ]
                    }
                ]
            }
        },
        {
            "fullUrl": "urn:uuid:59ac4c36-f08c-4332-8b0c-a085a08fbd1c",
            "resource": {
                "resourceType": "QuestionnaireResponse",
                "id": "59ac4c36-f08c-4332-8b0c-a085a08fbd1c",
                "identifier": {
                    "value": "7434927"
                },
                "questionnaire": {
                    "reference": "urn:uuid:08be7b2a-06b2-4edd-a598-4dd56b536c9f"
                },
                "status": "completed",
                "subject": {
                    "reference": "urn:uuid:77e2a93e-ccfa-4603-a5dc-e8ea04b77fb2"
                },
                "context": {
                    "reference": "urn:uuid:da0dc95b-d1f2-4fb6-9011-b8117738920a"
                },
                "authored": "2020-10-30T18:29:05+00:00",
                "item": [
                    {
                        "linkId": "Tx223142",
                        "text": "Does the skin on the chest, back or abdomen feel a normal temperature?",
                        "answer": [
                            {
                                "valueString": "yes - normal, warm or hot"
                            }
                        ]
                    }
                ]
            }
        },
        {
            "fullUrl": "urn:uuid:08be7b2a-06b2-4edd-a598-4dd56b536c9f",
            "resource": {
                "resourceType": "Questionnaire",
                "id": "08be7b2a-06b2-4edd-a598-4dd56b536c9f",
                "identifier": [
                    {
                        "value": "7434927"
                    }
                ],
                "version": "2020-10-30T18:29:05.808Z",
                "status": "active",
                "experimental": false,
                "date": "2020-10-30T18:29:05+00:00",
                "publisher": "User ID: 'RB12' User name: 'Rachel Boyer' User skill set: 'T3'",
                "lastReviewDate": "2020-10-30",
                "subjectType": [
                    "Patient"
                ],
                "item": [
                    {
                        "linkId": "7434927",
                        "prefix": "4200",
                        "text": "Does the skin on the chest, back or abdomen feel a normal temperature?",
                        "type": "choice",
                        "required": true,
                        "repeats": false,
                        "option": [
                            {
                                "valueString": "yes - normal, warm or hot, Selected: true"
                            },
                            {
                                "valueString": "not sure, Selected: false"
                            },
                            {
                                "valueString": "no - cool OR cold, Selected: false"
                            },
                            {
                                "valueString": "not safe to touch, Selected: false"
                            }
                        ]
                    }
                ]
            }
        },
        {
            "fullUrl": "urn:uuid:3a338593-968f-4a21-a3b4-d25a8d92fcaf",
            "resource": {
                "resourceType": "QuestionnaireResponse",
                "id": "3a338593-968f-4a21-a3b4-d25a8d92fcaf",
                "identifier": {
                    "value": "7434927"
                },
                "questionnaire": {
                    "reference": "urn:uuid:46cb03eb-b672-47e9-84c2-2d57121644d2"
                },
                "status": "completed",
                "subject": {
                    "reference": "urn:uuid:77e2a93e-ccfa-4603-a5dc-e8ea04b77fb2"
                },
                "context": {
                    "reference": "urn:uuid:da0dc95b-d1f2-4fb6-9011-b8117738920a"
                },
                "authored": "2020-10-30T18:29:05+00:00",
                "item": [
                    {
                        "linkId": "Tx221724",
                        "text": "STRING:ShockAsked",
                        "answer": [
                            {
                                "valueString": "\"present\""
                            }
                        ]
                    }
                ]
            }
        },
        {
            "fullUrl": "urn:uuid:46cb03eb-b672-47e9-84c2-2d57121644d2",
            "resource": {
                "resourceType": "Questionnaire",
                "id": "46cb03eb-b672-47e9-84c2-2d57121644d2",
                "identifier": [
                    {
                        "value": "7434927"
                    }
                ],
                "version": "2020-10-30T18:29:05.808Z",
                "status": "active",
                "experimental": false,
                "date": "2020-10-30T18:29:05+00:00",
                "publisher": "User ID: 'RB12' User name: 'Rachel Boyer' User skill set: 'T3'",
                "lastReviewDate": "2020-10-30",
                "subjectType": [
                    "Patient"
                ],
                "item": [
                    {
                        "linkId": "7434927",
                        "prefix": "3700",
                        "text": "STRING:ShockAsked",
                        "type": "choice",
                        "required": true,
                        "repeats": false,
                        "option": [
                            {
                                "valueString": "\"present\", Selected: true"
                            }
                        ]
                    }
                ]
            }
        },
        {
            "fullUrl": "urn:uuid:c5d0e7f9-a592-446c-bbe4-bb070ec69cb0",
            "resource": {
                "resourceType": "QuestionnaireResponse",
                "id": "c5d0e7f9-a592-446c-bbe4-bb070ec69cb0",
                "identifier": {
                    "value": "7434927"
                },
                "questionnaire": {
                    "reference": "urn:uuid:a8bdfa51-1229-40a8-99c6-2441c1a77c63"
                },
                "status": "completed",
                "subject": {
                    "reference": "urn:uuid:77e2a93e-ccfa-4603-a5dc-e8ea04b77fb2"
                },
                "context": {
                    "reference": "urn:uuid:da0dc95b-d1f2-4fb6-9011-b8117738920a"
                },
                "authored": "2020-10-30T18:29:05+00:00"
            }
        },
        {
            "fullUrl": "urn:uuid:a8bdfa51-1229-40a8-99c6-2441c1a77c63",
            "resource": {
                "resourceType": "Questionnaire",
                "id": "a8bdfa51-1229-40a8-99c6-2441c1a77c63",
                "identifier": [
                    {
                        "value": "7434927"
                    }
                ],
                "version": "2020-10-30T18:29:05.808Z",
                "status": "active",
                "experimental": false,
                "date": "2020-10-30T18:29:05+00:00",
                "publisher": "User ID: 'RB12' User name: 'Rachel Boyer' User skill set: 'T3'",
                "lastReviewDate": "2020-10-30",
                "subjectType": [
                    "Patient"
                ]
            }
        },
        {
            "fullUrl": "urn:uuid:3e6a8b27-fd2d-4972-9fbd-ccadbdc6bc33",
            "resource": {
                "resourceType": "QuestionnaireResponse",
                "id": "3e6a8b27-fd2d-4972-9fbd-ccadbdc6bc33",
                "identifier": {
                    "value": "7434927"
                },
                "questionnaire": {
                    "reference": "urn:uuid:a840f946-0580-4d52-bec9-7accedd624ea"
                },
                "status": "completed",
                "subject": {
                    "reference": "urn:uuid:77e2a93e-ccfa-4603-a5dc-e8ea04b77fb2"
                },
                "context": {
                    "reference": "urn:uuid:da0dc95b-d1f2-4fb6-9011-b8117738920a"
                },
                "authored": "2020-10-30T18:29:05+00:00",
                "item": [
                    {
                        "linkId": "Tx42307",
                        "text": "Are you feeling faint or dizzy?",
                        "answer": [
                            {
                                "valueString": "no"
                            }
                        ]
                    }
                ]
            }
        },
        {
            "fullUrl": "urn:uuid:a840f946-0580-4d52-bec9-7accedd624ea",
            "resource": {
                "resourceType": "Questionnaire",
                "id": "a840f946-0580-4d52-bec9-7accedd624ea",
                "identifier": [
                    {
                        "value": "7434927"
                    }
                ],
                "version": "2020-10-30T18:29:05.808Z",
                "status": "active",
                "experimental": false,
                "date": "2020-10-30T18:29:05+00:00",
                "publisher": "User ID: 'RB12' User name: 'Rachel Boyer' User skill set: 'T3'",
                "lastReviewDate": "2020-10-30",
                "subjectType": [
                    "Patient"
                ],
                "item": [
                    {
                        "linkId": "7434927",
                        "prefix": "0",
                        "text": "Are you feeling faint or dizzy?",
                        "type": "choice",
                        "required": true,
                        "repeats": false,
                        "option": [
                            {
                                "valueString": "yes, Selected: false"
                            },
                            {
                                "valueString": "not sure, Selected: false"
                            },
                            {
                                "valueString": "no, Selected: true"
                            }
                        ]
                    }
                ]
            }
        },
        {
            "fullUrl": "urn:uuid:11769992-1137-413a-8822-f8b6b52f90cd",
            "resource": {
                "resourceType": "QuestionnaireResponse",
                "id": "11769992-1137-413a-8822-f8b6b52f90cd",
                "identifier": {
                    "value": "7434927"
                },
                "questionnaire": {
                    "reference": "urn:uuid:062c7afe-e4f4-4dc5-9240-268ee84aa126"
                },
                "status": "completed",
                "subject": {
                    "reference": "urn:uuid:77e2a93e-ccfa-4603-a5dc-e8ea04b77fb2"
                },
                "context": {
                    "reference": "urn:uuid:da0dc95b-d1f2-4fb6-9011-b8117738920a"
                },
                "authored": "2020-10-30T18:29:05+00:00",
                "item": [
                    {
                        "linkId": "Tx1260",
                        "text": "Is the nose still bleeding?",
                        "answer": [
                            {
                                "valueString": "yes"
                            }
                        ]
                    }
                ]
            }
        },
        {
            "fullUrl": "urn:uuid:062c7afe-e4f4-4dc5-9240-268ee84aa126",
            "resource": {
                "resourceType": "Questionnaire",
                "id": "062c7afe-e4f4-4dc5-9240-268ee84aa126",
                "identifier": [
                    {
                        "value": "7434927"
                    }
                ],
                "version": "2020-10-30T18:29:05.808Z",
                "status": "active",
                "experimental": false,
                "date": "2020-10-30T18:29:05+00:00",
                "publisher": "User ID: 'RB12' User name: 'Rachel Boyer' User skill set: 'T3'",
                "lastReviewDate": "2020-10-30",
                "subjectType": [
                    "Patient"
                ],
                "item": [
                    {
                        "linkId": "7434927",
                        "prefix": "100",
                        "text": "Is the nose still bleeding?",
                        "type": "choice",
                        "required": true,
                        "repeats": false,
                        "option": [
                            {
                                "valueString": "yes, Selected: true"
                            },
                            {
                                "valueString": "not sure, Selected: false"
                            },
                            {
                                "valueString": "no, Selected: false"
                            }
                        ]
                    }
                ]
            }
        },
        {
            "fullUrl": "urn:uuid:0b237952-7671-46f5-a15b-ac3fbfc4e938",
            "resource": {
                "resourceType": "QuestionnaireResponse",
                "id": "0b237952-7671-46f5-a15b-ac3fbfc4e938",
                "identifier": {
                    "value": "7434927"
                },
                "questionnaire": {
                    "reference": "urn:uuid:45ceb4a4-7425-442f-a635-eb5a0b60825b"
                },
                "status": "completed",
                "subject": {
                    "reference": "urn:uuid:77e2a93e-ccfa-4603-a5dc-e8ea04b77fb2"
                },
                "context": {
                    "reference": "urn:uuid:da0dc95b-d1f2-4fb6-9011-b8117738920a"
                },
                "authored": "2020-10-30T18:29:05+00:00",
                "item": [
                    {
                        "linkId": "Tx1258",
                        "text": "Is anything stuck up the nose?",
                        "answer": [
                            {
                                "valueString": "no"
                            }
                        ]
                    }
                ]
            }
        },
        {
            "fullUrl": "urn:uuid:45ceb4a4-7425-442f-a635-eb5a0b60825b",
            "resource": {
                "resourceType": "Questionnaire",
                "id": "45ceb4a4-7425-442f-a635-eb5a0b60825b",
                "identifier": [
                    {
                        "value": "7434927"
                    }
                ],
                "version": "2020-10-30T18:29:05.808Z",
                "status": "active",
                "experimental": false,
                "date": "2020-10-30T18:29:05+00:00",
                "publisher": "User ID: 'RB12' User name: 'Rachel Boyer' User skill set: 'T3'",
                "lastReviewDate": "2020-10-30",
                "subjectType": [
                    "Patient"
                ],
                "item": [
                    {
                        "linkId": "7434927",
                        "prefix": "300",
                        "text": "Is anything stuck up the nose?",
                        "type": "choice",
                        "required": true,
                        "repeats": false,
                        "option": [
                            {
                                "valueString": "yes, Selected: false"
                            },
                            {
                                "valueString": "not sure, Selected: false"
                            },
                            {
                                "valueString": "no, Selected: true"
                            }
                        ]
                    }
                ]
            }
        },
        {
            "fullUrl": "urn:uuid:504c2a86-0c4c-4814-8899-ab8795b04bb0",
            "resource": {
                "resourceType": "QuestionnaireResponse",
                "id": "504c2a86-0c4c-4814-8899-ab8795b04bb0",
                "identifier": {
                    "value": "7434927"
                },
                "questionnaire": {
                    "reference": "urn:uuid:33d35d45-018f-428d-a081-f045d8253a03"
                },
                "status": "completed",
                "subject": {
                    "reference": "urn:uuid:77e2a93e-ccfa-4603-a5dc-e8ea04b77fb2"
                },
                "context": {
                    "reference": "urn:uuid:da0dc95b-d1f2-4fb6-9011-b8117738920a"
                },
                "authored": "2020-10-30T18:29:05+00:00",
                "item": [
                    {
                        "linkId": "Tx1259",
                        "text": "Have you pinched the soft part of the nose for AT LEAST 10 MINUTES without a break?",
                        "answer": [
                            {
                                "valueString": "yes"
                            }
                        ]
                    }
                ]
            }
        },
        {
            "fullUrl": "urn:uuid:33d35d45-018f-428d-a081-f045d8253a03",
            "resource": {
                "resourceType": "Questionnaire",
                "id": "33d35d45-018f-428d-a081-f045d8253a03",
                "identifier": [
                    {
                        "value": "7434927"
                    }
                ],
                "version": "2020-10-30T18:29:05.808Z",
                "status": "active",
                "experimental": false,
                "date": "2020-10-30T18:29:05+00:00",
                "publisher": "User ID: 'RB12' User name: 'Rachel Boyer' User skill set: 'T3'",
                "lastReviewDate": "2020-10-30",
                "subjectType": [
                    "Patient"
                ],
                "item": [
                    {
                        "linkId": "7434927",
                        "prefix": "1500",
                        "text": "Have you pinched the soft part of the nose for AT LEAST 10 MINUTES without a break?",
                        "type": "choice",
                        "required": true,
                        "repeats": false,
                        "option": [
                            {
                                "valueString": "yes, Selected: true"
                            },
                            {
                                "valueString": "not sure, Selected: false"
                            },
                            {
                                "valueString": "no, Selected: false"
                            }
                        ]
                    }
                ]
            }
        },
        {
            "fullUrl": "urn:uuid:555b93c5-3702-4149-9905-77e7c19bd481",
            "resource": {
                "resourceType": "QuestionnaireResponse",
                "id": "555b93c5-3702-4149-9905-77e7c19bd481",
                "identifier": {
                    "value": "7434927"
                },
                "questionnaire": {
                    "reference": "urn:uuid:73da4bf3-60b6-493f-b3e1-7ac2cd647bcc"
                },
                "status": "completed",
                "subject": {
                    "reference": "urn:uuid:77e2a93e-ccfa-4603-a5dc-e8ea04b77fb2"
                },
                "context": {
                    "reference": "urn:uuid:da0dc95b-d1f2-4fb6-9011-b8117738920a"
                },
                "authored": "2020-10-30T18:29:05+00:00",
                "item": [
                    {
                        "linkId": "Tx221512",
                        "text": "STRING:SDEDFullEDassessmentandmanagementcapability",
                        "answer": [
                            {
                                "valueString": "\"ED full ED assessment and management capability\""
                            }
                        ]
                    }
                ]
            }
        },
        {
            "fullUrl": "urn:uuid:73da4bf3-60b6-493f-b3e1-7ac2cd647bcc",
            "resource": {
                "resourceType": "Questionnaire",
                "id": "73da4bf3-60b6-493f-b3e1-7ac2cd647bcc",
                "identifier": [
                    {
                        "value": "7434927"
                    }
                ],
                "version": "2020-10-30T18:29:05.808Z",
                "status": "active",
                "experimental": false,
                "date": "2020-10-30T18:29:05+00:00",
                "publisher": "User ID: 'RB12' User name: 'Rachel Boyer' User skill set: 'T3'",
                "lastReviewDate": "2020-10-30",
                "subjectType": [
                    "Patient"
                ],
                "item": [
                    {
                        "linkId": "7434927",
                        "prefix": "1700",
                        "text": "STRING:SDEDFullEDassessmentandmanagementcapability",
                        "type": "choice",
                        "required": true,
                        "repeats": false,
                        "option": [
                            {
                                "valueString": "\"ED full ED assessment and management capability\", Selected: true"
                            }
                        ]
                    }
                ]
            }
        },
        {
            "fullUrl": "urn:uuid:acd28d85-edae-485f-a90f-3b91435d5218",
            "resource": {
                "resourceType": "QuestionnaireResponse",
                "id": "acd28d85-edae-485f-a90f-3b91435d5218",
                "identifier": {
                    "value": "7434927"
                },
                "questionnaire": {
                    "reference": "urn:uuid:90b65fc0-4a8d-4f55-ab5a-767b00a5baf8"
                },
                "status": "completed",
                "subject": {
                    "reference": "urn:uuid:77e2a93e-ccfa-4603-a5dc-e8ea04b77fb2"
                },
                "context": {
                    "reference": "urn:uuid:da0dc95b-d1f2-4fb6-9011-b8117738920a"
                },
                "authored": "2020-10-30T18:29:05+00:00"
            }
        },
        {
            "fullUrl": "urn:uuid:90b65fc0-4a8d-4f55-ab5a-767b00a5baf8",
            "resource": {
                "resourceType": "Questionnaire",
                "id": "90b65fc0-4a8d-4f55-ab5a-767b00a5baf8",
                "identifier": [
                    {
                        "value": "7434927"
                    }
                ],
                "version": "2020-10-30T18:29:05.808Z",
                "status": "active",
                "experimental": false,
                "date": "2020-10-30T18:29:05+00:00",
                "publisher": "User ID: 'RB12' User name: 'Rachel Boyer' User skill set: 'T3'",
                "lastReviewDate": "2020-10-30",
                "subjectType": [
                    "Patient"
                ]
            }
        },
        {
            "fullUrl": "urn:uuid:a814af43-c1e7-4fd4-abe2-8646590c8484",
            "resource": {
                "resourceType": "QuestionnaireResponse",
                "id": "a814af43-c1e7-4fd4-abe2-8646590c8484",
                "identifier": {
                    "value": "7434927"
                },
                "questionnaire": {
                    "reference": "urn:uuid:29ea989f-9f59-4dbd-b4a4-360e58c9ab6a"
                },
                "status": "completed",
                "subject": {
                    "reference": "urn:uuid:77e2a93e-ccfa-4603-a5dc-e8ea04b77fb2"
                },
                "context": {
                    "reference": "urn:uuid:da0dc95b-d1f2-4fb6-9011-b8117738920a"
                },
                "authored": "2020-10-30T18:29:05+00:00"
            }
        },
        {
            "fullUrl": "urn:uuid:29ea989f-9f59-4dbd-b4a4-360e58c9ab6a",
            "resource": {
                "resourceType": "Questionnaire",
                "id": "29ea989f-9f59-4dbd-b4a4-360e58c9ab6a",
                "identifier": [
                    {
                        "value": "7434927"
                    }
                ],
                "version": "2020-10-30T18:29:05.808Z",
                "status": "active",
                "experimental": false,
                "date": "2020-10-30T18:29:05+00:00",
                "publisher": "User ID: 'RB12' User name: 'Rachel Boyer' User skill set: 'T3'",
                "lastReviewDate": "2020-10-30",
                "subjectType": [
                    "Patient"
                ]
            }
        },
        {
            "fullUrl": "urn:uuid:2f266888-dabe-4c9b-a036-231a00a13c27",
            "resource": {
                "resourceType": "QuestionnaireResponse",
                "id": "2f266888-dabe-4c9b-a036-231a00a13c27",
                "identifier": {
                    "value": "7434927"
                },
                "questionnaire": {
                    "reference": "urn:uuid:d857c993-eb54-453b-88e4-7f362fe6a621"
                },
                "status": "completed",
                "subject": {
                    "reference": "urn:uuid:77e2a93e-ccfa-4603-a5dc-e8ea04b77fb2"
                },
                "context": {
                    "reference": "urn:uuid:da0dc95b-d1f2-4fb6-9011-b8117738920a"
                },
                "authored": "2020-10-30T18:29:05+00:00"
            }
        },
        {
            "fullUrl": "urn:uuid:d857c993-eb54-453b-88e4-7f362fe6a621",
            "resource": {
                "resourceType": "Questionnaire",
                "id": "d857c993-eb54-453b-88e4-7f362fe6a621",
                "identifier": [
                    {
                        "value": "7434927"
                    }
                ],
                "version": "2020-10-30T18:29:05.808Z",
                "status": "active",
                "experimental": false,
                "date": "2020-10-30T18:29:05+00:00",
                "publisher": "User ID: 'RB12' User name: 'Rachel Boyer' User skill set: 'T3'",
                "lastReviewDate": "2020-10-30",
                "subjectType": [
                    "Patient"
                ]
            }
        },
        {
            "fullUrl": "urn:uuid:3fd5ed2c-543c-4f8b-8db1-2df0baae78b3",
            "resource": {
                "resourceType": "Observation",
                "id": "3fd5ed2c-543c-4f8b-8db1-2df0baae78b3",
                "status": "final",
                "code": {
                    "coding": [
                        {
                            "system": "http://snomed.info/sct",
                            "code": "33962009",
                            "display": "Presenting complaint"
                        }
                    ]
                },
                "subject": {
                    "reference": "urn:uuid:77e2a93e-ccfa-4603-a5dc-e8ea04b77fb2"
                },
                "context": {
                    "reference": "urn:uuid:da0dc95b-d1f2-4fb6-9011-b8117738920a"
                }
            }
        },
        {
            "fullUrl": "urn:uuid:dcf95586-b58f-405a-873e-170dcfdedf21",
            "resource": {
                "resourceType": "PractitionerRole",
                "id": "dcf95586-b58f-405a-873e-170dcfdedf21",
                "practitioner": {
                    "reference": "urn:uuid:2aada7cc-34a5-46f4-9ec4-3d624b6823d3"
                },
                "organization": {
                    "reference": "urn:uuid:9b648e04-8038-4b69-abe3-34638cffea78"
                },
                "code": [
                    {
                        "coding": [
                            {
                                "system": "2.16.840.1.113883.2.1.3.2.4.17.339",
                                "code": "OTHER",
                                "display": "Assessed by"
                            }
                        ]
                    }
                ]
            }
        },
        {
            "fullUrl": "urn:uuid:9b648e04-8038-4b69-abe3-34638cffea78",
            "resource": {
                "resourceType": "Organization",
                "id": "9b648e04-8038-4b69-abe3-34638cffea78",
                "identifier": [
                    {
                        "value": "Y00397"
                    }
                ],
                "name": "Devon 111 (Devon Doctors Group)"
            }
        },
        {
            "fullUrl": "urn:uuid:e3719366-49a9-4e56-b074-ade5fbc95fb3",
            "resource": {
                "resourceType": "PractitionerRole",
                "id": "e3719366-49a9-4e56-b074-ade5fbc95fb3",
                "practitioner": {
                    "reference": "urn:uuid:a8dbe77e-4624-43b0-9304-19bd4259c720"
                },
                "organization": {
                    "reference": "urn:uuid:977102a9-3960-4d38-b9a2-a15d94bef38b"
                },
                "code": [
                    {
                        "coding": [
                            {
                                "system": "2.16.840.1.113883.2.1.3.2.4.17.196",
                                "code": "R0010",
                                "display": "Medical Director"
                            }
                        ]
                    }
                ]
            }
        },
        {
            "fullUrl": "urn:uuid:977102a9-3960-4d38-b9a2-a15d94bef38b",
            "resource": {
                "resourceType": "Organization",
                "id": "977102a9-3960-4d38-b9a2-a15d94bef38b",
                "identifier": [
                    {
                        "value": "Y00397"
                    }
                ],
                "name": "Devon Doctors Group"
            }
        },
        {
            "fullUrl": "urn:uuid:4d22751e-2539-40d4-8cf7-32a18f86f810",
            "resource": {
                "resourceType": "RelatedPerson",
                "id": "4d22751e-2539-40d4-8cf7-32a18f86f810",
                "patient": {
                    "reference": "urn:uuid:77e2a93e-ccfa-4603-a5dc-e8ea04b77fb2"
                },
                "relationship": {
                    "coding": [
                        {
                            "system": "http://hl7.org/fhir/v2/0131",
                            "code": "C",
                            "display": "Emergency Contact"
                        }
                    ]
                },
                "telecom": [
                    {
                        "system": "phone",
                        "value": "tel:01702123456"
                    }
                ]
            }
        },
        {
            "fullUrl": "urn:uuid:eaad6504-18a5-456b-b1cb-c4ae88b9ada5",
            "resource": {
                "resourceType": "Device",
                "id": "eaad6504-18a5-456b-b1cb-c4ae88b9ada5",
                "model": "111 Adaptor",
                "version": "0.9.0"
            }
        },
        {
            "fullUrl": "urn:uuid:4787c8f0-8596-412b-b745-e5107b6a5868",
            "resource": {
                "resourceType": "List",
                "id": "4787c8f0-8596-412b-b745-e5107b6a5868",
                "status": "current",
                "mode": "working",
                "title": "111 Report List",
                "code": {
                    "coding": [
                        {
                            "system": "http://snomed.info/sct",
                            "code": "225390008",
                            "display": "Triage"
                        }
                    ]
                },
                "subject": {
                    "reference": "urn:uuid:77e2a93e-ccfa-4603-a5dc-e8ea04b77fb2"
                },
                "encounter": {
                    "reference": "urn:uuid:da0dc95b-d1f2-4fb6-9011-b8117738920a"
                },
                "date": "2021-09-12T20:49:03+00:00",
                "source": {
                    "reference": "urn:uuid:eaad6504-18a5-456b-b1cb-c4ae88b9ada5"
                },
                "orderedBy": {
                    "coding": [
                        {
                            "system": "http://hl7.org/fhir/list-order",
                            "code": "event-date",
                            "display": "Sorted by Event Date"
                        }
                    ]
                },
                "entry": [
                    {
                        "item": {
                            "reference": "urn:uuid:21a7f821-e20d-4d8b-96b2-7a799cc289a1"
                        }
                    },
                    {
                        "item": {
                            "reference": "urn:uuid:a8dbe77e-4624-43b0-9304-19bd4259c720"
                        }
                    },
                    {
                        "item": {
                            "reference": "urn:uuid:cadcd5c0-e6c7-4a61-95bb-21589adc1794"
                        }
                    },
                    {
                        "item": {
                            "reference": "urn:uuid:3fd5ed2c-543c-4f8b-8db1-2df0baae78b3"
                        }
                    },
                    {
                        "item": {
                            "reference": "urn:uuid:9b648e04-8038-4b69-abe3-34638cffea78"
                        }
                    },
                    {
                        "item": {
                            "reference": "urn:uuid:3439c3e3-0d11-4657-a305-248b1b8a9215"
                        }
                    },
                    {
                        "item": {
                            "reference": "urn:uuid:2aada7cc-34a5-46f4-9ec4-3d624b6823d3"
                        }
                    },
                    {
                        "item": {
                            "reference": "urn:uuid:4d22751e-2539-40d4-8cf7-32a18f86f810"
                        }
                    },
                    {
                        "item": {
                            "reference": "urn:uuid:5f551f70-d639-4865-b55b-75c8c767ddd5"
                        }
                    },
                    {
                        "item": {
                            "reference": "urn:uuid:f1d37234-18ea-4e88-b315-78eced5bb955"
                        }
                    },
                    {
                        "item": {
                            "reference": "urn:uuid:977102a9-3960-4d38-b9a2-a15d94bef38b"
                        }
                    },
                    {
                        "item": {
                            "reference": "urn:uuid:e734c38b-c6b3-4913-9797-e48e2cd2684a"
                        }
                    },
                    {
                        "item": {
                            "reference": "urn:uuid:a840f946-0580-4d52-bec9-7accedd624ea"
                        }
                    },
                    {
                        "item": {
                            "reference": "urn:uuid:67838707-fb7b-47b9-9966-8bd92e2a9351"
                        }
                    },
                    {
                        "item": {
                            "reference": "urn:uuid:45ceb4a4-7425-442f-a635-eb5a0b60825b"
                        }
                    },
                    {
                        "item": {
                            "reference": "urn:uuid:727b1a43-f7d4-424b-843a-a95ee3cf3dad"
                        }
                    },
                    {
                        "item": {
                            "reference": "urn:uuid:cd6e2714-f1f6-402e-ac03-437422b3e179"
                        }
                    },
                    {
                        "item": {
                            "reference": "urn:uuid:a814af43-c1e7-4fd4-abe2-8646590c8484"
                        }
                    },
                    {
                        "item": {
                            "reference": "urn:uuid:11769992-1137-413a-8822-f8b6b52f90cd"
                        }
                    },
                    {
                        "item": {
                            "reference": "urn:uuid:062c7afe-e4f4-4dc5-9240-268ee84aa126"
                        }
                    },
                    {
                        "item": {
                            "reference": "urn:uuid:413230b5-0737-4b80-a8b6-86893514e262"
                        }
                    },
                    {
                        "item": {
                            "reference": "urn:uuid:73da4bf3-60b6-493f-b3e1-7ac2cd647bcc"
                        }
                    },
                    {
                        "item": {
                            "reference": "urn:uuid:2f266888-dabe-4c9b-a036-231a00a13c27"
                        }
                    },
                    {
                        "item": {
                            "reference": "urn:uuid:0b237952-7671-46f5-a15b-ac3fbfc4e938"
                        }
                    },
                    {
                        "item": {
                            "reference": "urn:uuid:29ea989f-9f59-4dbd-b4a4-360e58c9ab6a"
                        }
                    },
                    {
                        "item": {
                            "reference": "urn:uuid:9bb80cc2-fd2a-4d2e-bb08-ab7e531055ad"
                        }
                    },
                    {
                        "item": {
                            "reference": "urn:uuid:504c2a86-0c4c-4814-8899-ab8795b04bb0"
                        }
                    },
                    {
                        "item": {
                            "reference": "urn:uuid:a8bdfa51-1229-40a8-99c6-2441c1a77c63"
                        }
                    },
                    {
                        "item": {
                            "reference": "urn:uuid:33d35d45-018f-428d-a081-f045d8253a03"
                        }
                    },
                    {
                        "item": {
                            "reference": "urn:uuid:73124c30-e45c-4269-9411-7e2e8e7b1e72"
                        }
                    },
                    {
                        "item": {
                            "reference": "urn:uuid:0b767691-00c9-4330-8dbc-72a233bd80d7"
                        }
                    },
                    {
                        "item": {
                            "reference": "urn:uuid:59ac4c36-f08c-4332-8b0c-a085a08fbd1c"
                        }
                    },
                    {
                        "item": {
                            "reference": "urn:uuid:90b65fc0-4a8d-4f55-ab5a-767b00a5baf8"
                        }
                    },
                    {
                        "item": {
                            "reference": "urn:uuid:acd28d85-edae-485f-a90f-3b91435d5218"
                        }
                    },
                    {
                        "item": {
                            "reference": "urn:uuid:5e214776-6452-4b38-a8c4-4cfe61ba3f62"
                        }
                    },
                    {
                        "item": {
                            "reference": "urn:uuid:a5519121-082c-4a59-8fc6-851edc625950"
                        }
                    },
                    {
                        "item": {
                            "reference": "urn:uuid:3a338593-968f-4a21-a3b4-d25a8d92fcaf"
                        }
                    },
                    {
                        "item": {
                            "reference": "urn:uuid:9e2831bc-27c3-413f-9453-844a91a58432"
                        }
                    },
                    {
                        "item": {
                            "reference": "urn:uuid:9065cd54-a820-440a-a4d8-97af1c1b6ae5"
                        }
                    },
                    {
                        "item": {
                            "reference": "urn:uuid:f6a1c486-3fde-4ef3-b0ca-20c5257bd3f5"
                        }
                    },
                    {
                        "item": {
                            "reference": "urn:uuid:8c5c4fb7-1908-4bbf-9ec9-e233864967ca"
                        }
                    },
                    {
                        "item": {
                            "reference": "urn:uuid:d857c993-eb54-453b-88e4-7f362fe6a621"
                        }
                    },
                    {
                        "item": {
                            "reference": "urn:uuid:3e6a8b27-fd2d-4972-9fbd-ccadbdc6bc33"
                        }
                    },
                    {
                        "item": {
                            "reference": "urn:uuid:2a423a51-ab5a-4212-bc5c-721622dd29ab"
                        }
                    },
                    {
                        "item": {
                            "reference": "urn:uuid:ed227b0d-33d1-43a1-8bf0-301f0fa6cbce"
                        }
                    },
                    {
                        "item": {
                            "reference": "urn:uuid:2830b755-88a1-4d49-83e5-64b58803c997"
                        }
                    },
                    {
                        "item": {
                            "reference": "urn:uuid:f8bf4e36-9484-48a5-8608-ec3289e3fe15"
                        }
                    },
                    {
                        "item": {
                            "reference": "urn:uuid:08be7b2a-06b2-4edd-a598-4dd56b536c9f"
                        }
                    },
                    {
                        "item": {
                            "reference": "urn:uuid:27d43fca-b521-4d1d-a959-4c2db88cdb26"
                        }
                    },
                    {
                        "item": {
                            "reference": "urn:uuid:1263f8d2-f1e1-4dc6-ad14-378bc460985e"
                        }
                    },
                    {
                        "item": {
                            "reference": "urn:uuid:c5d0e7f9-a592-446c-bbe4-bb070ec69cb0"
                        }
                    },
                    {
                        "item": {
                            "reference": "urn:uuid:46cb03eb-b672-47e9-84c2-2d57121644d2"
                        }
                    },
                    {
                        "item": {
                            "reference": "urn:uuid:1f0cff3e-2991-40c2-a371-75d0b1b7af25"
                        }
                    },
                    {
                        "item": {
                            "reference": "urn:uuid:95800a23-b51d-4f20-a578-171b2d8fd3b2"
                        }
                    },
                    {
                        "item": {
                            "reference": "urn:uuid:555b93c5-3702-4149-9905-77e7c19bd481"
                        }
                    },
                    {
                        "item": {
                            "reference": "urn:uuid:c9e09759-ce49-4f2a-ac82-e1eb7811330d"
                        }
                    },
                    {
                        "item": {
                            "reference": "urn:uuid:150eef15-0ab3-4055-a556-2b099f3a4d23"
                        }
                    },
                    {
                        "item": {
                            "reference": "urn:uuid:54dd13f8-de92-4ee1-85dc-46b36715c451"
                        }
                    }
                ]
            }
        }
    ]
}
