{
  "resourceType": "Bundle",
  "identifier": {
    "type": {
      "text": "ClinicalDocument VersionNumber"
    },
    "value": "1"
  },
  "type": "message",
  "entry": [ {
    "fullUrl": "urn:uuid:A12F527F-3808-44BC-9272-8C8A92884A37",
    "resource": {
      "resourceType": "MessageHeader",
      "id": "A12F527F-3808-44BC-9272-8C8A92884A37",
      "event": {
        "system": "https://fhir.nhs.uk/STU3/CodeSystem/EventType-1",
        "code": "referral-1",
        "display": "Referral"
      },
      "destination": [ {
        "endpoint": "urn:nhs-uk:addressing:ods:20000729:DOSServiceID:2000072936"
      } ],
      "timestamp": "2020-10-30T18:29:05.000+00:00",
      "source": {
        "name": "NHS 111 Adaptor",
        "endpoint": "http://localhost:8080/report"
      },
      "reason": {
        "coding": [ {
          "system": "urn:nhs-itk:ns:201005:interaction",
          "code": "urn:nhs-itk:interaction:primaryNHS111RepeatCallerDocumentSet-v1-0"
        } ]
      }
    }
  }, {
    "fullUrl": "urn:uuid:659c86e8-3654-45a4-a8b9-087d6696153c",
    "resource": {
      "resourceType": "Encounter",
      "id": "659c86e8-3654-45a4-a8b9-087d6696153c",
      "identifier": [ {
        "system": "2.16.840.1.113883.2.1.3.2.4.18.34",
        "value": "CF1F65AB-2392-4582-9E14-F0384358CB6A"
      }, {
        "system": "2.16.840.1.113883.2.1.3.2.4.18.35",
        "value": "7434927"
      } ],
      "status": "finished",
      "type": [ {
        "text": "111 Encounter Referral"
      } ],
      "subject": {
        "reference": "urn:uuid:a8979744-984d-42f2-99eb-b1988ebaaff1"
      },
      "participant": [ {
        "type": [ {
          "coding": [ {
            "system": "http://hl7.org/fhir/ValueSet/encounter-participant-type",
            "code": "PPRF",
            "display": "Author"
          } ]
        } ],
        "individual": {
          "reference": "urn:uuid:f4050a88-af95-4a45-af03-615801fc83ae"
        }
      }, {
        "type": [ {
          "coding": [ {
            "system": "http://hl7.org/fhir/ValueSet/encounter-participant-type",
            "code": "ATND",
            "display": "Responsible Party"
          } ]
        } ],
        "individual": {
          "reference": "urn:uuid:13c1eb9d-ea72-4ea9-8816-b2d9fb55a52c"
        }
      } ],
      "period": {
        "start": "2020-10-30T18:29:05+00:00"
      },
      "location": [ {
        "location": {
          "reference": "urn:uuid:54129435-4b48-4a3e-8f99-d429523c0555"
        },
        "status": "active"
      }, {
        "location": {
          "reference": "urn:uuid:1197dd0b-a3fc-44fe-be29-c4d57fed3b03"
        },
        "status": "completed"
      } ],
      "serviceProvider": {
        "reference": "urn:uuid:6bdab8af-3990-4321-aa3b-011401c5e141"
      }
    }
  }, {
    "fullUrl": "urn:uuid:6bdab8af-3990-4321-aa3b-011401c5e141",
    "resource": {
      "resourceType": "Organization",
      "id": "6bdab8af-3990-4321-aa3b-011401c5e141",
      "active": true,
      "type": [ {
        "text": "CST"
      } ],
      "name": "Devon Doctors Group"
    }
  }, {
    "fullUrl": "urn:uuid:f4050a88-af95-4a45-af03-615801fc83ae",
    "resource": {
      "resourceType": "Practitioner",
      "id": "f4050a88-af95-4a45-af03-615801fc83ae",
      "active": true,
      "name": [ {
        "use": "official",
        "family": "Service Advisor",
        "given": [ "Dental" ]
      } ]
    }
  }, {
    "fullUrl": "urn:uuid:13c1eb9d-ea72-4ea9-8816-b2d9fb55a52c",
    "resource": {
      "resourceType": "Practitioner",
      "id": "13c1eb9d-ea72-4ea9-8816-b2d9fb55a52c",
      "active": true,
      "name": [ {
        "use": "official",
        "family": "Eggleton",
        "given": [ "Dr. Mark" ]
      } ]
    }
  }, {
    "fullUrl": "urn:uuid:54129435-4b48-4a3e-8f99-d429523c0555",
    "resource": {
      "resourceType": "Location",
      "id": "54129435-4b48-4a3e-8f99-d429523c0555",
      "managingOrganization": {
        "reference": "urn:uuid:f3974442-505d-4876-878d-d833c663486c"
      }
    }
  }, {
    "fullUrl": "urn:uuid:f3974442-505d-4876-878d-d833c663486c",
    "resource": {
      "resourceType": "Organization",
      "id": "f3974442-505d-4876-878d-d833c663486c",
      "identifier": [ {
        "value": "J85990"
      } ],
      "type": [ {
        "text": "GP Practice"
      } ],
      "name": "Test Somerset"
    }
  }, {
    "fullUrl": "urn:uuid:1197dd0b-a3fc-44fe-be29-c4d57fed3b03",
    "resource": {
      "resourceType": "Location",
      "id": "1197dd0b-a3fc-44fe-be29-c4d57fed3b03",
      "name": "Incident Location",
      "address": {
        "type": "physical",
        "line": [ "NHS England", "Quarry House Quarry Hill", "Leeds", "West Yorkshire" ],
        "postalCode": "LS2 7UE"
      }
    }
  }, {
    "fullUrl": "urn:uuid:a8979744-984d-42f2-99eb-b1988ebaaff1",
    "resource": {
      "resourceType": "Patient",
      "id": "a8979744-984d-42f2-99eb-b1988ebaaff1",
      "identifier": [ {
        "extension": [ {
          "url": "https://fhir.hl7.org.uk/STU3/StructureDefinition/Extension-CareConnect-NHSNumberVerificationStatus-1",
          "valueCodeableConcept": {
            "coding": [ {
              "system": "https://fhir.hl7.org.uk/STU3/StructureDefinition/Extension-CareConnect-NHSNumberVerificationStatus-1",
              "code": "02"
            } ]
          }
        } ],
        "system": "https://fhir.nhs.uk/Id/nhs-number",
        "value": "9990238359"
      } ],
      "active": true,
      "name": [ {
        "use": "official",
        "family": "Xxtestpatientdzadn",
        "given": [ "Scrdonotuse" ]
      } ],
      "telecom": [ {
        "system": "phone",
        "value": "tel:01702123456",
        "use": "home"
      }, {
        "system": "phone",
        "value": "tel:01702123456"
      } ],
      "gender": "female",
      "birthDate": "1965-02-17",
      "address": [ {
        "use": "home",
        "line": [ "NHS England", "Quarry House Quarry Hill", "Leeds", "West Yorkshire" ],
        "postalCode": "LS2 7UE"
      } ],
      "generalPractitioner": [ {
        "reference": "urn:uuid:44485307-3fb3-46b0-a5d9-945f3f4f7536"
      } ]
    }
  }, {
    "fullUrl": "urn:uuid:44485307-3fb3-46b0-a5d9-945f3f4f7536",
    "resource": {
      "resourceType": "Organization",
      "id": "44485307-3fb3-46b0-a5d9-945f3f4f7536",
      "identifier": [ {
        "value": "J85990"
      } ],
      "type": [ {
        "text": "GP Practice"
      } ],
      "name": "Test Somerset"
    }
  }, {
    "fullUrl": "urn:uuid:0c239060-2ff4-4ed9-816a-1d658ef8dc65",
    "resource": {
      "resourceType": "HealthcareService",
      "id": "0c239060-2ff4-4ed9-816a-1d658ef8dc65",
      "active": true,
      "providedBy": {
        "reference": "urn:uuid:5e6a5fc8-6252-4bc2-aa77-80c3545afa0f"
      },
      "location": [ {
        "reference": "urn:uuid:1a6f9a25-2c03-4eb3-a28c-507706973522"
      } ],
      "name": "**TESTING ONLY** DO NOT SEND PATIENTS - ED Test Service for EDDI"
    }
  }, {
    "fullUrl": "urn:uuid:1a6f9a25-2c03-4eb3-a28c-507706973522",
    "resource": {
      "resourceType": "Location",
      "id": "1a6f9a25-2c03-4eb3-a28c-507706973522",
      "managingOrganization": {
        "reference": "urn:uuid:5e6a5fc8-6252-4bc2-aa77-80c3545afa0f"
      }
    }
  }, {
    "fullUrl": "urn:uuid:5e6a5fc8-6252-4bc2-aa77-80c3545afa0f",
    "resource": {
      "resourceType": "Organization",
      "id": "5e6a5fc8-6252-4bc2-aa77-80c3545afa0f",
      "identifier": [ {
        "value": "20000729"
      } ],
      "type": [ {
        "coding": [ {
          "code": "PRCP",
          "display": "**TESTING ONLY** DO NOT SEND PATIENTS - ED Test Service for EDDI"
        } ]
      } ],
      "name": "**TESTING ONLY** DO NOT SEND PATIENTS - ED Test Service for EDDI"
    }
  }, {
    "fullUrl": "urn:uuid:b980f27a-1594-4771-a556-553ec7bd44e5",
    "resource": {
      "resourceType": "ReferralRequest",
      "id": "b980f27a-1594-4771-a556-553ec7bd44e5",
      "status": "active",
      "intent": "plan",
      "priority": "routine",
      "subject": {
        "reference": "urn:uuid:a8979744-984d-42f2-99eb-b1988ebaaff1"
      },
      "context": {
        "reference": "urn:uuid:659c86e8-3654-45a4-a8b9-087d6696153c"
      },
      "occurrencePeriod": {
        "start": "2021-09-29T10:03:15+00:00",
        "end": "2021-09-29T11:03:15+00:00"
      },
      "authoredOn": "2020-10-30T18:28:58+00:00",
      "requester": {
        "agent": {
          "reference": "urn:uuid:e77dd7ea-4918-47bb-8c53-5182ab178705"
        },
        "onBehalfOf": {
          "reference": "urn:uuid:6bdab8af-3990-4321-aa3b-011401c5e141"
        }
      },
      "recipient": [ {
        "reference": "urn:uuid:0c239060-2ff4-4ed9-816a-1d658ef8dc65"
      } ],
      "reasonReference": [ {
        "reference": "urn:uuid:558e82d9-d648-437e-a42a-967571c0999a"
      } ],
      "supportingInfo": [ {
        "reference": "urn:uuid:1013ae04-d50a-481f-b22b-2b0e116e4bb9"
      } ]
    }
  }, {
    "fullUrl": "urn:uuid:1013ae04-d50a-481f-b22b-2b0e116e4bb9",
    "resource": {
      "resourceType": "ProcedureRequest",
      "id": "1013ae04-d50a-481f-b22b-2b0e116e4bb9",
      "status": "active",
      "intent": "plan",
      "priority": "routine",
      "doNotPerform": false,
      "code": {
        "coding": [ {
          "system": "2.16.840.1.113883.2.1.3.2.4.17.325",
          "code": "Dx02",
          "display": "Attend a Treatment Centre within 1 hour"
        } ]
      },
      "subject": {
        "reference": "urn:uuid:a8979744-984d-42f2-99eb-b1988ebaaff1"
      },
      "occurrencePeriod": {
        "start": "2021-09-29T10:03:15+00:00",
        "end": "2021-09-29T11:03:15+00:00"
      },
      "reasonReference": [ {
        "reference": "urn:uuid:558e82d9-d648-437e-a42a-967571c0999a"
      } ]
    }
  }, {
    "fullUrl": "urn:uuid:2bf925c3-24d8-443a-bc75-b932f9ee08d6",
    "resource": {
      "resourceType": "Composition",
      "id": "2bf925c3-24d8-443a-bc75-b932f9ee08d6",
      "identifier": {
        "use": "usual",
        "value": "B53175B4-0A4A-4503-A6CD-94333AA01645"
      },
      "status": "final",
      "type": {
        "coding": [ {
          "system": "http://snomed.info/sct",
          "code": "371531000",
          "display": "Report of clinical encounter (record artifact)"
        } ]
      },
      "subject": {
        "reference": "urn:uuid:a8979744-984d-42f2-99eb-b1988ebaaff1"
      },
      "encounter": {
        "reference": "urn:uuid:659c86e8-3654-45a4-a8b9-087d6696153c"
      },
      "date": "2021-09-29T10:03:15+00:00",
      "author": [ {
        "reference": "urn:uuid:f4050a88-af95-4a45-af03-615801fc83ae"
      } ],
      "title": "111 Report",
      "confidentiality": "N",
      "section": [ {
        "section": [ {
          "title": "Patient's Reported Condition",
          "text": {
            "status": "generated",
            "div": "<div xmlns=\"http://www.w3.org/1999/xhtml\">TEST&lt;br/&gt;</div>"
          }
        }, {
          "title": "Pathways Disposition",
          "text": {
            "status": "generated",
            "div": "<div xmlns=\"http://www.w3.org/1999/xhtml\">Attend a Treatment Centre within 1 hour (Dx02)\n                                                    &lt;br/&gt;&lt;br/&gt;\n                                                    Selected service: **TESTING ONLY** DO NOT SEND PATIENTS - ED Test Se&lt;br/&gt;</div>"
          }
        }, {
          "title": "Consultation Summary",
          "text": {
            "status": "generated",
            "div": "<div xmlns=\"http://www.w3.org/1999/xhtml\">Illness&lt;br/&gt;Warm to touch&lt;br/&gt;Nose bleeding freely&lt;br/&gt;Nose bleeding despite first aid measures&lt;br/&gt;</div>"
          }
        }, {
          "title": "Pathways Assessment",
          "text": {
            "status": "generated",
            "div": "<div xmlns=\"http://www.w3.org/1999/xhtml\">An injury or health problem was the reason for the contact.&lt;br/&gt;Heavy bleeding had not occurred in the previous 2 hours.&lt;br/&gt;An illness or health problem was the main problem.&lt;br/&gt;User Comments: TEST&lt;br/&gt;The individual was not fighting for breath.&lt;br/&gt;The main reason for the assessment was not an allergic reaction, heart attack, chest/upper back pain, probable stroke, recent fit/seizure or suicide attempt.&lt;br/&gt;The main reason for contact was not new confusion, declared diabetic hypo/hyperglycaemia, or ICD shock.&lt;br/&gt;The skin on the torso felt normal, warm or hot.&lt;br/&gt;Pathway selected - Nosebleeds without Injury&lt;br/&gt;The individual was not feeling faint or dizzy.&lt;br/&gt;The nose was continuing to bleed.&lt;br/&gt;There was no nasal foreign body.&lt;br/&gt;Constant pressure had been applied to the soft part of the nose for at least 10 minutes.&lt;br/&gt;Instructions given were: The individual needs to attend a treatment centre within 1 hour.&lt;br/&gt;Directory of Services referral: **TESTING ONLY** DO NOT SEND PATIENTS - ED Test Service for EDDI&lt;br/&gt;Advice given:\n                                                    Worsening\n                                                    &lt;br/&gt;</div>"
          }
        }, {
          "title": "Advice Given",
          "text": {
            "status": "generated",
            "div": "<div xmlns=\"http://www.w3.org/1999/xhtml\">If there are any new symptoms, or if the condition gets worse, changes or you have any other concerns, call us back.&lt;br/&gt;&lt;br/&gt;</div>"
          }
        }, {
          "title": "Special Patient Notes",
          "text": {
            "status": "generated",
            "div": "<div xmlns=\"http://www.w3.org/1999/xhtml\">Special Notes from an external system were flagged as being present for this patient.</div>"
          }
        } ]
      }, {
        "title": "ReferralRequest",
        "entry": [ {
          "reference": "urn:uuid:b980f27a-1594-4771-a556-553ec7bd44e5"
        } ]
      }, {
        "title": "QuestionnaireResponse",
        "entry": [ {
          "reference": "urn:uuid:eff94536-db02-47ce-a422-95f9fd8fa786"
        } ]
      }, {
        "title": "QuestionnaireResponse",
        "entry": [ {
          "reference": "urn:uuid:d64abd33-928e-43b6-a53d-fa453c9fdd20"
        } ]
      }, {
        "title": "QuestionnaireResponse",
        "entry": [ {
          "reference": "urn:uuid:25fb2116-5f8d-417b-8635-6df1737391e7"
        } ]
      }, {
        "title": "QuestionnaireResponse",
        "entry": [ {
          "reference": "urn:uuid:d924b3a6-4e5a-4dcd-9017-2f8913901754"
        } ]
      }, {
        "title": "QuestionnaireResponse",
        "entry": [ {
          "reference": "urn:uuid:0e6cd0a0-01f1-4005-8c5e-9671df57f141"
        } ]
      }, {
        "title": "QuestionnaireResponse",
        "entry": [ {
          "reference": "urn:uuid:d0b29b7e-dabd-41c7-916c-0e97286e32ac"
        } ]
      }, {
        "title": "QuestionnaireResponse",
        "entry": [ {
          "reference": "urn:uuid:a58f26bb-a4c8-447a-b0e7-9c63c19c78b2"
        } ]
      }, {
        "title": "QuestionnaireResponse",
        "entry": [ {
          "reference": "urn:uuid:84da033a-d52a-4c80-8ba0-5a6b01bdca9b"
        } ]
      }, {
        "title": "QuestionnaireResponse",
        "entry": [ {
          "reference": "urn:uuid:d33824cd-0761-47e3-8baa-e470aa339126"
        } ]
      }, {
        "title": "QuestionnaireResponse",
        "entry": [ {
          "reference": "urn:uuid:12f64e6d-e609-4f2f-937a-dd597678aca1"
        } ]
      }, {
        "title": "QuestionnaireResponse",
        "entry": [ {
          "reference": "urn:uuid:9543718d-0acc-4cba-a780-83e88bcf59cc"
        } ]
      }, {
        "title": "QuestionnaireResponse",
        "entry": [ {
          "reference": "urn:uuid:4a7f67a6-3f03-441e-9175-641d63df7116"
        } ]
      }, {
        "title": "QuestionnaireResponse",
        "entry": [ {
          "reference": "urn:uuid:301ec1c1-8b4f-4fe8-870d-5fc1fb7b5af0"
        } ]
      }, {
        "title": "QuestionnaireResponse",
        "entry": [ {
          "reference": "urn:uuid:c495b3a4-f856-4234-a148-a54f2172c6df"
        } ]
      }, {
        "title": "QuestionnaireResponse",
        "entry": [ {
          "reference": "urn:uuid:51fba6a8-a9f0-47b1-8f54-396d28dac7f2"
        } ]
      }, {
        "title": "QuestionnaireResponse",
        "entry": [ {
          "reference": "urn:uuid:f659e1c2-5c63-45a3-bc6c-9973b7140536"
        } ]
      }, {
        "title": "QuestionnaireResponse",
        "entry": [ {
          "reference": "urn:uuid:1bb23e68-b125-4e56-a25d-27680ed9c165"
        } ]
      }, {
        "title": "QuestionnaireResponse",
        "entry": [ {
          "reference": "urn:uuid:9ac7a2f9-6836-4564-93e3-7f32ff87530a"
        } ]
      }, {
        "title": "QuestionnaireResponse",
        "entry": [ {
          "reference": "urn:uuid:5c7c2907-fc8e-40bd-ab97-d7d199a5b546"
        } ]
      }, {
        "title": "QuestionnaireResponse",
        "entry": [ {
          "reference": "urn:uuid:89d50a8c-31e8-4c0d-a48f-3745374ce673"
        } ]
      }, {
        "title": "QuestionnaireResponse",
        "entry": [ {
          "reference": "urn:uuid:d36dbe55-8f6e-4dc2-b784-af1de4de8c4b"
        } ]
      }, {
        "title": "QuestionnaireResponse",
        "entry": [ {
          "reference": "urn:uuid:061d3282-1cf4-4913-98b3-d24ff8330494"
        } ]
      }, {
        "title": "QuestionnaireResponse",
        "entry": [ {
          "reference": "urn:uuid:02cc8f8f-f451-4ccc-8169-7fae55fbf009"
        } ]
      } ]
    }
  }, {
    "fullUrl": "urn:uuid:0f3c975c-1e95-40d5-98cd-c3b7d997cbcb",
    "resource": {
      "resourceType": "Consent",
      "id": "0f3c975c-1e95-40d5-98cd-c3b7d997cbcb",
      "identifier": {
        "use": "usual",
        "value": "B53175B4-0A4A-4503-A6CD-94333AA01645"
      },
      "status": "active",
      "patient": {
        "reference": "urn:uuid:a8979744-984d-42f2-99eb-b1988ebaaff1"
      },
      "period": {
        "start": "2020-10-30T18:29:05+00:00"
      },
      "consentingParty": [ {
        "reference": "urn:uuid:a8979744-984d-42f2-99eb-b1988ebaaff1"
      } ],
      "action": [ {
        "coding": [ {
          "system": "http://snomed.info/sct",
          "code": "425691002",
          "display": "Consent given for electronic record sharing"
        } ],
        "text": "Consent given for electronic record sharing"
      } ],
      "organization": [ {
        "reference": "urn:uuid:6bdab8af-3990-4321-aa3b-011401c5e141"
      } ],
      "policyRule": "http://hl7.org/fhir/ConsentPolicy/opt-out",
      "data": [ {
        "meaning": "related",
        "reference": {
          "reference": "urn:uuid:659c86e8-3654-45a4-a8b9-087d6696153c"
        }
      } ]
    }
  }, {
    "fullUrl": "urn:uuid:558e82d9-d648-437e-a42a-967571c0999a",
    "resource": {
      "resourceType": "Condition",
      "id": "558e82d9-d648-437e-a42a-967571c0999a",
      "clinicalStatus": "active",
      "verificationStatus": "unknown",
      "subject": {
        "reference": "urn:uuid:a8979744-984d-42f2-99eb-b1988ebaaff1"
      },
      "context": {
        "reference": "urn:uuid:659c86e8-3654-45a4-a8b9-087d6696153c"
      },
      "evidence": [ {
        "detail": [ {
          "reference": "urn:uuid:eff94536-db02-47ce-a422-95f9fd8fa786"
        } ]
      }, {
        "detail": [ {
          "reference": "urn:uuid:d64abd33-928e-43b6-a53d-fa453c9fdd20"
        } ]
      }, {
        "detail": [ {
          "reference": "urn:uuid:25fb2116-5f8d-417b-8635-6df1737391e7"
        } ]
      }, {
        "detail": [ {
          "reference": "urn:uuid:d924b3a6-4e5a-4dcd-9017-2f8913901754"
        } ]
      }, {
        "detail": [ {
          "reference": "urn:uuid:0e6cd0a0-01f1-4005-8c5e-9671df57f141"
        } ]
      }, {
        "detail": [ {
          "reference": "urn:uuid:d0b29b7e-dabd-41c7-916c-0e97286e32ac"
        } ]
      }, {
        "detail": [ {
          "reference": "urn:uuid:a58f26bb-a4c8-447a-b0e7-9c63c19c78b2"
        } ]
      }, {
        "detail": [ {
          "reference": "urn:uuid:84da033a-d52a-4c80-8ba0-5a6b01bdca9b"
        } ]
      }, {
        "detail": [ {
          "reference": "urn:uuid:d33824cd-0761-47e3-8baa-e470aa339126"
        } ]
      }, {
        "detail": [ {
          "reference": "urn:uuid:12f64e6d-e609-4f2f-937a-dd597678aca1"
        } ]
      }, {
        "detail": [ {
          "reference": "urn:uuid:9543718d-0acc-4cba-a780-83e88bcf59cc"
        } ]
      }, {
        "detail": [ {
          "reference": "urn:uuid:4a7f67a6-3f03-441e-9175-641d63df7116"
        } ]
      }, {
        "detail": [ {
          "reference": "urn:uuid:301ec1c1-8b4f-4fe8-870d-5fc1fb7b5af0"
        } ]
      }, {
        "detail": [ {
          "reference": "urn:uuid:c495b3a4-f856-4234-a148-a54f2172c6df"
        } ]
      }, {
        "detail": [ {
          "reference": "urn:uuid:51fba6a8-a9f0-47b1-8f54-396d28dac7f2"
        } ]
      }, {
        "detail": [ {
          "reference": "urn:uuid:f659e1c2-5c63-45a3-bc6c-9973b7140536"
        } ]
      }, {
        "detail": [ {
          "reference": "urn:uuid:1bb23e68-b125-4e56-a25d-27680ed9c165"
        } ]
      }, {
        "detail": [ {
          "reference": "urn:uuid:9ac7a2f9-6836-4564-93e3-7f32ff87530a"
        } ]
      }, {
        "detail": [ {
          "reference": "urn:uuid:5c7c2907-fc8e-40bd-ab97-d7d199a5b546"
        } ]
      }, {
        "detail": [ {
          "reference": "urn:uuid:89d50a8c-31e8-4c0d-a48f-3745374ce673"
        } ]
      }, {
        "detail": [ {
          "reference": "urn:uuid:d36dbe55-8f6e-4dc2-b784-af1de4de8c4b"
        } ]
      }, {
        "detail": [ {
          "reference": "urn:uuid:061d3282-1cf4-4913-98b3-d24ff8330494"
        } ]
      }, {
        "detail": [ {
          "reference": "urn:uuid:02cc8f8f-f451-4ccc-8169-7fae55fbf009"
        } ]
      } ]
    }
  }, {
    "fullUrl": "urn:uuid:eff94536-db02-47ce-a422-95f9fd8fa786",
    "resource": {
      "resourceType": "QuestionnaireResponse",
      "id": "eff94536-db02-47ce-a422-95f9fd8fa786",
      "identifier": {
        "value": "7434927"
      },
      "questionnaire": {
        "reference": "urn:uuid:f45eceb4-8eb6-465a-ba7d-b57c42d68c0b"
      },
      "status": "completed",
      "subject": {
        "reference": "urn:uuid:a8979744-984d-42f2-99eb-b1988ebaaff1"
      },
      "context": {
        "reference": "urn:uuid:659c86e8-3654-45a4-a8b9-087d6696153c"
      },
      "authored": "2020-10-30T18:29:05+00:00",
      "item": [ {
        "linkId": "Tx220074",
        "text": "What is the reason for the contact?",
        "answer": [ {
          "valueString": "an injury or other health problem"
        } ]
      } ]
    }
  }, {
    "fullUrl": "urn:uuid:f45eceb4-8eb6-465a-ba7d-b57c42d68c0b",
    "resource": {
      "resourceType": "Questionnaire",
      "id": "f45eceb4-8eb6-465a-ba7d-b57c42d68c0b",
      "identifier": [ {
        "value": "7434927"
      } ],
      "version": "2020-10-30T18:29:05.808Z",
      "status": "active",
      "experimental": false,
      "date": "2020-10-30T18:29:05+00:00",
      "publisher": "User ID: 'RB12' User name: 'Rachel Boyer' User skill set: 'T3'",
      "lastReviewDate": "2020-10-30",
      "subjectType": [ "Patient" ],
      "item": [ {
        "linkId": "7434927",
        "prefix": "5",
        "text": "What is the reason for the contact?",
        "type": "choice",
        "required": true,
        "repeats": false,
        "option": [ {
          "valueString": "an injury or other health problem, Selected: true"
        }, {
          "valueString": "labour or childbirth, Selected: false"
        }, {
          "valueString": "a need to access another healthcare service, Selected: false"
        }, {
          "valueString": "a healthcare professional requesting contact with another clinician, Selected: false"
        }, {
          "valueString": "a report of results or tests, Selected: false"
        }, {
          "valueString": "a possible failure of contraception, Selected: false"
        }, {
          "valueString": "more, Selected: false"
        } ]
      } ]
    }
  }, {
    "fullUrl": "urn:uuid:d64abd33-928e-43b6-a53d-fa453c9fdd20",
    "resource": {
      "resourceType": "QuestionnaireResponse",
      "id": "d64abd33-928e-43b6-a53d-fa453c9fdd20",
      "identifier": {
        "value": "7434927"
      },
      "questionnaire": {
        "reference": "urn:uuid:a2a1dd4a-3a58-4aa3-969c-0a30dfb5f1b1"
      },
      "status": "completed",
      "subject": {
        "reference": "urn:uuid:a8979744-984d-42f2-99eb-b1988ebaaff1"
      },
      "context": {
        "reference": "urn:uuid:659c86e8-3654-45a4-a8b9-087d6696153c"
      },
      "authored": "2020-10-30T18:29:05+00:00",
      "item": [ {
        "linkId": "Tx221807",
        "text": "STRING:to'Immediatethreatstolife(SPA/OOHversion)'-'Majorbloodloss'stem",
        "answer": [ {
          "valueString": "\"present\""
        } ]
      } ]
    }
  }, {
    "fullUrl": "urn:uuid:a2a1dd4a-3a58-4aa3-969c-0a30dfb5f1b1",
    "resource": {
      "resourceType": "Questionnaire",
      "id": "a2a1dd4a-3a58-4aa3-969c-0a30dfb5f1b1",
      "identifier": [ {
        "value": "7434927"
      } ],
      "version": "2020-10-30T18:29:05.808Z",
      "status": "active",
      "experimental": false,
      "date": "2020-10-30T18:29:05+00:00",
      "publisher": "User ID: 'RB12' User name: 'Rachel Boyer' User skill set: 'T3'",
      "lastReviewDate": "2020-10-30",
      "subjectType": [ "Patient" ],
      "item": [ {
        "linkId": "7434927",
        "prefix": "200",
        "text": "STRING:to'Immediatethreatstolife(SPA/OOHversion)'-'Majorbloodloss'stem",
        "type": "choice",
        "required": true,
        "repeats": false,
        "option": [ {
          "valueString": "\"present\", Selected: true"
        } ]
      } ]
    }
  }, {
    "fullUrl": "urn:uuid:25fb2116-5f8d-417b-8635-6df1737391e7",
    "resource": {
      "resourceType": "QuestionnaireResponse",
      "id": "25fb2116-5f8d-417b-8635-6df1737391e7",
      "identifier": {
        "value": "7434927"
      },
      "questionnaire": {
        "reference": "urn:uuid:0a339e4e-b8e1-4a35-8fcc-d2bb7e2ac69a"
      },
      "status": "completed",
      "subject": {
        "reference": "urn:uuid:a8979744-984d-42f2-99eb-b1988ebaaff1"
      },
      "context": {
        "reference": "urn:uuid:659c86e8-3654-45a4-a8b9-087d6696153c"
      },
      "authored": "2020-10-30T18:29:05+00:00"
    }
  }, {
    "fullUrl": "urn:uuid:0a339e4e-b8e1-4a35-8fcc-d2bb7e2ac69a",
    "resource": {
      "resourceType": "Questionnaire",
      "id": "0a339e4e-b8e1-4a35-8fcc-d2bb7e2ac69a",
      "identifier": [ {
        "value": "7434927"
      } ],
      "version": "2020-10-30T18:29:05.808Z",
      "status": "active",
      "experimental": false,
      "date": "2020-10-30T18:29:05+00:00",
      "publisher": "User ID: 'RB12' User name: 'Rachel Boyer' User skill set: 'T3'",
      "lastReviewDate": "2020-10-30",
      "subjectType": [ "Patient" ]
    }
  }, {
    "fullUrl": "urn:uuid:d924b3a6-4e5a-4dcd-9017-2f8913901754",
    "resource": {
      "resourceType": "QuestionnaireResponse",
      "id": "d924b3a6-4e5a-4dcd-9017-2f8913901754",
      "identifier": {
        "value": "7434927"
      },
      "questionnaire": {
        "reference": "urn:uuid:c391dcb4-2ce6-43bc-80a8-cfc1f93d7d40"
      },
      "status": "completed",
      "subject": {
        "reference": "urn:uuid:a8979744-984d-42f2-99eb-b1988ebaaff1"
      },
      "context": {
        "reference": "urn:uuid:659c86e8-3654-45a4-a8b9-087d6696153c"
      },
      "authored": "2020-10-30T18:29:05+00:00",
      "item": [ {
        "linkId": "Tx221799",
        "text": "STRING:injury,illnessorlabourestablishedinEntryFlow",
        "answer": [ {
          "valueString": "\"present\""
        } ]
      } ]
    }
  }, {
    "fullUrl": "urn:uuid:c391dcb4-2ce6-43bc-80a8-cfc1f93d7d40",
    "resource": {
      "resourceType": "Questionnaire",
      "id": "c391dcb4-2ce6-43bc-80a8-cfc1f93d7d40",
      "identifier": [ {
        "value": "7434927"
      } ],
      "version": "2020-10-30T18:29:05.808Z",
      "status": "active",
      "experimental": false,
      "date": "2020-10-30T18:29:05+00:00",
      "publisher": "User ID: 'RB12' User name: 'Rachel Boyer' User skill set: 'T3'",
      "lastReviewDate": "2020-10-30",
      "subjectType": [ "Patient" ],
      "item": [ {
        "linkId": "7434927",
        "prefix": "0",
        "text": "STRING:injury,illnessorlabourestablishedinEntryFlow",
        "type": "choice",
        "required": true,
        "repeats": false,
        "option": [ {
          "valueString": "\"present\", Selected: true"
        } ]
      } ]
    }
  }, {
    "fullUrl": "urn:uuid:0e6cd0a0-01f1-4005-8c5e-9671df57f141",
    "resource": {
      "resourceType": "QuestionnaireResponse",
      "id": "0e6cd0a0-01f1-4005-8c5e-9671df57f141",
      "identifier": {
        "value": "7434927"
      },
      "questionnaire": {
        "reference": "urn:uuid:7520733b-1c2d-4525-a126-caeb05ed0d47"
      },
      "status": "completed",
      "subject": {
        "reference": "urn:uuid:a8979744-984d-42f2-99eb-b1988ebaaff1"
      },
      "context": {
        "reference": "urn:uuid:659c86e8-3654-45a4-a8b9-087d6696153c"
      },
      "authored": "2020-10-30T18:29:05+00:00",
      "item": [ {
        "linkId": "Tx224120",
        "text": "Have you been bleeding RED BLOOD very heavily IN THE LAST 2 HOURS?",
        "answer": [ {
          "valueString": "no"
        } ]
      } ]
    }
  }, {
    "fullUrl": "urn:uuid:7520733b-1c2d-4525-a126-caeb05ed0d47",
    "resource": {
      "resourceType": "Questionnaire",
      "id": "7520733b-1c2d-4525-a126-caeb05ed0d47",
      "identifier": [ {
        "value": "7434927"
      } ],
      "version": "2020-10-30T18:29:05.808Z",
      "status": "active",
      "experimental": false,
      "date": "2020-10-30T18:29:05+00:00",
      "publisher": "User ID: 'RB12' User name: 'Rachel Boyer' User skill set: 'T3'",
      "lastReviewDate": "2020-10-30",
      "subjectType": [ "Patient" ],
      "item": [ {
        "linkId": "7434927",
        "prefix": "10100",
        "text": "Have you been bleeding RED BLOOD very heavily IN THE LAST 2 HOURS?",
        "type": "choice",
        "required": true,
        "repeats": false,
        "option": [ {
          "valueString": "yes, Selected: false"
        }, {
          "valueString": "not sure, Selected: false"
        }, {
          "valueString": "no, Selected: true"
        } ]
      } ]
    }
  }, {
    "fullUrl": "urn:uuid:d0b29b7e-dabd-41c7-916c-0e97286e32ac",
    "resource": {
      "resourceType": "QuestionnaireResponse",
      "id": "d0b29b7e-dabd-41c7-916c-0e97286e32ac",
      "identifier": {
        "value": "7434927"
      },
      "questionnaire": {
        "reference": "urn:uuid:2e264db5-dbcd-4fe8-88ff-8cb43bd08959"
      },
      "status": "completed",
      "subject": {
        "reference": "urn:uuid:a8979744-984d-42f2-99eb-b1988ebaaff1"
      },
      "context": {
        "reference": "urn:uuid:659c86e8-3654-45a4-a8b9-087d6696153c"
      },
      "authored": "2020-10-30T18:29:05+00:00",
      "item": [ {
        "linkId": "Tx221343",
        "text": "SocialConcernsExcluded",
        "answer": [ {
          "valueString": "==\"present\""
        } ]
      } ]
    }
  }, {
    "fullUrl": "urn:uuid:2e264db5-dbcd-4fe8-88ff-8cb43bd08959",
    "resource": {
      "resourceType": "Questionnaire",
      "id": "2e264db5-dbcd-4fe8-88ff-8cb43bd08959",
      "identifier": [ {
        "value": "7434927"
      } ],
      "version": "2020-10-30T18:29:05.808Z",
      "status": "active",
      "experimental": false,
      "date": "2020-10-30T18:29:05+00:00",
      "publisher": "User ID: 'RB12' User name: 'Rachel Boyer' User skill set: 'T3'",
      "lastReviewDate": "2020-10-30",
      "subjectType": [ "Patient" ],
      "item": [ {
        "linkId": "7434927",
        "prefix": "1100",
        "text": "SocialConcernsExcluded",
        "type": "choice",
        "required": true,
        "repeats": false,
        "option": [ {
          "valueString": "==\"present\", Selected: true"
        }, {
          "valueString": "*, Selected: false"
        } ]
      } ]
    }
  }, {
    "fullUrl": "urn:uuid:a58f26bb-a4c8-447a-b0e7-9c63c19c78b2",
    "resource": {
      "resourceType": "QuestionnaireResponse",
      "id": "a58f26bb-a4c8-447a-b0e7-9c63c19c78b2",
      "identifier": {
        "value": "7434927"
      },
      "questionnaire": {
        "reference": "urn:uuid:fd23d64c-4671-4e80-884c-6bca971a6f58"
      },
      "status": "completed",
      "subject": {
        "reference": "urn:uuid:a8979744-984d-42f2-99eb-b1988ebaaff1"
      },
      "context": {
        "reference": "urn:uuid:659c86e8-3654-45a4-a8b9-087d6696153c"
      },
      "authored": "2020-10-30T18:29:05+00:00",
      "item": [ {
        "linkId": "Tx130011",
        "text": "What is the main problem?",
        "answer": [ {
          "valueString": "illness or other health problem (specify)"
        } ]
      } ]
    }
  }, {
    "fullUrl": "urn:uuid:fd23d64c-4671-4e80-884c-6bca971a6f58",
    "resource": {
      "resourceType": "Questionnaire",
      "id": "fd23d64c-4671-4e80-884c-6bca971a6f58",
      "identifier": [ {
        "value": "7434927"
      } ],
      "version": "2020-10-30T18:29:05.808Z",
      "status": "active",
      "experimental": false,
      "date": "2020-10-30T18:29:05+00:00",
      "publisher": "User ID: 'RB12' User name: 'Rachel Boyer' User skill set: 'T3'",
      "lastReviewDate": "2020-10-30",
      "subjectType": [ "Patient" ],
      "item": [ {
        "linkId": "7434927",
        "prefix": "2300",
        "text": "What is the main problem?",
        "type": "choice",
        "required": true,
        "repeats": false,
        "option": [ {
          "valueString": "the individual has been told to follow a particular course of action (specify), Selected: false"
        }, {
          "valueString": "the individual is an identified frequent caller, Selected: false"
        }, {
          "valueString": "injury (specify), Selected: false"
        }, {
          "valueString": "illness or other health problem (specify), Selected: true"
        }, {
          "valueString": "child protection/vulnerable adult concern, Selected: false"
        }, {
          "valueString": "social or domestic emergency, Selected: false"
        }, {
          "valueString": "the environment potentially poses an immediate threat to life (specify), Selected: false"
        } ]
      } ]
    }
  }, {
    "fullUrl": "urn:uuid:84da033a-d52a-4c80-8ba0-5a6b01bdca9b",
    "resource": {
      "resourceType": "QuestionnaireResponse",
      "id": "84da033a-d52a-4c80-8ba0-5a6b01bdca9b",
      "identifier": {
        "value": "7434927"
      },
      "questionnaire": {
        "reference": "urn:uuid:8f5665e2-b408-407e-85fc-9d49ba99bcf5"
      },
      "status": "completed",
      "subject": {
        "reference": "urn:uuid:a8979744-984d-42f2-99eb-b1988ebaaff1"
      },
      "context": {
        "reference": "urn:uuid:659c86e8-3654-45a4-a8b9-087d6696153c"
      },
      "authored": "2020-10-30T18:29:05+00:00"
    }
  }, {
    "fullUrl": "urn:uuid:8f5665e2-b408-407e-85fc-9d49ba99bcf5",
    "resource": {
      "resourceType": "Questionnaire",
      "id": "8f5665e2-b408-407e-85fc-9d49ba99bcf5",
      "identifier": [ {
        "value": "7434927"
      } ],
      "version": "2020-10-30T18:29:05.808Z",
      "status": "active",
      "experimental": false,
      "date": "2020-10-30T18:29:05+00:00",
      "publisher": "User ID: 'RB12' User name: 'Rachel Boyer' User skill set: 'T3'",
      "lastReviewDate": "2020-10-30",
      "subjectType": [ "Patient" ]
    }
  }, {
    "fullUrl": "urn:uuid:d33824cd-0761-47e3-8baa-e470aa339126",
    "resource": {
      "resourceType": "QuestionnaireResponse",
      "id": "d33824cd-0761-47e3-8baa-e470aa339126",
      "identifier": {
        "value": "7434927"
      },
      "questionnaire": {
        "reference": "urn:uuid:ea14babb-2fca-4a66-8f73-6700553127d0"
      },
      "status": "completed",
      "subject": {
        "reference": "urn:uuid:a8979744-984d-42f2-99eb-b1988ebaaff1"
      },
      "context": {
        "reference": "urn:uuid:659c86e8-3654-45a4-a8b9-087d6696153c"
      },
      "authored": "2020-10-30T18:29:05+00:00",
      "item": [ {
        "linkId": "Tx61025",
        "text": "Are you so breathless that speaking more than a few words is impossible?",
        "answer": [ {
          "valueString": "no"
        } ]
      } ]
    }
  }, {
    "fullUrl": "urn:uuid:ea14babb-2fca-4a66-8f73-6700553127d0",
    "resource": {
      "resourceType": "Questionnaire",
      "id": "ea14babb-2fca-4a66-8f73-6700553127d0",
      "identifier": [ {
        "value": "7434927"
      } ],
      "version": "2020-10-30T18:29:05.808Z",
      "status": "active",
      "experimental": false,
      "date": "2020-10-30T18:29:05+00:00",
      "publisher": "User ID: 'RB12' User name: 'Rachel Boyer' User skill set: 'T3'",
      "lastReviewDate": "2020-10-30",
      "subjectType": [ "Patient" ],
      "item": [ {
        "linkId": "7434927",
        "prefix": "0",
        "text": "Are you so breathless that speaking more than a few words is impossible?",
        "type": "choice",
        "required": true,
        "repeats": false,
        "option": [ {
          "valueString": "yes, Selected: false"
        }, {
          "valueString": "not sure, Selected: false"
        }, {
          "valueString": "no, Selected: true"
        } ]
      } ]
    }
  }, {
    "fullUrl": "urn:uuid:12f64e6d-e609-4f2f-937a-dd597678aca1",
    "resource": {
      "resourceType": "QuestionnaireResponse",
      "id": "12f64e6d-e609-4f2f-937a-dd597678aca1",
      "identifier": {
        "value": "7434927"
      },
      "questionnaire": {
        "reference": "urn:uuid:dabaddcc-235b-4647-b17a-283576858c6f"
      },
      "status": "completed",
      "subject": {
        "reference": "urn:uuid:a8979744-984d-42f2-99eb-b1988ebaaff1"
      },
      "context": {
        "reference": "urn:uuid:659c86e8-3654-45a4-a8b9-087d6696153c"
      },
      "authored": "2020-10-30T18:29:05+00:00",
      "item": [ {
        "linkId": "Tx220845",
        "text": "SYSTEM_FLUPANDEMIC",
        "answer": [ {
          "valueString": "==\"pandemic\""
        } ]
      } ]
    }
  }, {
    "fullUrl": "urn:uuid:dabaddcc-235b-4647-b17a-283576858c6f",
    "resource": {
      "resourceType": "Questionnaire",
      "id": "dabaddcc-235b-4647-b17a-283576858c6f",
      "identifier": [ {
        "value": "7434927"
      } ],
      "version": "2020-10-30T18:29:05.808Z",
      "status": "active",
      "experimental": false,
      "date": "2020-10-30T18:29:05+00:00",
      "publisher": "User ID: 'RB12' User name: 'Rachel Boyer' User skill set: 'T3'",
      "lastReviewDate": "2020-10-30",
      "subjectType": [ "Patient" ],
      "item": [ {
        "linkId": "7434927",
        "prefix": "100",
        "text": "SYSTEM_FLUPANDEMIC",
        "type": "choice",
        "required": true,
        "repeats": false,
        "option": [ {
          "valueString": "==\"pandemic\", Selected: true"
        }, {
          "valueString": "*, Selected: false"
        } ]
      } ]
    }
  }, {
    "fullUrl": "urn:uuid:9543718d-0acc-4cba-a780-83e88bcf59cc",
    "resource": {
      "resourceType": "QuestionnaireResponse",
      "id": "9543718d-0acc-4cba-a780-83e88bcf59cc",
      "identifier": {
        "value": "7434927"
      },
      "questionnaire": {
        "reference": "urn:uuid:444930ed-4d06-437a-98ee-0d2029ef593a"
      },
      "status": "completed",
      "subject": {
        "reference": "urn:uuid:a8979744-984d-42f2-99eb-b1988ebaaff1"
      },
      "context": {
        "reference": "urn:uuid:659c86e8-3654-45a4-a8b9-087d6696153c"
      },
      "authored": "2020-10-30T18:29:05+00:00",
      "item": [ {
        "linkId": "Tx223440",
        "text": "WHAT IS SAID TO BE THE MAIN REASON FOR THIS CONTACT?",
        "answer": [ {
          "valueString": "more"
        } ]
      } ]
    }
  }, {
    "fullUrl": "urn:uuid:444930ed-4d06-437a-98ee-0d2029ef593a",
    "resource": {
      "resourceType": "Questionnaire",
      "id": "444930ed-4d06-437a-98ee-0d2029ef593a",
      "identifier": [ {
        "value": "7434927"
      } ],
      "version": "2020-10-30T18:29:05.808Z",
      "status": "active",
      "experimental": false,
      "date": "2020-10-30T18:29:05+00:00",
      "publisher": "User ID: 'RB12' User name: 'Rachel Boyer' User skill set: 'T3'",
      "lastReviewDate": "2020-10-30",
      "subjectType": [ "Patient" ],
      "item": [ {
        "linkId": "7434927",
        "prefix": "5200",
        "text": "WHAT IS SAID TO BE THE MAIN REASON FOR THIS CONTACT?",
        "type": "choice",
        "required": true,
        "repeats": false,
        "option": [ {
          "valueString": "a probable allergic reaction now, Selected: false"
        }, {
          "valueString": "a probable heart attack, Selected: false"
        }, {
          "valueString": "chest or upper back pain, Selected: false"
        }, {
          "valueString": "a probable stroke or mini-stroke, Selected: false"
        }, {
          "valueString": "a probable fit or seizure within the last 12 hours, Selected: false"
        }, {
          "valueString": "a suicide attempt, Selected: false"
        }, {
          "valueString": "more, Selected: true"
        } ]
      } ]
    }
  }, {
    "fullUrl": "urn:uuid:4a7f67a6-3f03-441e-9175-641d63df7116",
    "resource": {
      "resourceType": "QuestionnaireResponse",
      "id": "4a7f67a6-3f03-441e-9175-641d63df7116",
      "identifier": {
        "value": "7434927"
      },
      "questionnaire": {
        "reference": "urn:uuid:e954fa3e-da75-43e7-9700-87bddac25c50"
      },
      "status": "completed",
      "subject": {
        "reference": "urn:uuid:a8979744-984d-42f2-99eb-b1988ebaaff1"
      },
      "context": {
        "reference": "urn:uuid:659c86e8-3654-45a4-a8b9-087d6696153c"
      },
      "authored": "2020-10-30T18:29:05+00:00",
      "item": [ {
        "linkId": "Tx220032",
        "text": "WHAT IS SAID TO BE THE MAIN REASON FOR THIS CONTACT?",
        "answer": [ {
          "valueString": "none of the above"
        } ]
      } ]
    }
  }, {
    "fullUrl": "urn:uuid:e954fa3e-da75-43e7-9700-87bddac25c50",
    "resource": {
      "resourceType": "Questionnaire",
      "id": "e954fa3e-da75-43e7-9700-87bddac25c50",
      "identifier": [ {
        "value": "7434927"
      } ],
      "version": "2020-10-30T18:29:05.808Z",
      "status": "active",
      "experimental": false,
      "date": "2020-10-30T18:29:05+00:00",
      "publisher": "User ID: 'RB12' User name: 'Rachel Boyer' User skill set: 'T3'",
      "lastReviewDate": "2020-10-30",
      "subjectType": [ "Patient" ],
      "item": [ {
        "linkId": "7434927",
        "prefix": "2200",
        "text": "WHAT IS SAID TO BE THE MAIN REASON FOR THIS CONTACT?",
        "type": "choice",
        "required": true,
        "repeats": false,
        "option": [ {
          "valueString": "new confusion now, Selected: false"
        }, {
          "valueString": "a diabetic hypo (low blood sugar) or a diabetic hyper (high blood sugar), Selected: false"
        }, {
          "valueString": "recovery from an ICD (implanted cardioverter defibrillator) shock, Selected: false"
        }, {
          "valueString": "none of the above, Selected: true"
        } ]
      } ]
    }
  }, {
    "fullUrl": "urn:uuid:301ec1c1-8b4f-4fe8-870d-5fc1fb7b5af0",
    "resource": {
      "resourceType": "QuestionnaireResponse",
      "id": "301ec1c1-8b4f-4fe8-870d-5fc1fb7b5af0",
      "identifier": {
        "value": "7434927"
      },
      "questionnaire": {
        "reference": "urn:uuid:21bcdf3c-324e-4317-9525-ed99288a8d27"
      },
      "status": "completed",
      "subject": {
        "reference": "urn:uuid:a8979744-984d-42f2-99eb-b1988ebaaff1"
      },
      "context": {
        "reference": "urn:uuid:659c86e8-3654-45a4-a8b9-087d6696153c"
      },
      "authored": "2020-10-30T18:29:05+00:00",
      "item": [ {
        "linkId": "Tx223142",
        "text": "Does the skin on the chest, back or abdomen feel a normal temperature?",
        "answer": [ {
          "valueString": "yes - normal, warm or hot"
        } ]
      } ]
    }
  }, {
    "fullUrl": "urn:uuid:21bcdf3c-324e-4317-9525-ed99288a8d27",
    "resource": {
      "resourceType": "Questionnaire",
      "id": "21bcdf3c-324e-4317-9525-ed99288a8d27",
      "identifier": [ {
        "value": "7434927"
      } ],
      "version": "2020-10-30T18:29:05.808Z",
      "status": "active",
      "experimental": false,
      "date": "2020-10-30T18:29:05+00:00",
      "publisher": "User ID: 'RB12' User name: 'Rachel Boyer' User skill set: 'T3'",
      "lastReviewDate": "2020-10-30",
      "subjectType": [ "Patient" ],
      "item": [ {
        "linkId": "7434927",
        "prefix": "4200",
        "text": "Does the skin on the chest, back or abdomen feel a normal temperature?",
        "type": "choice",
        "required": true,
        "repeats": false,
        "option": [ {
          "valueString": "yes - normal, warm or hot, Selected: true"
        }, {
          "valueString": "not sure, Selected: false"
        }, {
          "valueString": "no - cool OR cold, Selected: false"
        }, {
          "valueString": "not safe to touch, Selected: false"
        } ]
      } ]
    }
  }, {
    "fullUrl": "urn:uuid:c495b3a4-f856-4234-a148-a54f2172c6df",
    "resource": {
      "resourceType": "QuestionnaireResponse",
      "id": "c495b3a4-f856-4234-a148-a54f2172c6df",
      "identifier": {
        "value": "7434927"
      },
      "questionnaire": {
        "reference": "urn:uuid:d4a52824-acaa-4a1e-994e-dcbc70243378"
      },
      "status": "completed",
      "subject": {
        "reference": "urn:uuid:a8979744-984d-42f2-99eb-b1988ebaaff1"
      },
      "context": {
        "reference": "urn:uuid:659c86e8-3654-45a4-a8b9-087d6696153c"
      },
      "authored": "2020-10-30T18:29:05+00:00",
      "item": [ {
        "linkId": "Tx221724",
        "text": "STRING:ShockAsked",
        "answer": [ {
          "valueString": "\"present\""
        } ]
      } ]
    }
  }, {
    "fullUrl": "urn:uuid:d4a52824-acaa-4a1e-994e-dcbc70243378",
    "resource": {
      "resourceType": "Questionnaire",
      "id": "d4a52824-acaa-4a1e-994e-dcbc70243378",
      "identifier": [ {
        "value": "7434927"
      } ],
      "version": "2020-10-30T18:29:05.808Z",
      "status": "active",
      "experimental": false,
      "date": "2020-10-30T18:29:05+00:00",
      "publisher": "User ID: 'RB12' User name: 'Rachel Boyer' User skill set: 'T3'",
      "lastReviewDate": "2020-10-30",
      "subjectType": [ "Patient" ],
      "item": [ {
        "linkId": "7434927",
        "prefix": "3700",
        "text": "STRING:ShockAsked",
        "type": "choice",
        "required": true,
        "repeats": false,
        "option": [ {
          "valueString": "\"present\", Selected: true"
        } ]
      } ]
    }
  }, {
    "fullUrl": "urn:uuid:51fba6a8-a9f0-47b1-8f54-396d28dac7f2",
    "resource": {
      "resourceType": "QuestionnaireResponse",
      "id": "51fba6a8-a9f0-47b1-8f54-396d28dac7f2",
      "identifier": {
        "value": "7434927"
      },
      "questionnaire": {
        "reference": "urn:uuid:a52fb895-57ea-49fe-b948-90386658d6ea"
      },
      "status": "completed",
      "subject": {
        "reference": "urn:uuid:a8979744-984d-42f2-99eb-b1988ebaaff1"
      },
      "context": {
        "reference": "urn:uuid:659c86e8-3654-45a4-a8b9-087d6696153c"
      },
      "authored": "2020-10-30T18:29:05+00:00"
    }
  }, {
    "fullUrl": "urn:uuid:a52fb895-57ea-49fe-b948-90386658d6ea",
    "resource": {
      "resourceType": "Questionnaire",
      "id": "a52fb895-57ea-49fe-b948-90386658d6ea",
      "identifier": [ {
        "value": "7434927"
      } ],
      "version": "2020-10-30T18:29:05.808Z",
      "status": "active",
      "experimental": false,
      "date": "2020-10-30T18:29:05+00:00",
      "publisher": "User ID: 'RB12' User name: 'Rachel Boyer' User skill set: 'T3'",
      "lastReviewDate": "2020-10-30",
      "subjectType": [ "Patient" ]
    }
  }, {
    "fullUrl": "urn:uuid:f659e1c2-5c63-45a3-bc6c-9973b7140536",
    "resource": {
      "resourceType": "QuestionnaireResponse",
      "id": "f659e1c2-5c63-45a3-bc6c-9973b7140536",
      "identifier": {
        "value": "7434927"
      },
      "questionnaire": {
        "reference": "urn:uuid:a76f9356-5642-4c05-9f07-ca6aca636f3a"
      },
      "status": "completed",
      "subject": {
        "reference": "urn:uuid:a8979744-984d-42f2-99eb-b1988ebaaff1"
      },
      "context": {
        "reference": "urn:uuid:659c86e8-3654-45a4-a8b9-087d6696153c"
      },
      "authored": "2020-10-30T18:29:05+00:00",
      "item": [ {
        "linkId": "Tx42307",
        "text": "Are you feeling faint or dizzy?",
        "answer": [ {
          "valueString": "no"
        } ]
      } ]
    }
  }, {
    "fullUrl": "urn:uuid:a76f9356-5642-4c05-9f07-ca6aca636f3a",
    "resource": {
      "resourceType": "Questionnaire",
      "id": "a76f9356-5642-4c05-9f07-ca6aca636f3a",
      "identifier": [ {
        "value": "7434927"
      } ],
      "version": "2020-10-30T18:29:05.808Z",
      "status": "active",
      "experimental": false,
      "date": "2020-10-30T18:29:05+00:00",
      "publisher": "User ID: 'RB12' User name: 'Rachel Boyer' User skill set: 'T3'",
      "lastReviewDate": "2020-10-30",
      "subjectType": [ "Patient" ],
      "item": [ {
        "linkId": "7434927",
        "prefix": "0",
        "text": "Are you feeling faint or dizzy?",
        "type": "choice",
        "required": true,
        "repeats": false,
        "option": [ {
          "valueString": "yes, Selected: false"
        }, {
          "valueString": "not sure, Selected: false"
        }, {
          "valueString": "no, Selected: true"
        } ]
      } ]
    }
  }, {
    "fullUrl": "urn:uuid:1bb23e68-b125-4e56-a25d-27680ed9c165",
    "resource": {
      "resourceType": "QuestionnaireResponse",
      "id": "1bb23e68-b125-4e56-a25d-27680ed9c165",
      "identifier": {
        "value": "7434927"
      },
      "questionnaire": {
        "reference": "urn:uuid:b29a2b81-63fa-4c89-9db0-43b174534df6"
      },
      "status": "completed",
      "subject": {
        "reference": "urn:uuid:a8979744-984d-42f2-99eb-b1988ebaaff1"
      },
      "context": {
        "reference": "urn:uuid:659c86e8-3654-45a4-a8b9-087d6696153c"
      },
      "authored": "2020-10-30T18:29:05+00:00",
      "item": [ {
        "linkId": "Tx1260",
        "text": "Is the nose still bleeding?",
        "answer": [ {
          "valueString": "yes"
        } ]
      } ]
    }
  }, {
    "fullUrl": "urn:uuid:b29a2b81-63fa-4c89-9db0-43b174534df6",
    "resource": {
      "resourceType": "Questionnaire",
      "id": "b29a2b81-63fa-4c89-9db0-43b174534df6",
      "identifier": [ {
        "value": "7434927"
      } ],
      "version": "2020-10-30T18:29:05.808Z",
      "status": "active",
      "experimental": false,
      "date": "2020-10-30T18:29:05+00:00",
      "publisher": "User ID: 'RB12' User name: 'Rachel Boyer' User skill set: 'T3'",
      "lastReviewDate": "2020-10-30",
      "subjectType": [ "Patient" ],
      "item": [ {
        "linkId": "7434927",
        "prefix": "100",
        "text": "Is the nose still bleeding?",
        "type": "choice",
        "required": true,
        "repeats": false,
        "option": [ {
          "valueString": "yes, Selected: true"
        }, {
          "valueString": "not sure, Selected: false"
        }, {
          "valueString": "no, Selected: false"
        } ]
      } ]
    }
  }, {
    "fullUrl": "urn:uuid:9ac7a2f9-6836-4564-93e3-7f32ff87530a",
    "resource": {
      "resourceType": "QuestionnaireResponse",
      "id": "9ac7a2f9-6836-4564-93e3-7f32ff87530a",
      "identifier": {
        "value": "7434927"
      },
      "questionnaire": {
        "reference": "urn:uuid:7a74b753-d7ff-4bf5-b324-fb60f1624647"
      },
      "status": "completed",
      "subject": {
        "reference": "urn:uuid:a8979744-984d-42f2-99eb-b1988ebaaff1"
      },
      "context": {
        "reference": "urn:uuid:659c86e8-3654-45a4-a8b9-087d6696153c"
      },
      "authored": "2020-10-30T18:29:05+00:00",
      "item": [ {
        "linkId": "Tx1258",
        "text": "Is anything stuck up the nose?",
        "answer": [ {
          "valueString": "no"
        } ]
      } ]
    }
  }, {
    "fullUrl": "urn:uuid:7a74b753-d7ff-4bf5-b324-fb60f1624647",
    "resource": {
      "resourceType": "Questionnaire",
      "id": "7a74b753-d7ff-4bf5-b324-fb60f1624647",
      "identifier": [ {
        "value": "7434927"
      } ],
      "version": "2020-10-30T18:29:05.808Z",
      "status": "active",
      "experimental": false,
      "date": "2020-10-30T18:29:05+00:00",
      "publisher": "User ID: 'RB12' User name: 'Rachel Boyer' User skill set: 'T3'",
      "lastReviewDate": "2020-10-30",
      "subjectType": [ "Patient" ],
      "item": [ {
        "linkId": "7434927",
        "prefix": "300",
        "text": "Is anything stuck up the nose?",
        "type": "choice",
        "required": true,
        "repeats": false,
        "option": [ {
          "valueString": "yes, Selected: false"
        }, {
          "valueString": "not sure, Selected: false"
        }, {
          "valueString": "no, Selected: true"
        } ]
      } ]
    }
  }, {
    "fullUrl": "urn:uuid:5c7c2907-fc8e-40bd-ab97-d7d199a5b546",
    "resource": {
      "resourceType": "QuestionnaireResponse",
      "id": "5c7c2907-fc8e-40bd-ab97-d7d199a5b546",
      "identifier": {
        "value": "7434927"
      },
      "questionnaire": {
        "reference": "urn:uuid:19a7d343-e87d-448b-8447-cac65097e20c"
      },
      "status": "completed",
      "subject": {
        "reference": "urn:uuid:a8979744-984d-42f2-99eb-b1988ebaaff1"
      },
      "context": {
        "reference": "urn:uuid:659c86e8-3654-45a4-a8b9-087d6696153c"
      },
      "authored": "2020-10-30T18:29:05+00:00",
      "item": [ {
        "linkId": "Tx1259",
        "text": "Have you pinched the soft part of the nose for AT LEAST 10 MINUTES without a break?",
        "answer": [ {
          "valueString": "yes"
        } ]
      } ]
    }
  }, {
    "fullUrl": "urn:uuid:19a7d343-e87d-448b-8447-cac65097e20c",
    "resource": {
      "resourceType": "Questionnaire",
      "id": "19a7d343-e87d-448b-8447-cac65097e20c",
      "identifier": [ {
        "value": "7434927"
      } ],
      "version": "2020-10-30T18:29:05.808Z",
      "status": "active",
      "experimental": false,
      "date": "2020-10-30T18:29:05+00:00",
      "publisher": "User ID: 'RB12' User name: 'Rachel Boyer' User skill set: 'T3'",
      "lastReviewDate": "2020-10-30",
      "subjectType": [ "Patient" ],
      "item": [ {
        "linkId": "7434927",
        "prefix": "1500",
        "text": "Have you pinched the soft part of the nose for AT LEAST 10 MINUTES without a break?",
        "type": "choice",
        "required": true,
        "repeats": false,
        "option": [ {
          "valueString": "yes, Selected: true"
        }, {
          "valueString": "not sure, Selected: false"
        }, {
          "valueString": "no, Selected: false"
        } ]
      } ]
    }
  }, {
    "fullUrl": "urn:uuid:89d50a8c-31e8-4c0d-a48f-3745374ce673",
    "resource": {
      "resourceType": "QuestionnaireResponse",
      "id": "89d50a8c-31e8-4c0d-a48f-3745374ce673",
      "identifier": {
        "value": "7434927"
      },
      "questionnaire": {
        "reference": "urn:uuid:38f4e900-acd4-4d1b-b65b-ad92f10091dd"
      },
      "status": "completed",
      "subject": {
        "reference": "urn:uuid:a8979744-984d-42f2-99eb-b1988ebaaff1"
      },
      "context": {
        "reference": "urn:uuid:659c86e8-3654-45a4-a8b9-087d6696153c"
      },
      "authored": "2020-10-30T18:29:05+00:00",
      "item": [ {
        "linkId": "Tx221512",
        "text": "STRING:SDEDFullEDassessmentandmanagementcapability",
        "answer": [ {
          "valueString": "\"ED full ED assessment and management capability\""
        } ]
      } ]
    }
  }, {
    "fullUrl": "urn:uuid:38f4e900-acd4-4d1b-b65b-ad92f10091dd",
    "resource": {
      "resourceType": "Questionnaire",
      "id": "38f4e900-acd4-4d1b-b65b-ad92f10091dd",
      "identifier": [ {
        "value": "7434927"
      } ],
      "version": "2020-10-30T18:29:05.808Z",
      "status": "active",
      "experimental": false,
      "date": "2020-10-30T18:29:05+00:00",
      "publisher": "User ID: 'RB12' User name: 'Rachel Boyer' User skill set: 'T3'",
      "lastReviewDate": "2020-10-30",
      "subjectType": [ "Patient" ],
      "item": [ {
        "linkId": "7434927",
        "prefix": "1700",
        "text": "STRING:SDEDFullEDassessmentandmanagementcapability",
        "type": "choice",
        "required": true,
        "repeats": false,
        "option": [ {
          "valueString": "\"ED full ED assessment and management capability\", Selected: true"
        } ]
      } ]
    }
  }, {
    "fullUrl": "urn:uuid:d36dbe55-8f6e-4dc2-b784-af1de4de8c4b",
    "resource": {
      "resourceType": "QuestionnaireResponse",
      "id": "d36dbe55-8f6e-4dc2-b784-af1de4de8c4b",
      "identifier": {
        "value": "7434927"
      },
      "questionnaire": {
        "reference": "urn:uuid:c10cabd8-634c-4c32-a47f-ff50e4b64d06"
      },
      "status": "completed",
      "subject": {
        "reference": "urn:uuid:a8979744-984d-42f2-99eb-b1988ebaaff1"
      },
      "context": {
        "reference": "urn:uuid:659c86e8-3654-45a4-a8b9-087d6696153c"
      },
      "authored": "2020-10-30T18:29:05+00:00"
    }
  }, {
    "fullUrl": "urn:uuid:c10cabd8-634c-4c32-a47f-ff50e4b64d06",
    "resource": {
      "resourceType": "Questionnaire",
      "id": "c10cabd8-634c-4c32-a47f-ff50e4b64d06",
      "identifier": [ {
        "value": "7434927"
      } ],
      "version": "2020-10-30T18:29:05.808Z",
      "status": "active",
      "experimental": false,
      "date": "2020-10-30T18:29:05+00:00",
      "publisher": "User ID: 'RB12' User name: 'Rachel Boyer' User skill set: 'T3'",
      "lastReviewDate": "2020-10-30",
      "subjectType": [ "Patient" ]
    }
  }, {
    "fullUrl": "urn:uuid:061d3282-1cf4-4913-98b3-d24ff8330494",
    "resource": {
      "resourceType": "QuestionnaireResponse",
      "id": "061d3282-1cf4-4913-98b3-d24ff8330494",
      "identifier": {
        "value": "7434927"
      },
      "questionnaire": {
        "reference": "urn:uuid:29e789a9-c918-43ce-9b2b-11fe7f4ec13f"
      },
      "status": "completed",
      "subject": {
        "reference": "urn:uuid:a8979744-984d-42f2-99eb-b1988ebaaff1"
      },
      "context": {
        "reference": "urn:uuid:659c86e8-3654-45a4-a8b9-087d6696153c"
      },
      "authored": "2020-10-30T18:29:05+00:00"
    }
  }, {
    "fullUrl": "urn:uuid:29e789a9-c918-43ce-9b2b-11fe7f4ec13f",
    "resource": {
      "resourceType": "Questionnaire",
      "id": "29e789a9-c918-43ce-9b2b-11fe7f4ec13f",
      "identifier": [ {
        "value": "7434927"
      } ],
      "version": "2020-10-30T18:29:05.808Z",
      "status": "active",
      "experimental": false,
      "date": "2020-10-30T18:29:05+00:00",
      "publisher": "User ID: 'RB12' User name: 'Rachel Boyer' User skill set: 'T3'",
      "lastReviewDate": "2020-10-30",
      "subjectType": [ "Patient" ]
    }
  }, {
    "fullUrl": "urn:uuid:02cc8f8f-f451-4ccc-8169-7fae55fbf009",
    "resource": {
      "resourceType": "QuestionnaireResponse",
      "id": "02cc8f8f-f451-4ccc-8169-7fae55fbf009",
      "identifier": {
        "value": "7434927"
      },
      "questionnaire": {
        "reference": "urn:uuid:323f2049-9786-439c-a67a-944f950a5f2b"
      },
      "status": "completed",
      "subject": {
        "reference": "urn:uuid:a8979744-984d-42f2-99eb-b1988ebaaff1"
      },
      "context": {
        "reference": "urn:uuid:659c86e8-3654-45a4-a8b9-087d6696153c"
      },
      "authored": "2020-10-30T18:29:05+00:00"
    }
  }, {
    "fullUrl": "urn:uuid:323f2049-9786-439c-a67a-944f950a5f2b",
    "resource": {
      "resourceType": "Questionnaire",
      "id": "323f2049-9786-439c-a67a-944f950a5f2b",
      "identifier": [ {
        "value": "7434927"
      } ],
      "version": "2020-10-30T18:29:05.808Z",
      "status": "active",
      "experimental": false,
      "date": "2020-10-30T18:29:05+00:00",
      "publisher": "User ID: 'RB12' User name: 'Rachel Boyer' User skill set: 'T3'",
      "lastReviewDate": "2020-10-30",
      "subjectType": [ "Patient" ]
    }
  }, {
    "fullUrl": "urn:uuid:4346eefd-4686-4de7-a21c-c98229342d3a",
    "resource": {
      "resourceType": "Observation",
      "id": "4346eefd-4686-4de7-a21c-c98229342d3a",
      "status": "final",
      "code": {
        "coding": [ {
          "system": "http://snomed.info/sct",
          "code": "33962009",
          "display": "Presenting complaint"
        } ]
      },
      "subject": {
        "reference": "urn:uuid:a8979744-984d-42f2-99eb-b1988ebaaff1"
      },
      "context": {
        "reference": "urn:uuid:659c86e8-3654-45a4-a8b9-087d6696153c"
      }
    }
  }, {
    "fullUrl": "urn:uuid:3ba9d59d-c3d8-4858-bed2-60e91013cc16",
    "resource": {
      "resourceType": "PractitionerRole",
      "id": "3ba9d59d-c3d8-4858-bed2-60e91013cc16",
      "practitioner": {
        "reference": "urn:uuid:f4050a88-af95-4a45-af03-615801fc83ae"
      },
      "organization": {
        "reference": "urn:uuid:740d56d1-e3fb-4652-81b3-d2ba539ece07"
      },
      "code": [ {
        "coding": [ {
          "system": "2.16.840.1.113883.2.1.3.2.4.17.339",
          "code": "OTHER",
          "display": "Assessed by"
        } ]
      } ]
    }
  }, {
    "fullUrl": "urn:uuid:740d56d1-e3fb-4652-81b3-d2ba539ece07",
    "resource": {
      "resourceType": "Organization",
      "id": "740d56d1-e3fb-4652-81b3-d2ba539ece07",
      "identifier": [ {
        "value": "Y00397"
      } ],
      "name": "Devon 111 (Devon Doctors Group)"
    }
  }, {
    "fullUrl": "urn:uuid:86858fc4-d5f7-44e3-bb53-cb1def1c3879",
    "resource": {
      "resourceType": "PractitionerRole",
      "id": "86858fc4-d5f7-44e3-bb53-cb1def1c3879",
      "practitioner": {
        "reference": "urn:uuid:13c1eb9d-ea72-4ea9-8816-b2d9fb55a52c"
      },
      "organization": {
        "reference": "urn:uuid:86d26029-db5a-4976-b8ae-dda0962dd184"
      },
      "code": [ {
        "coding": [ {
          "system": "2.16.840.1.113883.2.1.3.2.4.17.196",
          "code": "R0010",
          "display": "Medical Director"
        } ]
      } ]
    }
  }, {
    "fullUrl": "urn:uuid:86d26029-db5a-4976-b8ae-dda0962dd184",
    "resource": {
      "resourceType": "Organization",
      "id": "86d26029-db5a-4976-b8ae-dda0962dd184",
      "identifier": [ {
        "value": "Y00397"
      } ],
      "name": "Devon Doctors Group"
    }
  }, {
    "fullUrl": "urn:uuid:b7b9c11d-f100-4ce5-8047-d2a32d91d628",
    "resource": {
      "resourceType": "RelatedPerson",
      "id": "b7b9c11d-f100-4ce5-8047-d2a32d91d628",
      "patient": {
        "reference": "urn:uuid:a8979744-984d-42f2-99eb-b1988ebaaff1"
      },
      "relationship": {
        "coding": [ {
          "system": "http://hl7.org/fhir/v2/0131",
          "code": "C",
          "display": "Emergency Contact"
        } ]
      },
      "telecom": [ {
        "system": "phone",
        "value": "tel:01702123456"
      } ]
    }
  }, {
    "fullUrl": "urn:uuid:e77dd7ea-4918-47bb-8c53-5182ab178705",
    "resource": {
      "resourceType": "Device",
      "id": "e77dd7ea-4918-47bb-8c53-5182ab178705",
      "model": "111 Adaptor",
      "version": "0.9.0"
    }
  }, {
    "fullUrl": "urn:uuid:c1fe0538-32d0-49c9-bdb7-3084258a4946",
    "resource": {
      "resourceType": "List",
      "id": "c1fe0538-32d0-49c9-bdb7-3084258a4946",
      "status": "current",
      "mode": "working",
      "title": "111 Report List",
      "code": {
        "coding": [ {
          "system": "http://snomed.info/sct",
          "code": "225390008",
          "display": "Triage"
        } ]
      },
      "subject": {
        "reference": "urn:uuid:a8979744-984d-42f2-99eb-b1988ebaaff1"
      },
      "encounter": {
        "reference": "urn:uuid:659c86e8-3654-45a4-a8b9-087d6696153c"
      },
      "date": "2021-09-29T10:03:15+00:00",
      "source": {
        "reference": "urn:uuid:e77dd7ea-4918-47bb-8c53-5182ab178705"
      },
      "orderedBy": {
        "coding": [ {
          "system": "http://hl7.org/fhir/list-order",
          "code": "event-date",
          "display": "Sorted by Event Date"
        } ]
      },
      "entry": [ {
        "item": {
          "reference": "urn:uuid:86d26029-db5a-4976-b8ae-dda0962dd184"
        }
      }, {
        "item": {
          "reference": "urn:uuid:f3974442-505d-4876-878d-d833c663486c"
        }
      }, {
        "item": {
          "reference": "urn:uuid:740d56d1-e3fb-4652-81b3-d2ba539ece07"
        }
      }, {
        "item": {
          "reference": "urn:uuid:13c1eb9d-ea72-4ea9-8816-b2d9fb55a52c"
        }
      }, {
        "item": {
          "reference": "urn:uuid:5e6a5fc8-6252-4bc2-aa77-80c3545afa0f"
        }
      }, {
        "item": {
          "reference": "urn:uuid:6bdab8af-3990-4321-aa3b-011401c5e141"
        }
      }, {
        "item": {
          "reference": "urn:uuid:4346eefd-4686-4de7-a21c-c98229342d3a"
        }
      }, {
        "item": {
          "reference": "urn:uuid:f4050a88-af95-4a45-af03-615801fc83ae"
        }
      }, {
        "item": {
          "reference": "urn:uuid:558e82d9-d648-437e-a42a-967571c0999a"
        }
      }, {
        "item": {
          "reference": "urn:uuid:44485307-3fb3-46b0-a5d9-945f3f4f7536"
        }
      }, {
        "item": {
          "reference": "urn:uuid:b7b9c11d-f100-4ce5-8047-d2a32d91d628"
        }
      }, {
        "item": {
          "reference": "urn:uuid:0a339e4e-b8e1-4a35-8fcc-d2bb7e2ac69a"
        }
      }, {
        "item": {
          "reference": "urn:uuid:8f5665e2-b408-407e-85fc-9d49ba99bcf5"
        }
      }, {
        "item": {
          "reference": "urn:uuid:323f2049-9786-439c-a67a-944f950a5f2b"
        }
      }, {
        "item": {
          "reference": "urn:uuid:d0b29b7e-dabd-41c7-916c-0e97286e32ac"
        }
      }, {
        "item": {
          "reference": "urn:uuid:1bb23e68-b125-4e56-a25d-27680ed9c165"
        }
      }, {
        "item": {
          "reference": "urn:uuid:444930ed-4d06-437a-98ee-0d2029ef593a"
        }
      }, {
        "item": {
          "reference": "urn:uuid:d924b3a6-4e5a-4dcd-9017-2f8913901754"
        }
      }, {
        "item": {
          "reference": "urn:uuid:a52fb895-57ea-49fe-b948-90386658d6ea"
        }
      }, {
        "item": {
          "reference": "urn:uuid:c10cabd8-634c-4c32-a47f-ff50e4b64d06"
        }
      }, {
        "item": {
          "reference": "urn:uuid:f45eceb4-8eb6-465a-ba7d-b57c42d68c0b"
        }
      }, {
        "item": {
          "reference": "urn:uuid:12f64e6d-e609-4f2f-937a-dd597678aca1"
        }
      }, {
        "item": {
          "reference": "urn:uuid:9543718d-0acc-4cba-a780-83e88bcf59cc"
        }
      }, {
        "item": {
          "reference": "urn:uuid:fd23d64c-4671-4e80-884c-6bca971a6f58"
        }
      }, {
        "item": {
          "reference": "urn:uuid:7a74b753-d7ff-4bf5-b324-fb60f1624647"
        }
      }, {
        "item": {
          "reference": "urn:uuid:7520733b-1c2d-4525-a126-caeb05ed0d47"
        }
      }, {
        "item": {
          "reference": "urn:uuid:dabaddcc-235b-4647-b17a-283576858c6f"
        }
      }, {
        "item": {
          "reference": "urn:uuid:d64abd33-928e-43b6-a53d-fa453c9fdd20"
        }
      }, {
        "item": {
          "reference": "urn:uuid:a76f9356-5642-4c05-9f07-ca6aca636f3a"
        }
      }, {
        "item": {
          "reference": "urn:uuid:061d3282-1cf4-4913-98b3-d24ff8330494"
        }
      }, {
        "item": {
          "reference": "urn:uuid:5c7c2907-fc8e-40bd-ab97-d7d199a5b546"
        }
      }, {
        "item": {
          "reference": "urn:uuid:eff94536-db02-47ce-a422-95f9fd8fa786"
        }
      }, {
        "item": {
          "reference": "urn:uuid:b29a2b81-63fa-4c89-9db0-43b174534df6"
        }
      }, {
        "item": {
          "reference": "urn:uuid:19a7d343-e87d-448b-8447-cac65097e20c"
        }
      }, {
        "item": {
          "reference": "urn:uuid:e954fa3e-da75-43e7-9700-87bddac25c50"
        }
      }, {
        "item": {
          "reference": "urn:uuid:301ec1c1-8b4f-4fe8-870d-5fc1fb7b5af0"
        }
      }, {
        "item": {
          "reference": "urn:uuid:51fba6a8-a9f0-47b1-8f54-396d28dac7f2"
        }
      }, {
        "item": {
          "reference": "urn:uuid:84da033a-d52a-4c80-8ba0-5a6b01bdca9b"
        }
      }, {
        "item": {
          "reference": "urn:uuid:02cc8f8f-f451-4ccc-8169-7fae55fbf009"
        }
      }, {
        "item": {
          "reference": "urn:uuid:ea14babb-2fca-4a66-8f73-6700553127d0"
        }
      }, {
        "item": {
          "reference": "urn:uuid:f659e1c2-5c63-45a3-bc6c-9973b7140536"
        }
      }, {
        "item": {
          "reference": "urn:uuid:2e264db5-dbcd-4fe8-88ff-8cb43bd08959"
        }
      }, {
        "item": {
          "reference": "urn:uuid:d33824cd-0761-47e3-8baa-e470aa339126"
        }
      }, {
        "item": {
          "reference": "urn:uuid:c495b3a4-f856-4234-a148-a54f2172c6df"
        }
      }, {
        "item": {
          "reference": "urn:uuid:25fb2116-5f8d-417b-8635-6df1737391e7"
        }
      }, {
        "item": {
          "reference": "urn:uuid:c391dcb4-2ce6-43bc-80a8-cfc1f93d7d40"
        }
      }, {
        "item": {
          "reference": "urn:uuid:d36dbe55-8f6e-4dc2-b784-af1de4de8c4b"
        }
      }, {
        "item": {
          "reference": "urn:uuid:89d50a8c-31e8-4c0d-a48f-3745374ce673"
        }
      }, {
        "item": {
          "reference": "urn:uuid:0e6cd0a0-01f1-4005-8c5e-9671df57f141"
        }
      }, {
        "item": {
          "reference": "urn:uuid:a58f26bb-a4c8-447a-b0e7-9c63c19c78b2"
        }
      }, {
        "item": {
          "reference": "urn:uuid:38f4e900-acd4-4d1b-b65b-ad92f10091dd"
        }
      }, {
        "item": {
          "reference": "urn:uuid:a2a1dd4a-3a58-4aa3-969c-0a30dfb5f1b1"
        }
      }, {
        "item": {
          "reference": "urn:uuid:4a7f67a6-3f03-441e-9175-641d63df7116"
        }
      }, {
        "item": {
          "reference": "urn:uuid:9ac7a2f9-6836-4564-93e3-7f32ff87530a"
        }
      }, {
        "item": {
          "reference": "urn:uuid:29e789a9-c918-43ce-9b2b-11fe7f4ec13f"
        }
      }, {
        "item": {
          "reference": "urn:uuid:21bcdf3c-324e-4317-9525-ed99288a8d27"
        }
      }, {
        "item": {
          "reference": "urn:uuid:d4a52824-acaa-4a1e-994e-dcbc70243378"
        }
      }, {
        "item": {
          "reference": "urn:uuid:b980f27a-1594-4771-a556-553ec7bd44e5"
        }
      } ]
    }
  } ]
}