{
    "resourceType": "Bundle",
    "identifier": {
        "type": {
            "text": "ClinicalDocument VersionNumber"
        },
        "value": "1"
    },
    "type": "message",
    "entry": [
        {
            "fullUrl": "urn:uuid:05040617-33BA-4344-AA59-281CF2FE63CA",
            "resource": {
                "resourceType": "MessageHeader",
                "id": "05040617-33BA-4344-AA59-281CF2FE63CA",
                "event": {
                    "system": "https://fhir.nhs.uk/STU3/CodeSystem/EventType-1",
                    "code": "referral-1",
                    "display": "Referral"
                },
                "destination": [
                    {
                        "endpoint": "urn:nhs-uk:addressing:ods:FHR04RPX:DOSServiceID:2000038667"
                    }
                ],
                "timestamp": "2021-04-06T15:19:34.000+00:00",
                "source": {
                    "name": "NHS 111 Adaptor",
                    "endpoint": "http://localhost:8080/report"
                },
                "reason": {
                    "coding": [
                        {
                            "system": "urn:nhs-itk:ns:201005:interaction",
                            "code": "urn:nhs-itk:interaction:primaryOutofHourRecipientNHS111CDADocument-v2-0"
                        }
                    ]
                }
            }
        },
        {
            "fullUrl": "urn:uuid:2fc97e38-f297-4849-8e32-9e5e09cd2be0",
            "resource": {
                "resourceType": "Encounter",
                "id": "2fc97e38-f297-4849-8e32-9e5e09cd2be0",
                "identifier": [
                    {
                        "system": "2.16.840.1.113883.2.1.3.2.4.18.34",
                        "value": "AdastraCaseGUID34"
                    },
                    {
                        "system": "2.16.840.1.113883.2.1.3.2.4.18.35",
                        "value": "AdastraCaseID35"
                    },
                    {
                        "system": "2.16.840.1.113883.2.1.3.2.4.18.49",
                        "value": "AdastraCaseGUID49"
                    }
                ],
                "status": "finished",
                "type": [
                    {
                        "text": "111 Encounter Referral"
                    }
                ],
                "subject": {
                    "reference": "urn:uuid:25df9db5-b317-48f1-9f96-77971f2596a0"
                },
                "participant": [
                    {
                        "type": [
                            {
                                "coding": [
                                    {
                                        "system": "http://hl7.org/fhir/ValueSet/encounter-participant-type",
                                        "code": "PPRF",
                                        "display": "Author"
                                    }
                                ]
                            }
                        ],
                        "individual": {
                            "reference": "urn:uuid:cb4a4f67-940d-449a-bba1-3e62fcabe6a4"
                        }
                    },
                    {
                        "type": [
                            {
                                "text": "Informant"
                            }
                        ],
                        "individual": {
                            "reference": "urn:uuid:4069938d-ccc5-4529-a534-c730fac74b1c"
                        }
                    },
                    {
                        "type": [
                            {
                                "coding": [
                                    {
                                        "system": "http://hl7.org/fhir/ValueSet/encounter-participant-type",
                                        "code": "ATND",
                                        "display": "Responsible Party"
                                    }
                                ]
                            }
                        ],
                        "individual": {
                            "reference": "urn:uuid:3ed223d5-4e34-4be1-9c9a-aaaa58f57a39"
                        }
                    }
                ],
                "period": {
                    "start": "2021-04-06T15:19:34+00:00"
                },
                "location": [
                    {
                        "location": {
                            "reference": "urn:uuid:86e46fe3-df19-4ae7-9620-c5fbcfd14cd4"
                        },
                        "status": "completed"
                    }
                ],
                "serviceProvider": {
                    "reference": "urn:uuid:873f0f1f-20ac-4741-8c4e-ccf1ca1aae0c"
                }
            }
        },
        {
            "fullUrl": "urn:uuid:873f0f1f-20ac-4741-8c4e-ccf1ca1aae0c",
            "resource": {
                "resourceType": "Organization",
                "id": "873f0f1f-20ac-4741-8c4e-ccf1ca1aae0c",
                "active": true,
                "type": [
                    {
                        "text": "CST"
                    }
                ],
                "name": "CustodianName"
            }
        },
        {
            "fullUrl": "urn:uuid:cb4a4f67-940d-449a-bba1-3e62fcabe6a4",
            "resource": {
                "resourceType": "Practitioner",
                "id": "cb4a4f67-940d-449a-bba1-3e62fcabe6a4",
                "active": true,
                "name": [
                    {
                        "use": "official",
                        "family": "AuthorAssignedPerson FamilyName",
                        "given": [
                            "AuthorAssignedPerson GivenName"
                        ]
                    }
                ]
            }
        },
        {
            "fullUrl": "urn:uuid:4069938d-ccc5-4529-a534-c730fac74b1c",
            "resource": {
                "resourceType": "RelatedPerson",
                "id": "4069938d-ccc5-4529-a534-c730fac74b1c",
                "active": true,
                "patient": {
                    "reference": "urn:uuid:25df9db5-b317-48f1-9f96-77971f2596a0"
                },
                "relationship": {
                    "coding": [
                        {
                            "system": "2.16.840.1.113883.2.1.3.2.4.16.45",
                            "code": "16",
                            "display": "Relative"
                        }
                    ]
                },
                "name": [
                    {
                        "text": "RelatedPerson Name"
                    }
                ],
                "telecom": [
                    {
                        "system": "phone",
                        "value": "tel:01111111111",
                        "use": "home"
                    }
                ],
                "gender": "unknown"
            }
        },
        {
            "fullUrl": "urn:uuid:3ed223d5-4e34-4be1-9c9a-aaaa58f57a39",
            "resource": {
                "resourceType": "Practitioner",
                "id": "3ed223d5-4e34-4be1-9c9a-aaaa58f57a39",
                "active": true,
                "name": [
                    {
                        "use": "official",
                        "family": "ResponsablePartyMD FamilyName",
                        "given": [
                            "ResponsablePartyMD GivenName"
                        ]
                    }
                ]
            }
        },
        {
            "fullUrl": "urn:uuid:86e46fe3-df19-4ae7-9620-c5fbcfd14cd4",
            "resource": {
                "resourceType": "Location",
                "id": "86e46fe3-df19-4ae7-9620-c5fbcfd14cd4",
                "name": "Incident Location",
                "address": {
                    "type": "physical",
                    "line": [
                        "HealthCareFacility AddressLine1",
                        "HealthCareFacility AddressLine2",
                        "HealthCareFacility AddressLine3",
                        "HealthCareFacility AddressLine4",
                        "HealthCareFacility AddressLine5"
                    ],
                    "postalCode": "LOH25 4NS"
                }
            }
        },
        {
            "fullUrl": "urn:uuid:25df9db5-b317-48f1-9f96-77971f2596a0",
            "resource": {
                "resourceType": "Patient",
                "id": "25df9db5-b317-48f1-9f96-77971f2596a0",
                "active": true,
                "name": [
                    {
                        "use": "official",
                        "family": "Patient Family Name",
                        "given": [
                            "Patient Given Name"
                        ]
                    }
                ],
                "telecom": [
                    {
                        "system": "phone",
                        "value": "tel:000000000000",
                        "use": "home"
                    },
                    {
                        "system": "phone",
                        "value": "tel:000000000000"
                    }
                ],
                "gender": "other",
                "birthDate": "1990-02-02",
                "address": [
                    {
                        "use": "home",
                        "line": [
                            "Home Address Line 1",
                            "Home Address Line 2",
                            "Home Address Line 3",
                            "Home Address Line 4",
                            "Home Address Line 5"
                        ],
                        "postalCode": "HA25 4NS"
                    },
                    {
                        "type": "physical",
                        "line": [
                            "Home Address Line 1",
                            "Home Address Line 2",
                            "Home Address Line 3",
                            "Home Address Line 4",
                            "Home Address Line 5"
                        ],
                        "postalCode": "PH25 4NS"
                    }
                ]
            }
        },
        {
            "fullUrl": "urn:uuid:ed66c264-40d7-488f-8d3e-44e1e9120156",
            "resource": {
                "resourceType": "HealthcareService",
                "id": "ed66c264-40d7-488f-8d3e-44e1e9120156",
                "active": true,
                "providedBy": {
                    "reference": "urn:uuid:a7318896-e45c-4259-9efb-ec0517fdd885"
                },
                "location": [
                    {
                        "reference": "urn:uuid:2f2ce527-c71e-44d7-908b-4674272a02f2"
                    }
                ],
                "name": "InformationRecipient IntendedRecipient Name FHR0"
            }
        },
        {
            "fullUrl": "urn:uuid:2f2ce527-c71e-44d7-908b-4674272a02f2",
            "resource": {
                "resourceType": "Location",
                "id": "2f2ce527-c71e-44d7-908b-4674272a02f2",
                "managingOrganization": {
                    "reference": "urn:uuid:a7318896-e45c-4259-9efb-ec0517fdd885"
                }
            }
        },
        {
            "fullUrl": "urn:uuid:a7318896-e45c-4259-9efb-ec0517fdd885",
            "resource": {
                "resourceType": "Organization",
                "id": "a7318896-e45c-4259-9efb-ec0517fdd885",
                "identifier": [
                    {
                        "value": "FHR04RPX"
                    }
                ],
                "type": [
                    {
                        "coding": [
                            {
                                "code": "PRCP",
                                "display": "InformationRecipient IntendedRecipient Name FHR0"
                            }
                        ]
                    }
                ],
                "name": "InformationRecipient IntendedRecipient Name FHR0"
            }
        },
        {
            "fullUrl": "urn:uuid:ab4e9ff0-92a1-4c9a-8c85-dd04f08a1fbb",
            "resource": {
                "resourceType": "ReferralRequest",
                "id": "ab4e9ff0-92a1-4c9a-8c85-dd04f08a1fbb",
                "status": "active",
                "intent": "plan",
                "priority": "routine",
                "subject": {
                    "reference": "urn:uuid:25df9db5-b317-48f1-9f96-77971f2596a0"
                },
                "context": {
                    "reference": "urn:uuid:2fc97e38-f297-4849-8e32-9e5e09cd2be0"
                },
                "occurrencePeriod": {
                    "start": "2021-09-12T20:48:27+00:00",
                    "end": "2021-09-12T21:48:27+00:00"
                },
                "authoredOn": "2021-04-06T15:19:29+00:00",
                "requester": {
                    "agent": {
                        "reference": "urn:uuid:c2f27bb6-6f2e-4929-899e-803f0e3e9e2c"
                    },
                    "onBehalfOf": {
                        "reference": "urn:uuid:873f0f1f-20ac-4741-8c4e-ccf1ca1aae0c"
                    }
                },
                "recipient": [
                    {
                        "reference": "urn:uuid:ed66c264-40d7-488f-8d3e-44e1e9120156"
                    }
                ],
                "reasonReference": [
                    {
                        "reference": "urn:uuid:b51e1e70-019c-4a5d-bf4d-7e0a6fffc17f"
                    }
                ],
                "supportingInfo": [
                    {
                        "reference": "urn:uuid:5ad60bf7-7861-44c1-9e8f-af9978fb1aa8"
                    }
                ]
            }
        },
        {
            "fullUrl": "urn:uuid:5ad60bf7-7861-44c1-9e8f-af9978fb1aa8",
            "resource": {
                "resourceType": "ProcedureRequest",
                "id": "5ad60bf7-7861-44c1-9e8f-af9978fb1aa8",
                "status": "active",
                "intent": "plan",
                "priority": "routine",
                "doNotPerform": false,
                "code": {
                    "coding": [
                        {
                            "system": "2.16.840.1.113883.2.1.3.2.4.17.325",
                            "code": "DispoCodeDx87",
                            "display": "DispoName - Repeat Prescription required within 24 hours"
                        }
                    ]
                },
                "subject": {
                    "reference": "urn:uuid:25df9db5-b317-48f1-9f96-77971f2596a0"
                },
                "occurrencePeriod": {
                    "start": "2021-09-12T20:48:27+00:00",
                    "end": "2021-09-12T21:48:27+00:00"
                },
                "reasonReference": [
                    {
                        "reference": "urn:uuid:b51e1e70-019c-4a5d-bf4d-7e0a6fffc17f"
                    }
                ]
            }
        },
        {
            "fullUrl": "urn:uuid:18aa2abf-8dd6-4c06-a4d2-91ff82d87428",
            "resource": {
                "resourceType": "Composition",
                "id": "18aa2abf-8dd6-4c06-a4d2-91ff82d87428",
                "identifier": {
                    "use": "usual",
                    "value": "E2DF04F7-95CA-40AD-808D-797C0A89E39C"
                },
                "status": "final",
                "type": {
                    "coding": [
                        {
                            "system": "http://snomed.info/sct",
                            "code": "371531000",
                            "display": "Report of clinical encounter (record artifact)"
                        }
                    ]
                },
                "subject": {
                    "reference": "urn:uuid:25df9db5-b317-48f1-9f96-77971f2596a0"
                },
                "encounter": {
                    "reference": "urn:uuid:2fc97e38-f297-4849-8e32-9e5e09cd2be0"
                },
                "date": "2021-09-12T20:48:27+00:00",
                "author": [
                    {
                        "reference": "urn:uuid:cb4a4f67-940d-449a-bba1-3e62fcabe6a4"
                    }
                ],
                "title": "111 Report",
                "confidentiality": "N",
                "section": [
                    {
                        "section": [
                            {
                                "title": "ComponentTitle - Patient's Reported Condition",
                                "text": {
                                    "status": "generated",
                                    "div": "<div xmlns=\"http://www.w3.org/1999/xhtml\">&lt;xml-fragment xmlns:npfitlc=&quot;NPFIT:HL7:Localisation&quot; xmlns:xsi=&quot;http://www.w3.org/2001/XMLSchema-instance&quot;&gt;\n                                                    &lt;urn:content xmlns:urn=&quot;urn:hl7-org:v3&quot;&gt;ComponentText - Pharmacy ITK Testing&lt;/urn:content&gt;\n                                                    &lt;urn:br xmlns:urn=&quot;urn:hl7-org:v3&quot;/&gt;\n                                                &lt;/xml-fragment&gt;</div>"
                                }
                            },
                            {
                                "title": "ComponentTitle - Pathways Disposition",
                                "text": {
                                    "status": "generated",
                                    "div": "<div xmlns=\"http://www.w3.org/1999/xhtml\">&lt;xml-fragment xmlns:xsi=&quot;http://www.w3.org/2001/XMLSchema-instance&quot;&gt;ComponentText - Repeat Prescription required within 24 hours (Dx87)                                         &lt;urn:br xmlns:urn=&quot;urn:hl7-org:v3&quot;/&gt;\n                                                    &lt;urn:br xmlns:urn=&quot;urn:hl7-org:v3&quot;/&gt;                                         Selected service: Springvale, Fraser Road, Kings Worthy, Winchester&lt;urn:br xmlns:urn=&quot;urn:hl7-org:v3&quot;/&gt;\n                                                &lt;/xml-fragment&gt;</div>"
                                }
                            },
                            {
                                "title": "ComponentTitle - Consultation Summary",
                                "text": {
                                    "status": "generated",
                                    "div": "<div xmlns=\"http://www.w3.org/1999/xhtml\">&lt;xml-fragment xmlns:xsi=&quot;http://www.w3.org/2001/XMLSchema-instance&quot;&gt;ComponentText - Prescription request&lt;urn:br xmlns:urn=&quot;urn:hl7-org:v3&quot;/&gt;Not enough medication until surgery opens&lt;urn:br xmlns:urn=&quot;urn:hl7-org:v3&quot;/&gt;No medication available&lt;urn:br xmlns:urn=&quot;urn:hl7-org:v3&quot;/&gt;Next dose due in over 12 hours time&lt;urn:br xmlns:urn=&quot;urn:hl7-org:v3&quot;/&gt;\n                                                &lt;/xml-fragment&gt;</div>"
                                }
                            },
                            {
                                "title": "ComponentTitle - Pathways Assessment",
                                "text": {
                                    "status": "generated",
                                    "div": "<div xmlns=\"http://www.w3.org/1999/xhtml\">&lt;xml-fragment xmlns:xsi=&quot;http://www.w3.org/2001/XMLSchema-instance&quot;&gt;ComponentText - Reason for call menu - continued to next list.&lt;urn:br xmlns:urn=&quot;urn:hl7-org:v3&quot;/&gt;A prescription request was the main reason for the contact.&lt;urn:br xmlns:urn=&quot;urn:hl7-org:v3&quot;/&gt;The main reason for the contact was not a new or worsening illness.&lt;urn:br xmlns:urn=&quot;urn:hl7-org:v3&quot;/&gt;The individual did not have enough medication to last until the surgery next opened.&lt;urn:br xmlns:urn=&quot;urn:hl7-org:v3&quot;/&gt;The medication was suitable for repeat prescribing without further consultation.&lt;urn:br xmlns:urn=&quot;urn:hl7-org:v3&quot;/&gt;The individual had no medication available.&lt;urn:br xmlns:urn=&quot;urn:hl7-org:v3&quot;/&gt;The next dose was due in over 12 hours time.&lt;urn:br xmlns:urn=&quot;urn:hl7-org:v3&quot;/&gt;Instructions given were: The individual needs a repeat prescription.&lt;urn:br xmlns:urn=&quot;urn:hl7-org:v3&quot;/&gt;Directory of Services referral: Springvale, Fraser Road, Kings Worthy, Winchester&lt;urn:br xmlns:urn=&quot;urn:hl7-org:v3&quot;/&gt;\n                                                &lt;/xml-fragment&gt;</div>"
                                }
                            },
                            {
                                "title": "ComponentTitle - Advice Given",
                                "text": {
                                    "status": "generated",
                                    "div": "<div xmlns=\"http://www.w3.org/1999/xhtml\">&lt;xml-fragment xmlns:xsi=&quot;http://www.w3.org/2001/XMLSchema-instance&quot;&gt;ComponentText - I will arrange for a clinician or pharmacist to speak to the individual.&lt;urn:br xmlns:urn=&quot;urn:hl7-org:v3&quot;/&gt;IF THE RECOMMENDED TIMEFRAME FALLS OUTSIDE OPENING HOURS: I will arrange for a clinician to speak to the individual.&lt;urn:br xmlns:urn=&quot;urn:hl7-org:v3&quot;/&gt;\n                                                    &lt;urn:br xmlns:urn=&quot;urn:hl7-org:v3&quot;/&gt;\n                                                &lt;/xml-fragment&gt;</div>"
                                }
                            },
                            {
                                "title": "ComponentTitle - Information And Advice Given",
                                "text": {
                                    "status": "generated",
                                    "div": "<div xmlns=\"http://www.w3.org/1999/xhtml\">&lt;xml-fragment xmlns:npfitlc=&quot;NPFIT:HL7:Localisation&quot; xmlns:xsi=&quot;http://www.w3.org/2001/XMLSchema-instance&quot;/&gt;</div>"
                                }
                            },
                            {
                                "title": "ComponentTitle - Disposition",
                                "text": {
                                    "status": "generated",
                                    "div": "<div xmlns=\"http://www.w3.org/1999/xhtml\">&lt;xml-fragment xmlns:npfitlc=&quot;NPFIT:HL7:Localisation&quot; xmlns:xsi=&quot;http://www.w3.org/2001/XMLSchema-instance&quot;&gt;\n                                                    &lt;urn:content xmlns:urn=&quot;urn:hl7-org:v3&quot;&gt;ComponentText - Repeat Prescription required within 24 hours&lt;urn:br/&gt;\n                                                    &lt;/urn:content&gt;\n                                                    &lt;urn:br xmlns:urn=&quot;urn:hl7-org:v3&quot;/&gt;\n                                                    &lt;urn:br xmlns:urn=&quot;urn:hl7-org:v3&quot;/&gt;\n                                                &lt;/xml-fragment&gt;</div>"
                                }
                            }
                        ]
                    },
                    {
                        "title": "CarePlan",
                        "entry": [
                            {
                                "reference": "urn:uuid:09ef5faf-c41f-437b-b3ad-285f0a621199"
                            }
                        ]
                    },
                    {
                        "title": "ReferralRequest",
                        "entry": [
                            {
                                "reference": "urn:uuid:ab4e9ff0-92a1-4c9a-8c85-dd04f08a1fbb"
                            }
                        ]
                    },
                    {
                        "title": "QuestionnaireResponse",
                        "entry": [
                            {
                                "reference": "urn:uuid:6098ed17-b4c9-4891-854f-395cbe530168"
                            }
                        ]
                    },
                    {
                        "title": "QuestionnaireResponse",
                        "entry": [
                            {
                                "reference": "urn:uuid:4af6ec31-18c8-435e-82e4-95eea42d6f73"
                            }
                        ]
                    },
                    {
                        "title": "QuestionnaireResponse",
                        "entry": [
                            {
                                "reference": "urn:uuid:fa692faf-6d70-4cc3-b406-654dfd9b27fe"
                            }
                        ]
                    },
                    {
                        "title": "QuestionnaireResponse",
                        "entry": [
                            {
                                "reference": "urn:uuid:c9de6533-67a8-40fb-b4dc-05e3f5008701"
                            }
                        ]
                    },
                    {
                        "title": "QuestionnaireResponse",
                        "entry": [
                            {
                                "reference": "urn:uuid:475d5495-6988-4077-85e3-54f5b015b26b"
                            }
                        ]
                    },
                    {
                        "title": "QuestionnaireResponse",
                        "entry": [
                            {
                                "reference": "urn:uuid:acaef10d-006f-470f-bdf3-8b8ca16cdcf6"
                            }
                        ]
                    },
                    {
                        "title": "QuestionnaireResponse",
                        "entry": [
                            {
                                "reference": "urn:uuid:ce9bbf72-094c-4def-88e5-2d010b2f1064"
                            }
                        ]
                    },
                    {
                        "title": "QuestionnaireResponse",
                        "entry": [
                            {
                                "reference": "urn:uuid:3d35dd81-1649-4a8d-ad67-863cfd22f95a"
                            }
                        ]
                    },
                    {
                        "title": "QuestionnaireResponse",
                        "entry": [
                            {
                                "reference": "urn:uuid:7aa84b5b-a797-4134-88a3-dc4445327ff5"
                            }
                        ]
                    },
                    {
                        "title": "QuestionnaireResponse",
                        "entry": [
                            {
                                "reference": "urn:uuid:623c08f7-901b-4190-a131-27dd1746b14f"
                            }
                        ]
                    },
                    {
                        "title": "QuestionnaireResponse",
                        "entry": [
                            {
                                "reference": "urn:uuid:d8f14421-c0fd-481c-8193-4a798145ef15"
                            }
                        ]
                    },
                    {
                        "title": "QuestionnaireResponse",
                        "entry": [
                            {
                                "reference": "urn:uuid:1a1ceffa-284c-4331-8e49-6d0477f3fe23"
                            }
                        ]
                    },
                    {
                        "title": "QuestionnaireResponse",
                        "entry": [
                            {
                                "reference": "urn:uuid:632f3b99-540b-4fb2-ac54-4a0338c56db6"
                            }
                        ]
                    },
                    {
                        "title": "QuestionnaireResponse",
                        "entry": [
                            {
                                "reference": "urn:uuid:42cb7f7f-a0f0-43b1-ac2b-7fdd57b2a983"
                            }
                        ]
                    },
                    {
                        "title": "QuestionnaireResponse",
                        "entry": [
                            {
                                "reference": "urn:uuid:17782763-60c5-4a23-8758-5d830dba7641"
                            }
                        ]
                    }
                ]
            }
        },
        {
            "fullUrl": "urn:uuid:09ef5faf-c41f-437b-b3ad-285f0a621199",
            "resource": {
                "resourceType": "CarePlan",
                "id": "09ef5faf-c41f-437b-b3ad-285f0a621199",
                "status": "completed",
                "intent": "plan",
                "title": "ComponentTitle - Information And Advice Given",
                "subject": {
                    "reference": "urn:uuid:25df9db5-b317-48f1-9f96-77971f2596a0"
                },
                "context": {
                    "reference": "urn:uuid:2fc97e38-f297-4849-8e32-9e5e09cd2be0"
                },
                "period": {
                    "start": "2021-04-06T15:19:34+00:00"
                },
                "addresses": [
                    {
                        "reference": "urn:uuid:b51e1e70-019c-4a5d-bf4d-7e0a6fffc17f"
                    }
                ]
            }
        },
        {
            "fullUrl": "urn:uuid:f6373e52-8048-4db5-83b0-e06c376cb454",
            "resource": {
                "resourceType": "Consent",
                "id": "f6373e52-8048-4db5-83b0-e06c376cb454",
                "identifier": {
                    "use": "usual",
                    "value": "E2DF04F7-95CA-40AD-808D-797C0A89E39C"
                },
                "status": "active",
                "patient": {
                    "reference": "urn:uuid:25df9db5-b317-48f1-9f96-77971f2596a0"
                },
                "period": {
                    "start": "2021-04-06T15:19:34+00:00"
                },
                "consentingParty": [
                    {
                        "reference": "urn:uuid:25df9db5-b317-48f1-9f96-77971f2596a0"
                    }
                ],
                "action": [
                    {
                        "coding": [
                            {
                                "system": "http://snomed.info/sct",
                                "code": "425691002",
                                "display": "Consent given for electronic record sharing"
                            }
                        ],
                        "text": "Consent given for electronic record sharing"
                    }
                ],
                "organization": [
                    {
                        "reference": "urn:uuid:873f0f1f-20ac-4741-8c4e-ccf1ca1aae0c"
                    }
                ],
                "policyRule": "http://hl7.org/fhir/ConsentPolicy/opt-out",
                "data": [
                    {
                        "meaning": "related",
                        "reference": {
                            "reference": "urn:uuid:2fc97e38-f297-4849-8e32-9e5e09cd2be0"
                        }
                    }
                ]
            }
        },
        {
            "fullUrl": "urn:uuid:b51e1e70-019c-4a5d-bf4d-7e0a6fffc17f",
            "resource": {
                "resourceType": "Condition",
                "id": "b51e1e70-019c-4a5d-bf4d-7e0a6fffc17f",
                "clinicalStatus": "active",
                "verificationStatus": "unknown",
                "subject": {
                    "reference": "urn:uuid:25df9db5-b317-48f1-9f96-77971f2596a0"
                },
                "context": {
                    "reference": "urn:uuid:2fc97e38-f297-4849-8e32-9e5e09cd2be0"
                },
                "evidence": [
                    {
                        "detail": [
                            {
                                "reference": "urn:uuid:6098ed17-b4c9-4891-854f-395cbe530168"
                            }
                        ]
                    },
                    {
                        "detail": [
                            {
                                "reference": "urn:uuid:4af6ec31-18c8-435e-82e4-95eea42d6f73"
                            }
                        ]
                    },
                    {
                        "detail": [
                            {
                                "reference": "urn:uuid:fa692faf-6d70-4cc3-b406-654dfd9b27fe"
                            }
                        ]
                    },
                    {
                        "detail": [
                            {
                                "reference": "urn:uuid:c9de6533-67a8-40fb-b4dc-05e3f5008701"
                            }
                        ]
                    },
                    {
                        "detail": [
                            {
                                "reference": "urn:uuid:475d5495-6988-4077-85e3-54f5b015b26b"
                            }
                        ]
                    },
                    {
                        "detail": [
                            {
                                "reference": "urn:uuid:acaef10d-006f-470f-bdf3-8b8ca16cdcf6"
                            }
                        ]
                    },
                    {
                        "detail": [
                            {
                                "reference": "urn:uuid:ce9bbf72-094c-4def-88e5-2d010b2f1064"
                            }
                        ]
                    },
                    {
                        "detail": [
                            {
                                "reference": "urn:uuid:3d35dd81-1649-4a8d-ad67-863cfd22f95a"
                            }
                        ]
                    },
                    {
                        "detail": [
                            {
                                "reference": "urn:uuid:7aa84b5b-a797-4134-88a3-dc4445327ff5"
                            }
                        ]
                    },
                    {
                        "detail": [
                            {
                                "reference": "urn:uuid:623c08f7-901b-4190-a131-27dd1746b14f"
                            }
                        ]
                    },
                    {
                        "detail": [
                            {
                                "reference": "urn:uuid:d8f14421-c0fd-481c-8193-4a798145ef15"
                            }
                        ]
                    },
                    {
                        "detail": [
                            {
                                "reference": "urn:uuid:1a1ceffa-284c-4331-8e49-6d0477f3fe23"
                            }
                        ]
                    },
                    {
                        "detail": [
                            {
                                "reference": "urn:uuid:632f3b99-540b-4fb2-ac54-4a0338c56db6"
                            }
                        ]
                    },
                    {
                        "detail": [
                            {
                                "reference": "urn:uuid:42cb7f7f-a0f0-43b1-ac2b-7fdd57b2a983"
                            }
                        ]
                    },
                    {
                        "detail": [
                            {
                                "reference": "urn:uuid:17782763-60c5-4a23-8758-5d830dba7641"
                            }
                        ]
                    }
                ]
            }
        },
        {
            "fullUrl": "urn:uuid:6098ed17-b4c9-4891-854f-395cbe530168",
            "resource": {
                "resourceType": "QuestionnaireResponse",
                "id": "6098ed17-b4c9-4891-854f-395cbe530168",
                "identifier": {
                    "value": "60319"
                },
                "questionnaire": {
                    "reference": "urn:uuid:b231486f-dc97-4b82-99f7-fa08f076df64"
                },
                "status": "completed",
                "subject": {
                    "reference": "urn:uuid:25df9db5-b317-48f1-9f96-77971f2596a0"
                },
                "context": {
                    "reference": "urn:uuid:2fc97e38-f297-4849-8e32-9e5e09cd2be0"
                },
                "authored": "2021-04-06T15:19:34+00:00",
                "item": [
                    {
                        "linkId": "Tx220109",
                        "text": "What is the reason for the contact?",
                        "answer": [
                            {
                                "valueString": "more"
                            }
                        ]
                    }
                ]
            }
        },
        {
            "fullUrl": "urn:uuid:b231486f-dc97-4b82-99f7-fa08f076df64",
            "resource": {
                "resourceType": "Questionnaire",
                "id": "b231486f-dc97-4b82-99f7-fa08f076df64",
                "identifier": [
                    {
                        "value": "60319"
                    }
                ],
                "version": "2021-04-06T15:19:34.083Z",
                "status": "active",
                "experimental": false,
                "date": "2021-04-06T15:19:34+00:00",
                "publisher": "User ID: 'HADFIELDR' User name: 'Ryan Hadfield' User skill set: 'T3'",
                "lastReviewDate": "2021-04-06",
                "contact": [
                    {
                        "telecom": [
                            {
                                "value": "0111 111 1111"
                            }
                        ]
                    }
                ],
                "subjectType": [
                    "Patient"
                ],
                "item": [
                    {
                        "linkId": "60319",
                        "prefix": "5",
                        "text": "What is the reason for the contact?",
                        "type": "choice",
                        "required": true,
                        "repeats": false,
                        "option": [
                            {
                                "valueString": "an injury or other health problem, Selected: false"
                            },
                            {
                                "valueString": "a need to access another healthcare service, Selected: false"
                            },
                            {
                                "valueString": "a healthcare professional requesting contact with another clinician, Selected: false"
                            },
                            {
                                "valueString": "a report of results or tests, Selected: false"
                            },
                            {
                                "valueString": "more, Selected: true"
                            }
                        ]
                    }
                ]
            }
        },
        {
            "fullUrl": "urn:uuid:4af6ec31-18c8-435e-82e4-95eea42d6f73",
            "resource": {
                "resourceType": "QuestionnaireResponse",
                "id": "4af6ec31-18c8-435e-82e4-95eea42d6f73",
                "identifier": {
                    "value": "60319"
                },
                "questionnaire": {
                    "reference": "urn:uuid:3d80f6cb-da03-49ea-a6f2-758bf1c01270"
                },
                "status": "completed",
                "subject": {
                    "reference": "urn:uuid:25df9db5-b317-48f1-9f96-77971f2596a0"
                },
                "context": {
                    "reference": "urn:uuid:2fc97e38-f297-4849-8e32-9e5e09cd2be0"
                },
                "authored": "2021-04-06T15:19:34+00:00",
                "item": [
                    {
                        "linkId": "Tx221793",
                        "text": "STRING:to'Social&information'-further'Callreason'menu",
                        "answer": [
                            {
                                "valueString": "\"present\""
                            }
                        ]
                    }
                ]
            }
        },
        {
            "fullUrl": "urn:uuid:3d80f6cb-da03-49ea-a6f2-758bf1c01270",
            "resource": {
                "resourceType": "Questionnaire",
                "id": "3d80f6cb-da03-49ea-a6f2-758bf1c01270",
                "identifier": [
                    {
                        "value": "60319"
                    }
                ],
                "version": "2021-04-06T15:19:34.083Z",
                "status": "active",
                "experimental": false,
                "date": "2021-04-06T15:19:34+00:00",
                "publisher": "User ID: 'HADFIELDR' User name: 'Ryan Hadfield' User skill set: 'T3'",
                "lastReviewDate": "2021-04-06",
                "contact": [
                    {
                        "telecom": [
                            {
                                "value": "0111 111 1111"
                            }
                        ]
                    }
                ],
                "subjectType": [
                    "Patient"
                ],
                "item": [
                    {
                        "linkId": "60319",
                        "prefix": "600",
                        "text": "STRING:to'Social&information'-further'Callreason'menu",
                        "type": "choice",
                        "required": true,
                        "repeats": false,
                        "option": [
                            {
                                "valueString": "\"present\", Selected: true"
                            }
                        ]
                    }
                ]
            }
        },
        {
            "fullUrl": "urn:uuid:fa692faf-6d70-4cc3-b406-654dfd9b27fe",
            "resource": {
                "resourceType": "QuestionnaireResponse",
                "id": "fa692faf-6d70-4cc3-b406-654dfd9b27fe",
                "identifier": {
                    "value": "60319"
                },
                "questionnaire": {
                    "reference": "urn:uuid:924f3dcd-27c1-4b4e-8540-59c233652979"
                },
                "status": "completed",
                "subject": {
                    "reference": "urn:uuid:25df9db5-b317-48f1-9f96-77971f2596a0"
                },
                "context": {
                    "reference": "urn:uuid:2fc97e38-f297-4849-8e32-9e5e09cd2be0"
                },
                "authored": "2021-04-06T15:19:34+00:00"
            }
        },
        {
            "fullUrl": "urn:uuid:924f3dcd-27c1-4b4e-8540-59c233652979",
            "resource": {
                "resourceType": "Questionnaire",
                "id": "924f3dcd-27c1-4b4e-8540-59c233652979",
                "identifier": [
                    {
                        "value": "60319"
                    }
                ],
                "version": "2021-04-06T15:19:34.083Z",
                "status": "active",
                "experimental": false,
                "date": "2021-04-06T15:19:34+00:00",
                "publisher": "User ID: 'HADFIELDR' User name: 'Ryan Hadfield' User skill set: 'T3'",
                "lastReviewDate": "2021-04-06",
                "contact": [
                    {
                        "telecom": [
                            {
                                "value": "0111 111 1111"
                            }
                        ]
                    }
                ],
                "subjectType": [
                    "Patient"
                ]
            }
        },
        {
            "fullUrl": "urn:uuid:c9de6533-67a8-40fb-b4dc-05e3f5008701",
            "resource": {
                "resourceType": "QuestionnaireResponse",
                "id": "c9de6533-67a8-40fb-b4dc-05e3f5008701",
                "identifier": {
                    "value": "60319"
                },
                "questionnaire": {
                    "reference": "urn:uuid:e94be45e-d7fb-4bd1-8a34-e4165afe50e8"
                },
                "status": "completed",
                "subject": {
                    "reference": "urn:uuid:25df9db5-b317-48f1-9f96-77971f2596a0"
                },
                "context": {
                    "reference": "urn:uuid:2fc97e38-f297-4849-8e32-9e5e09cd2be0"
                },
                "authored": "2021-04-06T15:19:34+00:00",
                "item": [
                    {
                        "linkId": "Tx221804",
                        "text": "STRING:transfertofurthermenuquestionestablishedinEntryFlow",
                        "answer": [
                            {
                                "valueString": "\"present\""
                            }
                        ]
                    }
                ]
            }
        },
        {
            "fullUrl": "urn:uuid:e94be45e-d7fb-4bd1-8a34-e4165afe50e8",
            "resource": {
                "resourceType": "Questionnaire",
                "id": "e94be45e-d7fb-4bd1-8a34-e4165afe50e8",
                "identifier": [
                    {
                        "value": "60319"
                    }
                ],
                "version": "2021-04-06T15:19:34.083Z",
                "status": "active",
                "experimental": false,
                "date": "2021-04-06T15:19:34+00:00",
                "publisher": "User ID: 'HADFIELDR' User name: 'Ryan Hadfield' User skill set: 'T3'",
                "lastReviewDate": "2021-04-06",
                "contact": [
                    {
                        "telecom": [
                            {
                                "value": "0111 111 1111"
                            }
                        ]
                    }
                ],
                "subjectType": [
                    "Patient"
                ],
                "item": [
                    {
                        "linkId": "60319",
                        "prefix": "41",
                        "text": "STRING:transfertofurthermenuquestionestablishedinEntryFlow",
                        "type": "choice",
                        "required": true,
                        "repeats": false,
                        "option": [
                            {
                                "valueString": "\"present\", Selected: true"
                            }
                        ]
                    }
                ]
            }
        },
        {
            "fullUrl": "urn:uuid:475d5495-6988-4077-85e3-54f5b015b26b",
            "resource": {
                "resourceType": "QuestionnaireResponse",
                "id": "475d5495-6988-4077-85e3-54f5b015b26b",
                "identifier": {
                    "value": "60319"
                },
                "questionnaire": {
                    "reference": "urn:uuid:3e06cd9c-61d2-4646-9260-989eabae5c70"
                },
                "status": "completed",
                "subject": {
                    "reference": "urn:uuid:25df9db5-b317-48f1-9f96-77971f2596a0"
                },
                "context": {
                    "reference": "urn:uuid:2fc97e38-f297-4849-8e32-9e5e09cd2be0"
                },
                "authored": "2021-04-06T15:19:34+00:00",
                "item": [
                    {
                        "linkId": "Tx224998",
                        "text": "SYSTEM_COVIDLEVEL2",
                        "answer": [
                            {
                                "valueString": "==\"covidlevel2\""
                            }
                        ]
                    }
                ]
            }
        },
        {
            "fullUrl": "urn:uuid:3e06cd9c-61d2-4646-9260-989eabae5c70",
            "resource": {
                "resourceType": "Questionnaire",
                "id": "3e06cd9c-61d2-4646-9260-989eabae5c70",
                "identifier": [
                    {
                        "value": "60319"
                    }
                ],
                "version": "2021-04-06T15:19:34.083Z",
                "status": "active",
                "experimental": false,
                "date": "2021-04-06T15:19:34+00:00",
                "publisher": "User ID: 'HADFIELDR' User name: 'Ryan Hadfield' User skill set: 'T3'",
                "lastReviewDate": "2021-04-06",
                "contact": [
                    {
                        "telecom": [
                            {
                                "value": "0111 111 1111"
                            }
                        ]
                    }
                ],
                "subjectType": [
                    "Patient"
                ],
                "item": [
                    {
                        "linkId": "60319",
                        "prefix": "5900",
                        "text": "SYSTEM_COVIDLEVEL2",
                        "type": "choice",
                        "required": true,
                        "repeats": false,
                        "option": [
                            {
                                "valueString": "==\"covidlevel2\", Selected: true"
                            },
                            {
                                "valueString": "*, Selected: false"
                            }
                        ]
                    }
                ]
            }
        },
        {
            "fullUrl": "urn:uuid:acaef10d-006f-470f-bdf3-8b8ca16cdcf6",
            "resource": {
                "resourceType": "QuestionnaireResponse",
                "id": "acaef10d-006f-470f-bdf3-8b8ca16cdcf6",
                "identifier": {
                    "value": "60319"
                },
                "questionnaire": {
                    "reference": "urn:uuid:3436a803-283f-46f8-803c-18a107d7564d"
                },
                "status": "completed",
                "subject": {
                    "reference": "urn:uuid:25df9db5-b317-48f1-9f96-77971f2596a0"
                },
                "context": {
                    "reference": "urn:uuid:2fc97e38-f297-4849-8e32-9e5e09cd2be0"
                },
                "authored": "2021-04-06T15:19:34+00:00",
                "item": [
                    {
                        "linkId": "Tx225069",
                        "text": "What is the reason for the contact?",
                        "answer": [
                            {
                                "valueString": "a prescription request"
                            }
                        ]
                    }
                ]
            }
        },
        {
            "fullUrl": "urn:uuid:3436a803-283f-46f8-803c-18a107d7564d",
            "resource": {
                "resourceType": "Questionnaire",
                "id": "3436a803-283f-46f8-803c-18a107d7564d",
                "identifier": [
                    {
                        "value": "60319"
                    }
                ],
                "version": "2021-04-06T15:19:34.083Z",
                "status": "active",
                "experimental": false,
                "date": "2021-04-06T15:19:34+00:00",
                "publisher": "User ID: 'HADFIELDR' User name: 'Ryan Hadfield' User skill set: 'T3'",
                "lastReviewDate": "2021-04-06",
                "contact": [
                    {
                        "telecom": [
                            {
                                "value": "0111 111 1111"
                            }
                        ]
                    }
                ],
                "subjectType": [
                    "Patient"
                ],
                "item": [
                    {
                        "linkId": "60319",
                        "prefix": "6000",
                        "text": "What is the reason for the contact?",
                        "type": "choice",
                        "required": true,
                        "repeats": false,
                        "option": [
                            {
                                "valueString": "a child protection/vulnerable adult concern (specify), Selected: false"
                            },
                            {
                                "valueString": "a social or domestic emergency, Selected: false"
                            },
                            {
                                "valueString": "a prescription request, Selected: true"
                            },
                            {
                                "valueString": "an appointment request, Selected: false"
                            },
                            {
                                "valueString": "a request for health or medication information, Selected: false"
                            },
                            {
                                "valueString": "public health alert information, Selected: false"
                            }
                        ]
                    }
                ]
            }
        },
        {
            "fullUrl": "urn:uuid:ce9bbf72-094c-4def-88e5-2d010b2f1064",
            "resource": {
                "resourceType": "QuestionnaireResponse",
                "id": "ce9bbf72-094c-4def-88e5-2d010b2f1064",
                "identifier": {
                    "value": "60319"
                },
                "questionnaire": {
                    "reference": "urn:uuid:caf62af0-d9de-466a-aed3-08675a11a024"
                },
                "status": "completed",
                "subject": {
                    "reference": "urn:uuid:25df9db5-b317-48f1-9f96-77971f2596a0"
                },
                "context": {
                    "reference": "urn:uuid:2fc97e38-f297-4849-8e32-9e5e09cd2be0"
                },
                "authored": "2021-04-06T15:19:34+00:00",
                "item": [
                    {
                        "linkId": "Tx220957",
                        "text": "Is this contact about a new or worsening illness?",
                        "answer": [
                            {
                                "valueString": "no"
                            }
                        ]
                    }
                ]
            }
        },
        {
            "fullUrl": "urn:uuid:caf62af0-d9de-466a-aed3-08675a11a024",
            "resource": {
                "resourceType": "Questionnaire",
                "id": "caf62af0-d9de-466a-aed3-08675a11a024",
                "identifier": [
                    {
                        "value": "60319"
                    }
                ],
                "version": "2021-04-06T15:19:34.083Z",
                "status": "active",
                "experimental": false,
                "date": "2021-04-06T15:19:34+00:00",
                "publisher": "User ID: 'HADFIELDR' User name: 'Ryan Hadfield' User skill set: 'T3'",
                "lastReviewDate": "2021-04-06",
                "contact": [
                    {
                        "telecom": [
                            {
                                "value": "0111 111 1111"
                            }
                        ]
                    }
                ],
                "subjectType": [
                    "Patient"
                ],
                "item": [
                    {
                        "linkId": "60319",
                        "prefix": "1400",
                        "text": "Is this contact about a new or worsening illness?",
                        "type": "choice",
                        "required": true,
                        "repeats": false,
                        "option": [
                            {
                                "valueString": "yes, Selected: false"
                            },
                            {
                                "valueString": "not sure, Selected: false"
                            },
                            {
                                "valueString": "no, Selected: true"
                            }
                        ]
                    }
                ]
            }
        },
        {
            "fullUrl": "urn:uuid:3d35dd81-1649-4a8d-ad67-863cfd22f95a",
            "resource": {
                "resourceType": "QuestionnaireResponse",
                "id": "3d35dd81-1649-4a8d-ad67-863cfd22f95a",
                "identifier": {
                    "value": "60319"
                },
                "questionnaire": {
                    "reference": "urn:uuid:5caba684-897b-48e5-adb0-fa8b4f958e40"
                },
                "status": "completed",
                "subject": {
                    "reference": "urn:uuid:25df9db5-b317-48f1-9f96-77971f2596a0"
                },
                "context": {
                    "reference": "urn:uuid:2fc97e38-f297-4849-8e32-9e5e09cd2be0"
                },
                "authored": "2021-04-06T15:19:34+00:00",
                "item": [
                    {
                        "linkId": "Tx221352",
                        "text": "Have you got enough medication to last until the surgery opens?",
                        "answer": [
                            {
                                "valueString": "no"
                            }
                        ]
                    }
                ]
            }
        },
        {
            "fullUrl": "urn:uuid:5caba684-897b-48e5-adb0-fa8b4f958e40",
            "resource": {
                "resourceType": "Questionnaire",
                "id": "5caba684-897b-48e5-adb0-fa8b4f958e40",
                "identifier": [
                    {
                        "value": "60319"
                    }
                ],
                "version": "2021-04-06T15:19:34.083Z",
                "status": "active",
                "experimental": false,
                "date": "2021-04-06T15:19:34+00:00",
                "publisher": "User ID: 'HADFIELDR' User name: 'Ryan Hadfield' User skill set: 'T3'",
                "lastReviewDate": "2021-04-06",
                "contact": [
                    {
                        "telecom": [
                            {
                                "value": "0111 111 1111"
                            }
                        ]
                    }
                ],
                "subjectType": [
                    "Patient"
                ],
                "item": [
                    {
                        "linkId": "60319",
                        "prefix": "1500",
                        "text": "Have you got enough medication to last until the surgery opens?",
                        "type": "choice",
                        "required": true,
                        "repeats": false,
                        "option": [
                            {
                                "valueString": "yes, Selected: false"
                            },
                            {
                                "valueString": "not sure, Selected: false"
                            },
                            {
                                "valueString": "no, Selected: true"
                            }
                        ]
                    }
                ]
            }
        },
        {
            "fullUrl": "urn:uuid:7aa84b5b-a797-4134-88a3-dc4445327ff5",
            "resource": {
                "resourceType": "QuestionnaireResponse",
                "id": "7aa84b5b-a797-4134-88a3-dc4445327ff5",
                "identifier": {
                    "value": "60319"
                },
                "questionnaire": {
                    "reference": "urn:uuid:95a3ab79-e64d-4c37-addb-1e0ef04fd044"
                },
                "status": "completed",
                "subject": {
                    "reference": "urn:uuid:25df9db5-b317-48f1-9f96-77971f2596a0"
                },
                "context": {
                    "reference": "urn:uuid:2fc97e38-f297-4849-8e32-9e5e09cd2be0"
                },
                "authored": "2021-04-06T15:19:34+00:00"
            }
        },
        {
            "fullUrl": "urn:uuid:95a3ab79-e64d-4c37-addb-1e0ef04fd044",
            "resource": {
                "resourceType": "Questionnaire",
                "id": "95a3ab79-e64d-4c37-addb-1e0ef04fd044",
                "identifier": [
                    {
                        "value": "60319"
                    }
                ],
                "version": "2021-04-06T15:19:34.083Z",
                "status": "active",
                "experimental": false,
                "date": "2021-04-06T15:19:34+00:00",
                "publisher": "User ID: 'HADFIELDR' User name: 'Ryan Hadfield' User skill set: 'T3'",
                "lastReviewDate": "2021-04-06",
                "contact": [
                    {
                        "telecom": [
                            {
                                "value": "0111 111 1111"
                            }
                        ]
                    }
                ],
                "subjectType": [
                    "Patient"
                ]
            }
        },
        {
            "fullUrl": "urn:uuid:623c08f7-901b-4190-a131-27dd1746b14f",
            "resource": {
                "resourceType": "QuestionnaireResponse",
                "id": "623c08f7-901b-4190-a131-27dd1746b14f",
                "identifier": {
                    "value": "60319"
                },
                "questionnaire": {
                    "reference": "urn:uuid:0eb6d4a7-426e-4e30-b9c4-a36a04c96306"
                },
                "status": "completed",
                "subject": {
                    "reference": "urn:uuid:25df9db5-b317-48f1-9f96-77971f2596a0"
                },
                "context": {
                    "reference": "urn:uuid:2fc97e38-f297-4849-8e32-9e5e09cd2be0"
                },
                "authored": "2021-04-06T15:19:34+00:00",
                "item": [
                    {
                        "linkId": "Tx224231",
                        "text": "FROM WHAT YOU HAVE HEARD IS A CONSULTATION WITH A PRESCRIBER NEEDED?",
                        "answer": [
                            {
                                "valueString": "no"
                            }
                        ]
                    }
                ]
            }
        },
        {
            "fullUrl": "urn:uuid:0eb6d4a7-426e-4e30-b9c4-a36a04c96306",
            "resource": {
                "resourceType": "Questionnaire",
                "id": "0eb6d4a7-426e-4e30-b9c4-a36a04c96306",
                "identifier": [
                    {
                        "value": "60319"
                    }
                ],
                "version": "2021-04-06T15:19:34.083Z",
                "status": "active",
                "experimental": false,
                "date": "2021-04-06T15:19:34+00:00",
                "publisher": "User ID: 'HADFIELDR' User name: 'Ryan Hadfield' User skill set: 'T3'",
                "lastReviewDate": "2021-04-06",
                "contact": [
                    {
                        "telecom": [
                            {
                                "value": "0111 111 1111"
                            }
                        ]
                    }
                ],
                "subjectType": [
                    "Patient"
                ],
                "item": [
                    {
                        "linkId": "60319",
                        "prefix": "0",
                        "text": "FROM WHAT YOU HAVE HEARD IS A CONSULTATION WITH A PRESCRIBER NEEDED?",
                        "type": "choice",
                        "required": true,
                        "repeats": false,
                        "option": [
                            {
                                "valueString": "yes, Selected: false"
                            },
                            {
                                "valueString": "not sure, Selected: false"
                            },
                            {
                                "valueString": "no, Selected: true"
                            }
                        ]
                    }
                ]
            }
        },
        {
            "fullUrl": "urn:uuid:d8f14421-c0fd-481c-8193-4a798145ef15",
            "resource": {
                "resourceType": "QuestionnaireResponse",
                "id": "d8f14421-c0fd-481c-8193-4a798145ef15",
                "identifier": {
                    "value": "60319"
                },
                "questionnaire": {
                    "reference": "urn:uuid:6a55b6b5-42e9-4b75-a53c-e8956017db08"
                },
                "status": "completed",
                "subject": {
                    "reference": "urn:uuid:25df9db5-b317-48f1-9f96-77971f2596a0"
                },
                "context": {
                    "reference": "urn:uuid:2fc97e38-f297-4849-8e32-9e5e09cd2be0"
                },
                "authored": "2021-04-06T15:19:34+00:00",
                "item": [
                    {
                        "linkId": "Tx222687",
                        "text": "Have you got any of the medication available at the moment?",
                        "answer": [
                            {
                                "valueString": "no"
                            }
                        ]
                    }
                ]
            }
        },
        {
            "fullUrl": "urn:uuid:6a55b6b5-42e9-4b75-a53c-e8956017db08",
            "resource": {
                "resourceType": "Questionnaire",
                "id": "6a55b6b5-42e9-4b75-a53c-e8956017db08",
                "identifier": [
                    {
                        "value": "60319"
                    }
                ],
                "version": "2021-04-06T15:19:34.083Z",
                "status": "active",
                "experimental": false,
                "date": "2021-04-06T15:19:34+00:00",
                "publisher": "User ID: 'HADFIELDR' User name: 'Ryan Hadfield' User skill set: 'T3'",
                "lastReviewDate": "2021-04-06",
                "contact": [
                    {
                        "telecom": [
                            {
                                "value": "0111 111 1111"
                            }
                        ]
                    }
                ],
                "subjectType": [
                    "Patient"
                ],
                "item": [
                    {
                        "linkId": "60319",
                        "prefix": "200",
                        "text": "Have you got any of the medication available at the moment?",
                        "type": "choice",
                        "required": true,
                        "repeats": false,
                        "option": [
                            {
                                "valueString": "yes, Selected: false"
                            },
                            {
                                "valueString": "not sure, Selected: false"
                            },
                            {
                                "valueString": "no, Selected: true"
                            }
                        ]
                    }
                ]
            }
        },
        {
            "fullUrl": "urn:uuid:1a1ceffa-284c-4331-8e49-6d0477f3fe23",
            "resource": {
                "resourceType": "QuestionnaireResponse",
                "id": "1a1ceffa-284c-4331-8e49-6d0477f3fe23",
                "identifier": {
                    "value": "60319"
                },
                "questionnaire": {
                    "reference": "urn:uuid:32765ab6-98c7-4899-808d-256ad428377d"
                },
                "status": "completed",
                "subject": {
                    "reference": "urn:uuid:25df9db5-b317-48f1-9f96-77971f2596a0"
                },
                "context": {
                    "reference": "urn:uuid:2fc97e38-f297-4849-8e32-9e5e09cd2be0"
                },
                "authored": "2021-04-06T15:19:34+00:00",
                "item": [
                    {
                        "linkId": "Tx221367",
                        "text": "When is the next dose due?",
                        "answer": [
                            {
                                "valueString": "over 12 hours time"
                            }
                        ]
                    }
                ]
            }
        },
        {
            "fullUrl": "urn:uuid:32765ab6-98c7-4899-808d-256ad428377d",
            "resource": {
                "resourceType": "Questionnaire",
                "id": "32765ab6-98c7-4899-808d-256ad428377d",
                "identifier": [
                    {
                        "value": "60319"
                    }
                ],
                "version": "2021-04-06T15:19:34.083Z",
                "status": "active",
                "experimental": false,
                "date": "2021-04-06T15:19:34+00:00",
                "publisher": "User ID: 'HADFIELDR' User name: 'Ryan Hadfield' User skill set: 'T3'",
                "lastReviewDate": "2021-04-06",
                "contact": [
                    {
                        "telecom": [
                            {
                                "value": "0111 111 1111"
                            }
                        ]
                    }
                ],
                "subjectType": [
                    "Patient"
                ],
                "item": [
                    {
                        "linkId": "60319",
                        "prefix": "100",
                        "text": "When is the next dose due?",
                        "type": "choice",
                        "required": true,
                        "repeats": false,
                        "option": [
                            {
                                "valueString": "within the next 2 hours, Selected: false"
                            },
                            {
                                "valueString": "within the next 6 hours, Selected: false"
                            },
                            {
                                "valueString": "within the next 12 hours, Selected: false"
                            },
                            {
                                "valueString": "over 12 hours time, Selected: true"
                            },
                            {
                                "valueString": "not sure, Selected: false"
                            }
                        ]
                    }
                ]
            }
        },
        {
            "fullUrl": "urn:uuid:632f3b99-540b-4fb2-ac54-4a0338c56db6",
            "resource": {
                "resourceType": "QuestionnaireResponse",
                "id": "632f3b99-540b-4fb2-ac54-4a0338c56db6",
                "identifier": {
                    "value": "60319"
                },
                "questionnaire": {
                    "reference": "urn:uuid:c694505c-6bbf-48ab-8aca-f773e05c9bf8"
                },
                "status": "completed",
                "subject": {
                    "reference": "urn:uuid:25df9db5-b317-48f1-9f96-77971f2596a0"
                },
                "context": {
                    "reference": "urn:uuid:2fc97e38-f297-4849-8e32-9e5e09cd2be0"
                },
                "authored": "2021-04-06T15:19:34+00:00",
                "item": [
                    {
                        "linkId": "Tx223441",
                        "text": "STRING:SDPCRepeatPrescription",
                        "answer": [
                            {
                                "valueString": "\"PC repeat prescription\""
                            }
                        ]
                    }
                ]
            }
        },
        {
            "fullUrl": "urn:uuid:c694505c-6bbf-48ab-8aca-f773e05c9bf8",
            "resource": {
                "resourceType": "Questionnaire",
                "id": "c694505c-6bbf-48ab-8aca-f773e05c9bf8",
                "identifier": [
                    {
                        "value": "60319"
                    }
                ],
                "version": "2021-04-06T15:19:34.083Z",
                "status": "active",
                "experimental": false,
                "date": "2021-04-06T15:19:34+00:00",
                "publisher": "User ID: 'HADFIELDR' User name: 'Ryan Hadfield' User skill set: 'T3'",
                "lastReviewDate": "2021-04-06",
                "contact": [
                    {
                        "telecom": [
                            {
                                "value": "0111 111 1111"
                            }
                        ]
                    }
                ],
                "subjectType": [
                    "Patient"
                ],
                "item": [
                    {
                        "linkId": "60319",
                        "prefix": "1100",
                        "text": "STRING:SDPCRepeatPrescription",
                        "type": "choice",
                        "required": true,
                        "repeats": false,
                        "option": [
                            {
                                "valueString": "\"PC repeat prescription\", Selected: true"
                            }
                        ]
                    }
                ]
            }
        },
        {
            "fullUrl": "urn:uuid:42cb7f7f-a0f0-43b1-ac2b-7fdd57b2a983",
            "resource": {
                "resourceType": "QuestionnaireResponse",
                "id": "42cb7f7f-a0f0-43b1-ac2b-7fdd57b2a983",
                "identifier": {
                    "value": "60319"
                },
                "questionnaire": {
                    "reference": "urn:uuid:076f873d-0971-4e93-9bcc-20ba44408cee"
                },
                "status": "completed",
                "subject": {
                    "reference": "urn:uuid:25df9db5-b317-48f1-9f96-77971f2596a0"
                },
                "context": {
                    "reference": "urn:uuid:2fc97e38-f297-4849-8e32-9e5e09cd2be0"
                },
                "authored": "2021-04-06T15:19:34+00:00"
            }
        },
        {
            "fullUrl": "urn:uuid:076f873d-0971-4e93-9bcc-20ba44408cee",
            "resource": {
                "resourceType": "Questionnaire",
                "id": "076f873d-0971-4e93-9bcc-20ba44408cee",
                "identifier": [
                    {
                        "value": "60319"
                    }
                ],
                "version": "2021-04-06T15:19:34.083Z",
                "status": "active",
                "experimental": false,
                "date": "2021-04-06T15:19:34+00:00",
                "publisher": "User ID: 'HADFIELDR' User name: 'Ryan Hadfield' User skill set: 'T3'",
                "lastReviewDate": "2021-04-06",
                "contact": [
                    {
                        "telecom": [
                            {
                                "value": "0111 111 1111"
                            }
                        ]
                    }
                ],
                "subjectType": [
                    "Patient"
                ]
            }
        },
        {
            "fullUrl": "urn:uuid:17782763-60c5-4a23-8758-5d830dba7641",
            "resource": {
                "resourceType": "QuestionnaireResponse",
                "id": "17782763-60c5-4a23-8758-5d830dba7641",
                "identifier": {
                    "value": "60319"
                },
                "questionnaire": {
                    "reference": "urn:uuid:514a244c-b20c-4575-8bcc-773937d3a337"
                },
                "status": "completed",
                "subject": {
                    "reference": "urn:uuid:25df9db5-b317-48f1-9f96-77971f2596a0"
                },
                "context": {
                    "reference": "urn:uuid:2fc97e38-f297-4849-8e32-9e5e09cd2be0"
                },
                "authored": "2021-04-06T15:19:34+00:00"
            }
        },
        {
            "fullUrl": "urn:uuid:514a244c-b20c-4575-8bcc-773937d3a337",
            "resource": {
                "resourceType": "Questionnaire",
                "id": "514a244c-b20c-4575-8bcc-773937d3a337",
                "identifier": [
                    {
                        "value": "60319"
                    }
                ],
                "version": "2021-04-06T15:19:34.083Z",
                "status": "active",
                "experimental": false,
                "date": "2021-04-06T15:19:34+00:00",
                "publisher": "User ID: 'HADFIELDR' User name: 'Ryan Hadfield' User skill set: 'T3'",
                "lastReviewDate": "2021-04-06",
                "contact": [
                    {
                        "telecom": [
                            {
                                "value": "0111 111 1111"
                            }
                        ]
                    }
                ],
                "subjectType": [
                    "Patient"
                ]
            }
        },
        {
            "fullUrl": "urn:uuid:3349d160-8db4-43ca-bce8-45935c3a5906",
            "resource": {
                "resourceType": "PractitionerRole",
                "id": "3349d160-8db4-43ca-bce8-45935c3a5906",
                "practitioner": {
                    "reference": "urn:uuid:cb4a4f67-940d-449a-bba1-3e62fcabe6a4"
                },
                "organization": {
                    "reference": "urn:uuid:005fa441-95cf-4477-a33f-9fdeee9ce6d3"
                },
                "code": [
                    {
                        "coding": [
                            {
                                "system": "2.16.840.1.113883.2.1.3.2.4.17.339",
                                "code": "DOCTOR",
                                "display": "Doctor"
                            }
                        ]
                    }
                ]
            }
        },
        {
            "fullUrl": "urn:uuid:005fa441-95cf-4477-a33f-9fdeee9ce6d3",
            "resource": {
                "resourceType": "Organization",
                "id": "005fa441-95cf-4477-a33f-9fdeee9ce6d3",
                "identifier": [
                    {
                        "value": "RYE"
                    }
                ],
                "name": "RepresentedOrg Name"
            }
        },
        {
            "fullUrl": "urn:uuid:9c0dedf8-1de8-4cf0-b9ad-b60ef922d9f3",
            "resource": {
                "resourceType": "PractitionerRole",
                "id": "9c0dedf8-1de8-4cf0-b9ad-b60ef922d9f3",
                "practitioner": {
                    "reference": "urn:uuid:3ed223d5-4e34-4be1-9c9a-aaaa58f57a39"
                },
                "organization": {
                    "reference": "urn:uuid:83094eff-019b-48d0-b83d-972649d7dfce"
                },
                "code": [
                    {
                        "coding": [
                            {
                                "system": "2.16.840.1.113883.2.1.3.2.4.17.196",
                                "code": "R0010",
                                "display": "Medical Director"
                            }
                        ]
                    }
                ]
            }
        },
        {
            "fullUrl": "urn:uuid:83094eff-019b-48d0-b83d-972649d7dfce",
            "resource": {
                "resourceType": "Organization",
                "id": "83094eff-019b-48d0-b83d-972649d7dfce",
                "identifier": [
                    {
                        "value": "RYE"
                    }
                ],
                "name": "RepresentedOrgNameRYE"
            }
        },
        {
            "fullUrl": "urn:uuid:4da9c690-8707-4af0-8095-9094fd21db3e",
            "resource": {
                "resourceType": "RelatedPerson",
                "id": "4da9c690-8707-4af0-8095-9094fd21db3e",
                "patient": {
                    "reference": "urn:uuid:25df9db5-b317-48f1-9f96-77971f2596a0"
                },
                "relationship": {
                    "coding": [
                        {
                            "system": "http://hl7.org/fhir/v2/0131",
                            "code": "C",
                            "display": "Emergency Contact"
                        }
                    ]
                },
                "telecom": [
                    {
                        "system": "phone",
                        "value": "tel:000000000000"
                    }
                ]
            }
        },
        {
            "fullUrl": "urn:uuid:c2f27bb6-6f2e-4929-899e-803f0e3e9e2c",
            "resource": {
                "resourceType": "Device",
                "id": "c2f27bb6-6f2e-4929-899e-803f0e3e9e2c",
                "model": "111 Adaptor",
                "version": "0.8.0"
            }
        },
        {
            "fullUrl": "urn:uuid:ff17fc07-6798-41bb-9e26-3aa024c4c4e4",
            "resource": {
                "resourceType": "List",
                "id": "ff17fc07-6798-41bb-9e26-3aa024c4c4e4",
                "status": "current",
                "mode": "working",
                "title": "111 Report List",
                "code": {
                    "coding": [
                        {
                            "system": "http://snomed.info/sct",
                            "code": "225390008",
                            "display": "Triage"
                        }
                    ]
                },
                "subject": {
                    "reference": "urn:uuid:25df9db5-b317-48f1-9f96-77971f2596a0"
                },
                "encounter": {
                    "reference": "urn:uuid:2fc97e38-f297-4849-8e32-9e5e09cd2be0"
                },
                "date": "2021-09-12T20:48:27+00:00",
                "source": {
                    "reference": "urn:uuid:c2f27bb6-6f2e-4929-899e-803f0e3e9e2c"
                },
                "orderedBy": {
                    "coding": [
                        {
                            "system": "http://hl7.org/fhir/list-order",
                            "code": "event-date",
                            "display": "Sorted by Event Date"
                        }
                    ]
                },
                "entry": [
                    {
                        "item": {
                            "reference": "urn:uuid:a7318896-e45c-4259-9efb-ec0517fdd885"
                        }
                    },
                    {
                        "item": {
                            "reference": "urn:uuid:873f0f1f-20ac-4741-8c4e-ccf1ca1aae0c"
                        }
                    },
                    {
                        "item": {
                            "reference": "urn:uuid:cb4a4f67-940d-449a-bba1-3e62fcabe6a4"
                        }
                    },
                    {
                        "item": {
                            "reference": "urn:uuid:b51e1e70-019c-4a5d-bf4d-7e0a6fffc17f"
                        }
                    },
                    {
                        "item": {
                            "reference": "urn:uuid:005fa441-95cf-4477-a33f-9fdeee9ce6d3"
                        }
                    },
                    {
                        "item": {
                            "reference": "urn:uuid:83094eff-019b-48d0-b83d-972649d7dfce"
                        }
                    },
                    {
                        "item": {
                            "reference": "urn:uuid:3ed223d5-4e34-4be1-9c9a-aaaa58f57a39"
                        }
                    },
                    {
                        "item": {
                            "reference": "urn:uuid:4da9c690-8707-4af0-8095-9094fd21db3e"
                        }
                    },
                    {
                        "item": {
                            "reference": "urn:uuid:4069938d-ccc5-4529-a534-c730fac74b1c"
                        }
                    },
                    {
                        "item": {
                            "reference": "urn:uuid:fa692faf-6d70-4cc3-b406-654dfd9b27fe"
                        }
                    },
                    {
                        "item": {
                            "reference": "urn:uuid:7aa84b5b-a797-4134-88a3-dc4445327ff5"
                        }
                    },
                    {
                        "item": {
                            "reference": "urn:uuid:623c08f7-901b-4190-a131-27dd1746b14f"
                        }
                    },
                    {
                        "item": {
                            "reference": "urn:uuid:632f3b99-540b-4fb2-ac54-4a0338c56db6"
                        }
                    },
                    {
                        "item": {
                            "reference": "urn:uuid:42cb7f7f-a0f0-43b1-ac2b-7fdd57b2a983"
                        }
                    },
                    {
                        "item": {
                            "reference": "urn:uuid:ce9bbf72-094c-4def-88e5-2d010b2f1064"
                        }
                    },
                    {
                        "item": {
                            "reference": "urn:uuid:acaef10d-006f-470f-bdf3-8b8ca16cdcf6"
                        }
                    },
                    {
                        "item": {
                            "reference": "urn:uuid:6098ed17-b4c9-4891-854f-395cbe530168"
                        }
                    },
                    {
                        "item": {
                            "reference": "urn:uuid:caf62af0-d9de-466a-aed3-08675a11a024"
                        }
                    },
                    {
                        "item": {
                            "reference": "urn:uuid:95a3ab79-e64d-4c37-addb-1e0ef04fd044"
                        }
                    },
                    {
                        "item": {
                            "reference": "urn:uuid:514a244c-b20c-4575-8bcc-773937d3a337"
                        }
                    },
                    {
                        "item": {
                            "reference": "urn:uuid:17782763-60c5-4a23-8758-5d830dba7641"
                        }
                    },
                    {
                        "item": {
                            "reference": "urn:uuid:6a55b6b5-42e9-4b75-a53c-e8956017db08"
                        }
                    },
                    {
                        "item": {
                            "reference": "urn:uuid:b231486f-dc97-4b82-99f7-fa08f076df64"
                        }
                    },
                    {
                        "item": {
                            "reference": "urn:uuid:5caba684-897b-48e5-adb0-fa8b4f958e40"
                        }
                    },
                    {
                        "item": {
                            "reference": "urn:uuid:c9de6533-67a8-40fb-b4dc-05e3f5008701"
                        }
                    },
                    {
                        "item": {
                            "reference": "urn:uuid:475d5495-6988-4077-85e3-54f5b015b26b"
                        }
                    },
                    {
                        "item": {
                            "reference": "urn:uuid:3d35dd81-1649-4a8d-ad67-863cfd22f95a"
                        }
                    },
                    {
                        "item": {
                            "reference": "urn:uuid:3e06cd9c-61d2-4646-9260-989eabae5c70"
                        }
                    },
                    {
                        "item": {
                            "reference": "urn:uuid:3436a803-283f-46f8-803c-18a107d7564d"
                        }
                    },
                    {
                        "item": {
                            "reference": "urn:uuid:3d80f6cb-da03-49ea-a6f2-758bf1c01270"
                        }
                    },
                    {
                        "item": {
                            "reference": "urn:uuid:4af6ec31-18c8-435e-82e4-95eea42d6f73"
                        }
                    },
                    {
                        "item": {
                            "reference": "urn:uuid:076f873d-0971-4e93-9bcc-20ba44408cee"
                        }
                    },
                    {
                        "item": {
                            "reference": "urn:uuid:e94be45e-d7fb-4bd1-8a34-e4165afe50e8"
                        }
                    },
                    {
                        "item": {
                            "reference": "urn:uuid:c694505c-6bbf-48ab-8aca-f773e05c9bf8"
                        }
                    },
                    {
                        "item": {
                            "reference": "urn:uuid:0eb6d4a7-426e-4e30-b9c4-a36a04c96306"
                        }
                    },
                    {
                        "item": {
                            "reference": "urn:uuid:924f3dcd-27c1-4b4e-8540-59c233652979"
                        }
                    },
                    {
                        "item": {
                            "reference": "urn:uuid:d8f14421-c0fd-481c-8193-4a798145ef15"
                        }
                    },
                    {
                        "item": {
                            "reference": "urn:uuid:1a1ceffa-284c-4331-8e49-6d0477f3fe23"
                        }
                    },
                    {
                        "item": {
                            "reference": "urn:uuid:32765ab6-98c7-4899-808d-256ad428377d"
                        }
                    },
                    {
                        "item": {
                            "reference": "urn:uuid:ab4e9ff0-92a1-4c9a-8c85-dd04f08a1fbb"
                        }
                    }
                ]
            }
        }
    ]
}
