{
    "resourceType": "Bundle",
    "identifier": {
        "type": {
            "text": "ClinicalDocument VersionNumber"
        },
        "value": "2"
    },
    "type": "message",
    "entry": [
        {
            "fullUrl": "urn:uuid:bde9c2c0-f102-461c-8613-7a77d14ad149",
            "resource": {
                "resourceType": "MessageHeader",
                "event": {
                    "system": "https://fhir.nhs.uk/STU3/CodeSystem/EventType-1",
                    "code": "referral-1",
                    "display": "Referral"
                },
                "destination": [
                    {
                        "endpoint": "urn:nhs-uk:addressing:ods:EM396:DOSServiceID:2000006423"
                    }
                ],
                "timestamp": "2021-08-04T12:24:14.079+02:00",
                "source": {
                    "name": "NHS 111 Adaptor",
                    "endpoint": "http://localhost:8080/report"
                },
                "reason": {
                    "coding": [
                        {
                            "system": "urn:nhs-itk:ns:201005:interaction",
                            "code": "urn:nhs-itk:interaction:primaryEmergencyDepartmentRecipientNHS111CDADocument-v2-0"
                        }
                    ]
                }
            }
        },
        {
            "fullUrl": "urn:uuid:dd8ed421-b045-4a88-a7cf-75e8161c60c8",
            "resource": {
                "resourceType": "Encounter",
                "identifier": [
                    {
                        "system": "2.16.840.1.113883.2.1.3.2.4.18.49",
                        "value": "LOC665"
                    },
                    {
                        "system": "2.16.840.1.113883.2.1.3.2.4.18.34",
                        "value": "CASEREF1234"
                    },
                    {
                        "system": "2.16.840.1.113883.2.1.3.2.4.18.35",
                        "value": "CASEID123"
                    }
                ],
                "status": "finished",
                "type": [
                    {
                        "text": "111 Encounter Referral"
                    }
                ],
                "subject": {
                    "reference": "urn:uuid:c8abc0a0-7760-4758-9292-0ad031e751ad"
                },
                "participant": [
                    {
                        "type": [
                            {
                                "text": "REFT"
                            }
                        ],
                        "individual": {
                            "reference": "urn:uuid:1610e4d9-5116-4c64-92d2-dc9f13c93cbd"
                        }
                    },
                    {
                        "type": [
                            {
                                "text": "CALLBCK"
                            }
                        ],
                        "individual": {
                            "reference": "urn:uuid:d6de9c13-ea49-49d2-bc37-956a63cc577e"
                        }
                    },
                    {
                        "individual": {
                            "reference": "urn:uuid:8ff556a6-e068-46be-b279-3e366c7f7aa2"
                        }
                    },
                    {
                        "individual": {
                            "reference": "urn:uuid:5384afbf-bc54-46a7-bc73-34af42eb7740"
                        }
                    },
                    {
                        "type": [
                            {
                                "text": "INF"
                            }
                        ],
                        "individual": {
                            "reference": "urn:uuid:3e5afe72-64ef-465e-bd8e-dc469833a743"
                        }
                    }
                ],
                "appointment": {
                    "reference": "urn:uuid:07f19dc8-5527-4012-b6bb-ce638265e2a9"
                },
                "period": {
                    "start": "2017-01-01T21:00:00+01:00"
                },
                "location": [
                    {
                        "location": {
                            "reference": "urn:uuid:856902e9-783a-4416-bc96-5ad149286bc3"
                        },
                        "status": "active"
                    }
                ],
                "serviceProvider": {
                    "reference": "urn:uuid:6d238d0b-57d4-45fc-835d-4c618780fd73"
                }
            }
        },
        {
            "fullUrl": "urn:uuid:6d238d0b-57d4-45fc-835d-4c618780fd73",
            "resource": {
                "resourceType": "Organization",
                "active": true,
                "type": [
                    {
                        "text": "CST"
                    }
                ],
                "name": "Medway NHS Foundation Trust"
            }
        },
        {
            "fullUrl": "urn:uuid:1610e4d9-5116-4c64-92d2-dc9f13c93cbd",
            "resource": {
                "resourceType": "Practitioner",
                "active": true,
                "telecom": [
                    {
                        "system": "phone",
                        "value": "tel:0123456789",
                        "use": "temp"
                    }
                ],
                "address": [
                    {
                        "type": "physical",
                        "line": [
                            "Church Street Walk in Centre",
                            "4 Church Street",
                            "Medway"
                        ],
                        "postalCode": "ME8 7TT"
                    }
                ]
            }
        },
        {
            "fullUrl": "urn:uuid:d6de9c13-ea49-49d2-bc37-956a63cc577e",
            "resource": {
                "resourceType": "Practitioner",
                "active": true,
                "name": [
                    {
                        "text": "Call Centre Manager"
                    }
                ],
                "telecom": [
                    {
                        "system": "phone",
                        "value": "tel:08001111111"
                    }
                ]
            }
        },
        {
            "fullUrl": "urn:uuid:8ff556a6-e068-46be-b279-3e366c7f7aa2",
            "resource": {
                "resourceType": "Practitioner",
                "active": true,
                "name": [
                    {
                        "use": "official",
                        "family": "Jones",
                        "given": [
                            "Mary"
                        ]
                    }
                ]
            }
        },
        {
            "fullUrl": "urn:uuid:5384afbf-bc54-46a7-bc73-34af42eb7740",
            "resource": {
                "resourceType": "Practitioner",
                "active": true,
                "name": [
                    {
                        "use": "official",
                        "family": "Cornwell",
                        "given": [
                            "Dave"
                        ]
                    }
                ]
            }
        },
        {
            "fullUrl": "urn:uuid:3e5afe72-64ef-465e-bd8e-dc469833a743",
            "resource": {
                "resourceType": "RelatedPerson",
                "active": true,
                "patient": {
                    "reference": "urn:uuid:c8abc0a0-7760-4758-9292-0ad031e751ad"
                },
                "name": [
                    {
                        "use": "official",
                        "family": "Bloggs",
                        "given": [
                            "Helga"
                        ]
                    }
                ],
                "telecom": [
                    {
                        "system": "phone",
                        "value": "tel:07886554123",
                        "use": "mobile"
                    },
                    {
                        "system": "phone",
                        "value": "tel:01783678321"
                    }
                ],
                "gender": "unknown",
                "address": [
                    {
                        "use": "home",
                        "line": [
                            "43 Summers Avenue",
                            "Somerset Street"
                        ],
                        "city": "Medway",
                        "postalCode": "ME5 7TY"
                    }
                ]
            }
        },
        {
            "fullUrl": "urn:uuid:856902e9-783a-4416-bc96-5ad149286bc3",
            "resource": {
                "resourceType": "Location",
                "managingOrganization": {
                    "reference": "urn:uuid:ee645670-0371-4f97-8a9c-d1aa8fdb73d2"
                }
            }
        },
        {
            "fullUrl": "urn:uuid:ee645670-0371-4f97-8a9c-d1aa8fdb73d2",
            "resource": {
                "resourceType": "Organization",
                "identifier": [
                    {
                        "value": "V396F"
                    }
                ],
                "type": [
                    {
                        "text": "GP Practice"
                    }
                ],
                "name": "Medway Medical Practice",
                "telecom": [
                    {
                        "system": "phone",
                        "value": "tel:01634111222",
                        "use": "work"
                    }
                ],
                "address": [
                    {
                        "use": "work",
                        "line": [
                            "Springer Street"
                        ],
                        "city": "Medway",
                        "postalCode": "ME5 5TY"
                    }
                ]
            }
        },
        {
            "fullUrl": "urn:uuid:c8abc0a0-7760-4758-9292-0ad031e751ad",
            "resource": {
                "resourceType": "Patient",
                "language": "en",
                "identifier": [
                    {
                        "extension": [
                            {
                                "url": "https://fhir.hl7.org.uk/STU3/StructureDefinition/Extension-CareConnect-NHSNumberVerificationStatus-1",
                                "valueCodeableConcept": {
                                    "coding": [
                                        {
                                            "system": "https://fhir.hl7.org.uk/STU3/StructureDefinition/Extension-CareConnect-NHSNumberVerificationStatus-1",
                                            "code": "02"
                                        }
                                    ]
                                }
                            }
                        ],
                        "system": "https://fhir.nhs.uk/Id/nhs-number",
                        "value": "993254128"
                    }
                ],
                "active": true,
                "name": [
                    {
                        "use": "official",
                        "family": "Joe",
                        "given": [
                            "Blogg"
                        ],
                        "prefix": [
                            "Mr"
                        ]
                    }
                ],
                "telecom": [
                    {
                        "system": "phone",
                        "value": "tel:01634775667",
                        "use": "home"
                    },
                    {
                        "system": "phone",
                        "value": "tel:01634451628",
                        "use": "home"
                    },
                    {
                        "system": "email",
                        "value": "mailto:Joe.Blogg@emailfree.co.uk",
                        "use": "home"
                    }
                ],
                "gender": "male",
                "birthDate": "1989-01-01",
                "address": [
                    {
                        "use": "home",
                        "line": [
                            "17, County Avenue",
                            "Woodtown"
                        ],
                        "city": "Medway",
                        "postalCode": "ME5 FS3"
                    }
                ],
                "generalPractitioner": [
                    {
                        "reference": "urn:uuid:9df968af-02d4-49d6-8e73-388fd538fc3e"
                    }
                ]
            }
        },
        {
            "fullUrl": "urn:uuid:9df968af-02d4-49d6-8e73-388fd538fc3e",
            "resource": {
                "resourceType": "Organization",
                "identifier": [
                    {
                        "value": "V396F"
                    }
                ],
                "type": [
                    {
                        "text": "GP Practice"
                    }
                ],
                "name": "Medway Medical Practice",
                "telecom": [
                    {
                        "system": "phone",
                        "value": "tel:01634111222",
                        "use": "work"
                    }
                ],
                "address": [
                    {
                        "use": "work",
                        "line": [
                            "Springer Street"
                        ],
                        "city": "Medway",
                        "postalCode": "ME5 5TY"
                    }
                ]
            }
        },
        {
            "fullUrl": "urn:uuid:c34698b0-c26a-4de8-a1b3-130dfe3691e9",
            "resource": {
                "resourceType": "HealthcareService",
                "active": true,
                "providedBy": {
                    "reference": "urn:uuid:c8fbb07f-61bb-4e65-b19a-c6c7190a4655"
                },
                "location": [
                    {
                        "reference": "urn:uuid:643971de-4127-4e60-a3ab-f0af27d095f2"
                    }
                ],
                "name": "Thames Medical Practice",
                "telecom": [
                    {
                        "system": "phone",
                        "value": "tel:0123476895",
                        "use": "work"
                    }
                ]
            }
        },
        {
            "fullUrl": "urn:uuid:643971de-4127-4e60-a3ab-f0af27d095f2",
            "resource": {
                "resourceType": "Location",
                "telecom": [
                    {
                        "system": "phone",
                        "value": "tel:0123476895",
                        "use": "work"
                    }
                ],
                "address": {
                    "use": "work",
                    "line": [
                        "Thames Medical Practice",
                        "Hill Street Branch Surgery",
                        "Medway",
                        "Essex"
                    ],
                    "postalCode": "ME4 5TT"
                },
                "managingOrganization": {
                    "reference": "urn:uuid:51bfa00c-c246-4af7-93d1-0c60a5e01b60"
                }
            }
        },
        {
            "fullUrl": "urn:uuid:c8fbb07f-61bb-4e65-b19a-c6c7190a4655",
            "resource": {
                "resourceType": "Organization",
                "identifier": [
                    {
                        "value": "PRA123"
                    }
                ],
                "name": "Thames Medical Practice"
            }
        },
        {
            "fullUrl": "urn:uuid:e4e4d6ab-4629-4fef-b465-bacd350da9d4",
            "resource": {
                "resourceType": "HealthcareService",
                "active": true,
                "providedBy": {
                    "reference": "urn:uuid:0c7d242e-b546-4df4-94e1-2bf88179764e"
                },
                "location": [
                    {
                        "reference": "urn:uuid:1aaf6d4d-d196-40df-9d36-248db8c1da68"
                    }
                ],
                "name": "Medway Kent Out of Hours Clinic"
            }
        },
        {
            "fullUrl": "urn:uuid:1aaf6d4d-d196-40df-9d36-248db8c1da68",
            "resource": {
                "resourceType": "Location",
                "managingOrganization": {
                    "reference": "urn:uuid:214a0137-5c3d-40ec-9e1e-db1766fa45c5"
                }
            }
        },
        {
            "fullUrl": "urn:uuid:0c7d242e-b546-4df4-94e1-2bf88179764e",
            "resource": {
                "resourceType": "Organization",
                "identifier": [
                    {
                        "value": "EM396"
                    }
                ],
                "name": "Medway Kent Out of Hours Clinic"
            }
        },
        {
            "fullUrl": "urn:uuid:673955cf-1107-4ab5-a21b-a78b3b2042aa",
            "resource": {
                "resourceType": "ReferralRequest",
                "status": "active",
                "intent": "plan",
                "priority": "routine",
                "subject": {
                    "reference": "urn:uuid:c8abc0a0-7760-4758-9292-0ad031e751ad"
                },
                "context": {
                    "reference": "urn:uuid:dd8ed421-b045-4a88-a7cf-75e8161c60c8"
                },
                "occurrencePeriod": {
                    "start": "2021-08-04T12:24:14+02:00",
                    "end": "2021-08-04T13:24:14+02:00"
                },
                "authoredOn": "2021-08-04T12:24:14+02:00",
                "requester": {
                    "agent": {
                        "reference": "Device/1"
                    },
                    "onBehalfOf": {
                        "reference": "urn:uuid:6d238d0b-57d4-45fc-835d-4c618780fd73"
                    }
                },
                "recipient": [
                    {
                        "reference": "urn:uuid:c34698b0-c26a-4de8-a1b3-130dfe3691e9"
                    },
                    {
                        "reference": "urn:uuid:e4e4d6ab-4629-4fef-b465-bacd350da9d4"
                    }
                ],
                "reasonReference": [
                    {
                        "reference": "urn:uuid:65b9eb3e-a293-4907-a5a2-eb45e2cc25d1"
                    }
                ],
                "supportingInfo": [
                    {
                        "reference": "urn:uuid:cb67ffda-1e49-41c6-a5ab-e058f20a68df"
                    }
                ]
            }
        },
        {
            "fullUrl": "urn:uuid:cb67ffda-1e49-41c6-a5ab-e058f20a68df",
            "resource": {
                "resourceType": "ProcedureRequest",
                "status": "active",
                "intent": "plan",
                "priority": "routine",
                "doNotPerform": false,
                "code": {
                    "coding": [
                        {
                            "system": "2.16.840.1.113883.2.1.3.2.4.17.325",
                            "code": "Dx001",
                            "display": "Passed onto clinical hub"
                        }
                    ]
                },
                "subject": {
                    "reference": "urn:uuid:c8abc0a0-7760-4758-9292-0ad031e751ad"
                },
                "occurrencePeriod": {
                    "start": "2021-08-04T12:24:14+02:00",
                    "end": "2021-08-04T13:24:14+02:00"
                },
                "reasonReference": [
                    {
                        "reference": "urn:uuid:65b9eb3e-a293-4907-a5a2-eb45e2cc25d1"
                    }
                ]
            }
        },
        {
            "fullUrl": "urn:uuid:fad93b2d-bea6-4869-bcfd-ec010b0343c1",
            "resource": {
                "resourceType": "Composition",
                "identifier": {
                    "use": "usual",
                    "value": "411910CF-1A76-4330-98FE-C345DDEE5553"
                },
                "status": "final",
                "type": {
                    "coding": [
                        {
                            "system": "http://snomed.info/sct",
                            "code": "371531000",
                            "display": "Report of clinical encounter (record artifact)"
                        }
                    ]
                },
                "subject": {
                    "reference": "urn:uuid:c8abc0a0-7760-4758-9292-0ad031e751ad"
                },
                "encounter": {
                    "reference": "urn:uuid:dd8ed421-b045-4a88-a7cf-75e8161c60c8"
                },
                "date": "2021-08-04T12:24:14+02:00",
                "author": [
                    {
                        "reference": "urn:uuid:8ff556a6-e068-46be-b279-3e366c7f7aa2"
                    }
                ],
                "title": "111 Report",
                "confidentiality": "V",
                "section": [
                    {
                        "section": [
                            {
                                "title": "Permission to View",
                                "text": {
                                    "status": "generated",
                                    "div": "<div xmlns=\"http://www.w3.org/1999/xhtml\">\n                                                    &lt;table xmlns=&quot;urn:hl7-org:v3&quot; xmlns:npfitlc=&quot;NPFIT:HL7:Localisation&quot;&gt;\n                                                        &lt;tbody&gt;\n                                                            &lt;tr&gt;\n                                                                &lt;th&gt;Permission to view outcome&lt;/th&gt;\n                                                                &lt;td&gt;Permission to view obtained&lt;/td&gt;\n                                                            &lt;/tr&gt;\n                                                            &lt;tr&gt;\n                                                                &lt;th&gt;Date obtained&lt;/th&gt;\n                                                                &lt;td&gt;01-Jan-2017, 20:00&lt;/td&gt;\n                                                            &lt;/tr&gt;\n                                                            &lt;tr&gt;\n                                                                &lt;th&gt;Date expires&lt;/th&gt;\n                                                                &lt;td&gt;15-Jan-2017, 20:00&lt;/td&gt;\n                                                            &lt;/tr&gt;\n                                                        &lt;/tbody&gt;\n                                                    &lt;/table&gt;\n                                                </div>"
                                }
                            },
                            {
                                "title": "Primary Reason for Call",
                                "text": {
                                    "status": "generated",
                                    "div": "<div xmlns=\"http://www.w3.org/1999/xhtml\">\n                                                    &lt;content xmlns=&quot;urn:hl7-org:v3&quot; xmlns:npfitlc=&quot;NPFIT:HL7:Localisation&quot;&gt;Patient feels dizzy.&lt;/content&gt;\n                                                </div>"
                                },
                                "section": [
                                    {
                                        "title": "SUBSUB2",
                                        "text": {
                                            "status": "generated",
                                            "div": "<div xmlns=\"http://www.w3.org/1999/xhtml\">\n                                                            &lt;content xmlns=&quot;urn:hl7-org:v3&quot; xmlns:npfitlc=&quot;NPFIT:HL7:Localisation&quot;&gt;SUBSUB2&lt;/content&gt;\n                                                        </div>"
                                        },
                                        "section": [
                                            {
                                                "title": "SUBSUB3",
                                                "text": {
                                                    "status": "generated",
                                                    "div": "<div xmlns=\"http://www.w3.org/1999/xhtml\">\n                                                                    &lt;content xmlns=&quot;urn:hl7-org:v3&quot; xmlns:npfitlc=&quot;NPFIT:HL7:Localisation&quot;&gt;SUBSUB3&lt;/content&gt;\n                                                                </div>"
                                                }
                                            }
                                        ]
                                    }
                                ]
                            },
                            {
                                "title": "Clinical Summary",
                                "text": {
                                    "status": "generated",
                                    "div": "<div xmlns=\"http://www.w3.org/1999/xhtml\">\n                                                    &lt;content xmlns=&quot;urn:hl7-org:v3&quot; xmlns:npfitlc=&quot;NPFIT:HL7:Localisation&quot;&gt;\n                                                        Patient fels nausea and dizzy after waking up. Lasted 30\n                                                        minutes.\n                                                    &lt;/content&gt;\n                                                </div>"
                                }
                            },
                            {
                                "title": "Additional Patient Notes",
                                "text": {
                                    "status": "generated",
                                    "div": "<div xmlns=\"http://www.w3.org/1999/xhtml\">&lt;xml-fragment xmlns:npfitlc=&quot;NPFIT:HL7:Localisation&quot;&gt;\n                                                    Additional Patient Notes\n                                                    &lt;urn:br xmlns:urn=&quot;urn:hl7-org:v3&quot;/&gt;\n                                                    Additional Patient Notes abc 01-Feb-2017, 12:00\n                                                    &lt;urn:br xmlns:urn=&quot;urn:hl7-org:v3&quot;/&gt;\n                                                &lt;/xml-fragment&gt;</div>"
                                },
                                "section": [
                                    {
                                        "text": {
                                            "status": "generated",
                                            "div": "<div xmlns=\"http://www.w3.org/1999/xhtml\">&lt;xml-fragment xmlns:npfitlc=&quot;NPFIT:HL7:Localisation&quot;&gt;These are more notes, nested under the top one.&lt;/xml-fragment&gt;</div>"
                                        }
                                    }
                                ]
                            },
                            {
                                "title": "Disposition Details",
                                "text": {
                                    "status": "generated",
                                    "div": "<div xmlns=\"http://www.w3.org/1999/xhtml\">\n                                                    &lt;content xmlns=&quot;urn:hl7-org:v3&quot; xmlns:npfitlc=&quot;NPFIT:HL7:Localisation&quot;&gt;Lie down.&lt;/content&gt;\n                                                </div>"
                                }
                            },
                            {
                                "title": "Information and advice given",
                                "text": {
                                    "status": "generated",
                                    "div": "<div xmlns=\"http://www.w3.org/1999/xhtml\">\n                                                    &lt;content xmlns=&quot;urn:hl7-org:v3&quot; xmlns:npfitlc=&quot;NPFIT:HL7:Localisation&quot;&gt;Do not perform any strenuous activities.&lt;/content&gt;\n                                                </div>"
                                }
                            },
                            {
                                "title": "Recorded Allergies",
                                "text": {
                                    "status": "generated",
                                    "div": "<div xmlns=\"http://www.w3.org/1999/xhtml\">\n                                                    &lt;content xmlns=&quot;urn:hl7-org:v3&quot; xmlns:npfitlc=&quot;NPFIT:HL7:Localisation&quot;&gt;No known allergies or adverse reaction.&lt;/content&gt;\n                                                </div>"
                                }
                            },
                            {
                                "title": "Triage Report",
                                "text": {
                                    "status": "generated",
                                    "div": "<div xmlns=\"http://www.w3.org/1999/xhtml\">\n                                                    &lt;content xmlns=&quot;urn:hl7-org:v3&quot; xmlns:npfitlc=&quot;NPFIT:HL7:Localisation&quot;&gt;An injury or other health problem was described.\n                                                        &lt;br/&gt;The individual was described as breathing and conscious.\n                                                        &lt;br/&gt;Loss of at least a mugful of blood in the last 30 minutes\n                                                        was not described.\n                                                        &lt;br/&gt;An illness or other health problem was described. -\n                                                        Dizziness\n                                                        &lt;br/&gt;Fighting for breath was not described.\n                                                        &lt;br/&gt;A heart attack, chest/upper back pain, recent probable\n                                                        stroke, recent fit/seizure or suicide attempt was not described\n                                                        as the main call reason.\n                                                        &lt;br/&gt;Dizziness and nausea was described.\n                                                        &lt;br/&gt;\n                                                    &lt;/content&gt;\n                                                </div>"
                                }
                            },
                            {
                                "title": "Prescribed Items",
                                "text": {
                                    "status": "generated",
                                    "div": "<div xmlns=\"http://www.w3.org/1999/xhtml\">\n                                                    &lt;content xmlns=&quot;urn:hl7-org:v3&quot; xmlns:npfitlc=&quot;NPFIT:HL7:Localisation&quot;&gt;\n                                                        Medications\n                                                    &lt;/content&gt;\n                                                </div>"
                                }
                            },
                            {
                                "title": "Appointment Reference",
                                "text": {
                                    "status": "generated",
                                    "div": "<div xmlns=\"http://www.w3.org/1999/xhtml\">\n                                                    &lt;content xmlns=&quot;urn:hl7-org:v3&quot; xmlns:npfitlc=&quot;NPFIT:HL7:Localisation&quot;&gt;\n                                                        Date/Time: 01 June 2017 14:00\n                                                        Location: CENTRAL LONDON COMMUNITY HEALTHCARE NHS TRUST\n                                                        Psychiatric Community Care Service\n                                                    &lt;/content&gt;\n                                                </div>"
                                }
                            }
                        ]
                    },
                    {
                        "title": "CarePlan",
                        "entry": [
                            {
                                "reference": "urn:uuid:c184aa2b-6fde-4eb1-b281-067d64c53af8"
                            }
                        ]
                    },
                    {
                        "title": "ReferralRequest",
                        "entry": [
                            {
                                "reference": "urn:uuid:673955cf-1107-4ab5-a21b-a78b3b2042aa"
                            }
                        ]
                    },
                    {
                        "title": "QuestionnaireResponse",
                        "entry": [
                            {
                                "reference": "urn:uuid:4ca88bad-e905-438e-beb8-c7a85f239b4d"
                            }
                        ]
                    },
                    {
                        "title": "QuestionnaireResponse",
                        "entry": [
                            {
                                "reference": "urn:uuid:dfd6ea6f-162c-45f2-a413-78b5e5588f3a"
                            }
                        ]
                    },
                    {
                        "title": "QuestionnaireResponse",
                        "entry": [
                            {
                                "reference": "urn:uuid:3fefbcbe-0275-425c-b1a6-233e44ffde27"
                            }
                        ]
                    },
                    {
                        "title": "QuestionnaireResponse",
                        "entry": [
                            {
                                "reference": "urn:uuid:de458496-ba38-4d27-98d9-2de581ad7b01"
                            }
                        ]
                    },
                    {
                        "title": "QuestionnaireResponse",
                        "entry": [
                            {
                                "reference": "urn:uuid:ae01765b-d4e0-47c7-b494-d161d2cdd9a1"
                            }
                        ]
                    },
                    {
                        "title": "QuestionnaireResponse",
                        "entry": [
                            {
                                "reference": "urn:uuid:299764f7-b57e-40da-b196-4eb5f9e690bf"
                            }
                        ]
                    },
                    {
                        "title": "QuestionnaireResponse",
                        "entry": [
                            {
                                "reference": "urn:uuid:cd120eb5-23cc-4bc7-8b25-2a55f164877e"
                            }
                        ]
                    },
                    {
                        "title": "QuestionnaireResponse",
                        "entry": [
                            {
                                "reference": "urn:uuid:32e04860-b361-4eca-9c55-dd0c050c1e4e"
                            }
                        ]
                    },
                    {
                        "title": "QuestionnaireResponse",
                        "entry": [
                            {
                                "reference": "urn:uuid:8f67d93c-c2e7-4ef8-abcd-8c9ddd6ca452"
                            }
                        ]
                    },
                    {
                        "title": "QuestionnaireResponse",
                        "entry": [
                            {
                                "reference": "urn:uuid:b5a535eb-ad6d-4393-b94d-3a00164c0eb8"
                            }
                        ]
                    },
                    {
                        "title": "QuestionnaireResponse",
                        "entry": [
                            {
                                "reference": "urn:uuid:4f9b6c9f-b672-40cc-9c9a-56bed5f6ab3e"
                            }
                        ]
                    },
                    {
                        "title": "QuestionnaireResponse",
                        "entry": [
                            {
                                "reference": "urn:uuid:4ba00b5c-48e7-465f-86df-82ce064076c1"
                            }
                        ]
                    },
                    {
                        "title": "QuestionnaireResponse",
                        "entry": [
                            {
                                "reference": "urn:uuid:b9c7e1ce-fcc7-4c4b-b684-570f49a99829"
                            }
                        ]
                    },
                    {
                        "title": "QuestionnaireResponse",
                        "entry": [
                            {
                                "reference": "urn:uuid:9af4ed0f-18bb-41bc-8dc0-267f6e30878e"
                            }
                        ]
                    },
                    {
                        "title": "QuestionnaireResponse",
                        "entry": [
                            {
                                "reference": "urn:uuid:bf44db34-0f08-4851-a7b5-189e40c0ef3f"
                            }
                        ]
                    },
                    {
                        "title": "QuestionnaireResponse",
                        "entry": [
                            {
                                "reference": "urn:uuid:196db114-82b6-4d9b-aff4-f191c6d8af71"
                            }
                        ]
                    },
                    {
                        "title": "QuestionnaireResponse",
                        "entry": [
                            {
                                "reference": "urn:uuid:8b27c2be-abd3-4e13-af3c-56123900bf85"
                            }
                        ]
                    },
                    {
                        "title": "QuestionnaireResponse",
                        "entry": [
                            {
                                "reference": "urn:uuid:b274dba1-3a8f-4984-b09a-a1628887a35c"
                            }
                        ]
                    },
                    {
                        "title": "QuestionnaireResponse",
                        "entry": [
                            {
                                "reference": "urn:uuid:1f0dfe89-2b47-44e6-9795-79a1945f6630"
                            }
                        ]
                    },
                    {
                        "title": "QuestionnaireResponse",
                        "entry": [
                            {
                                "reference": "urn:uuid:a65105e6-61b1-4f8f-987f-01ef13d2c21d"
                            }
                        ]
                    },
                    {
                        "title": "QuestionnaireResponse",
                        "entry": [
                            {
                                "reference": "urn:uuid:87bbd84b-bb2b-41ad-913b-5b745296361c"
                            }
                        ]
                    },
                    {
                        "title": "QuestionnaireResponse",
                        "entry": [
                            {
                                "reference": "urn:uuid:543bbe28-fd31-4bf7-9480-e1ba23787f4d"
                            }
                        ]
                    },
                    {
                        "title": "QuestionnaireResponse",
                        "entry": [
                            {
                                "reference": "urn:uuid:785a3321-19c9-4b53-8250-9ca4a6896f3b"
                            }
                        ]
                    },
                    {
                        "title": "QuestionnaireResponse",
                        "entry": [
                            {
                                "reference": "urn:uuid:b5de2b0c-c433-4c18-9a32-1016b769a32c"
                            }
                        ]
                    }
                ]
            }
        },
        {
            "fullUrl": "urn:uuid:c184aa2b-6fde-4eb1-b281-067d64c53af8",
            "resource": {
                "resourceType": "CarePlan",
                "status": "completed",
                "intent": "plan",
                "title": "Information and advice given",
                "description": "Do not perform any strenuous activities.",
                "subject": {
                    "reference": "urn:uuid:c8abc0a0-7760-4758-9292-0ad031e751ad"
                },
                "context": {
                    "reference": "urn:uuid:dd8ed421-b045-4a88-a7cf-75e8161c60c8"
                },
                "period": {
                    "start": "2017-01-01T21:00:00+01:00"
                },
                "author": [
                    {
                        "reference": "urn:uuid:ee645670-0371-4f97-8a9c-d1aa8fdb73d2"
                    }
                ],
                "addresses": [
                    {
                        "reference": "urn:uuid:65b9eb3e-a293-4907-a5a2-eb45e2cc25d1"
                    }
                ]
            }
        },
        {
            "fullUrl": "urn:uuid:8376a5c3-52f3-4c2c-8a8d-a49687df3582",
            "resource": {
                "resourceType": "Consent",
                "text": {
                    "status": "generated",
                    "div": "<div xmlns=\"http://www.w3.org/1999/xhtml\">\n                                                    <table>\n                                                        <tbody>\n                                                            <tr>\n                                                                <th>Permission to view outcome</th>\n                                                                <td>Permission to view obtained</td>\n                                                            </tr>\n                                                            <tr>\n                                                                <th>Date obtained</th>\n                                                                <td>01-Jan-2017, 20:00</td>\n                                                            </tr>\n                                                            <tr>\n                                                                <th>Date expires</th>\n                                                                <td>15-Jan-2017, 20:00</td>\n                                                            </tr>\n                                                        </tbody>\n                                                    </table>\n                                                </div>"
                },
                "identifier": {
                    "use": "usual",
                    "value": "411910CF-1A76-4330-98FE-C345DDEE5553"
                },
                "status": "active",
                "patient": {
                    "reference": "urn:uuid:c8abc0a0-7760-4758-9292-0ad031e751ad"
                },
                "period": {
                    "start": "2017-01-01T21:00:00+01:00"
                },
                "consentingParty": [
                    {
                        "reference": "urn:uuid:c8abc0a0-7760-4758-9292-0ad031e751ad"
                    }
                ],
                "action": [
                    {
                        "coding": [
                            {
                                "system": "http://snomed.info/sct",
                                "code": "425691002",
                                "display": "Consent given for electronic record sharing"
                            }
                        ],
                        "text": "Consent given for electronic record sharing"
                    }
                ],
                "organization": [
                    {
                        "reference": "urn:uuid:6d238d0b-57d4-45fc-835d-4c618780fd73"
                    }
                ],
                "sourceIdentifier": {
                    "value": "41D9F90F-6DB7-4939-BEF5-F8D75D79ECDD"
                },
                "policyRule": "http://hl7.org/fhir/ConsentPolicy/opt-out",
                "dataPeriod": {
                    "start": "2011-05-19T22:00:00+02:00",
                    "end": "2011-05-26T22:00:00+02:00"
                },
                "data": [
                    {
                        "meaning": "related",
                        "reference": {
                            "reference": "urn:uuid:dd8ed421-b045-4a88-a7cf-75e8161c60c8"
                        }
                    }
                ]
            }
        },
        {
            "fullUrl": "urn:uuid:65b9eb3e-a293-4907-a5a2-eb45e2cc25d1",
            "resource": {
                "resourceType": "Condition",
                "clinicalStatus": "active",
                "verificationStatus": "unknown",
                "code": {
                    "coding": [
                        {
                            "system": "22298006",
                            "code": "2.16.840.1.113883.2.1.3.2.4.15",
                            "display": "Myocardial infarction"
                        }
                    ]
                },
                "subject": {
                    "reference": "urn:uuid:c8abc0a0-7760-4758-9292-0ad031e751ad"
                },
                "context": {
                    "reference": "urn:uuid:dd8ed421-b045-4a88-a7cf-75e8161c60c8"
                },
                "assertedDate": "2017-06-01T16:00:00+02:00",
                "evidence": [
                    {
                        "detail": [
                            {
                                "reference": "urn:uuid:4ca88bad-e905-438e-beb8-c7a85f239b4d"
                            }
                        ]
                    },
                    {
                        "detail": [
                            {
                                "reference": "urn:uuid:dfd6ea6f-162c-45f2-a413-78b5e5588f3a"
                            }
                        ]
                    },
                    {
                        "detail": [
                            {
                                "reference": "urn:uuid:3fefbcbe-0275-425c-b1a6-233e44ffde27"
                            }
                        ]
                    },
                    {
                        "detail": [
                            {
                                "reference": "urn:uuid:de458496-ba38-4d27-98d9-2de581ad7b01"
                            }
                        ]
                    },
                    {
                        "detail": [
                            {
                                "reference": "urn:uuid:ae01765b-d4e0-47c7-b494-d161d2cdd9a1"
                            }
                        ]
                    },
                    {
                        "detail": [
                            {
                                "reference": "urn:uuid:299764f7-b57e-40da-b196-4eb5f9e690bf"
                            }
                        ]
                    },
                    {
                        "detail": [
                            {
                                "reference": "urn:uuid:cd120eb5-23cc-4bc7-8b25-2a55f164877e"
                            }
                        ]
                    },
                    {
                        "detail": [
                            {
                                "reference": "urn:uuid:32e04860-b361-4eca-9c55-dd0c050c1e4e"
                            }
                        ]
                    },
                    {
                        "detail": [
                            {
                                "reference": "urn:uuid:8f67d93c-c2e7-4ef8-abcd-8c9ddd6ca452"
                            }
                        ]
                    },
                    {
                        "detail": [
                            {
                                "reference": "urn:uuid:b5a535eb-ad6d-4393-b94d-3a00164c0eb8"
                            }
                        ]
                    },
                    {
                        "detail": [
                            {
                                "reference": "urn:uuid:4f9b6c9f-b672-40cc-9c9a-56bed5f6ab3e"
                            }
                        ]
                    },
                    {
                        "detail": [
                            {
                                "reference": "urn:uuid:4ba00b5c-48e7-465f-86df-82ce064076c1"
                            }
                        ]
                    },
                    {
                        "detail": [
                            {
                                "reference": "urn:uuid:b9c7e1ce-fcc7-4c4b-b684-570f49a99829"
                            }
                        ]
                    },
                    {
                        "detail": [
                            {
                                "reference": "urn:uuid:9af4ed0f-18bb-41bc-8dc0-267f6e30878e"
                            }
                        ]
                    },
                    {
                        "detail": [
                            {
                                "reference": "urn:uuid:bf44db34-0f08-4851-a7b5-189e40c0ef3f"
                            }
                        ]
                    },
                    {
                        "detail": [
                            {
                                "reference": "urn:uuid:196db114-82b6-4d9b-aff4-f191c6d8af71"
                            }
                        ]
                    },
                    {
                        "detail": [
                            {
                                "reference": "urn:uuid:8b27c2be-abd3-4e13-af3c-56123900bf85"
                            }
                        ]
                    },
                    {
                        "detail": [
                            {
                                "reference": "urn:uuid:b274dba1-3a8f-4984-b09a-a1628887a35c"
                            }
                        ]
                    },
                    {
                        "detail": [
                            {
                                "reference": "urn:uuid:1f0dfe89-2b47-44e6-9795-79a1945f6630"
                            }
                        ]
                    },
                    {
                        "detail": [
                            {
                                "reference": "urn:uuid:a65105e6-61b1-4f8f-987f-01ef13d2c21d"
                            }
                        ]
                    },
                    {
                        "detail": [
                            {
                                "reference": "urn:uuid:87bbd84b-bb2b-41ad-913b-5b745296361c"
                            }
                        ]
                    },
                    {
                        "detail": [
                            {
                                "reference": "urn:uuid:543bbe28-fd31-4bf7-9480-e1ba23787f4d"
                            }
                        ]
                    },
                    {
                        "detail": [
                            {
                                "reference": "urn:uuid:785a3321-19c9-4b53-8250-9ca4a6896f3b"
                            }
                        ]
                    },
                    {
                        "detail": [
                            {
                                "reference": "urn:uuid:b5de2b0c-c433-4c18-9a32-1016b769a32c"
                            }
                        ]
                    }
                ]
            }
        },
        {
            "fullUrl": "urn:uuid:4ca88bad-e905-438e-beb8-c7a85f239b4d",
            "resource": {
                "resourceType": "QuestionnaireResponse",
                "identifier": {
                    "value": "8067b9b2-e604-4414-b56f-8e3cc4de4b1b"
                },
                "questionnaire": {
                    "reference": "urn:uuid:201f26f8-c199-465b-b20d-f4afc562ed52"
                },
                "status": "completed",
                "subject": {
                    "reference": "urn:uuid:c8abc0a0-7760-4758-9292-0ad031e751ad"
                },
                "context": {
                    "reference": "urn:uuid:dd8ed421-b045-4a88-a7cf-75e8161c60c8"
                },
                "authored": "2011-02-17T01:00:00+01:00",
                "item": [
                    {
                        "linkId": "N/A"
                    }
                ]
            }
        },
        {
            "fullUrl": "urn:uuid:201f26f8-c199-465b-b20d-f4afc562ed52",
            "resource": {
                "resourceType": "Questionnaire",
                "identifier": [
                    {
                        "value": "8067b9b2-e604-4414-b56f-8e3cc4de4b1b"
                    }
                ],
                "version": "Thu Feb 17 01:00:00 CET 2011",
                "status": "active",
                "experimental": false,
                "date": "2011-02-17T01:00:00+01:00",
                "publisher": "User ID: '3137' User name: 'redacted' User skill set: 'T1'",
                "lastReviewDate": "2011-02-17",
                "jurisdiction": [
                    {
                        "text": "England"
                    }
                ],
                "contact": [
                    {
                        "telecom": [
                            {
                                "value": "redacted"
                            }
                        ]
                    }
                ],
                "subjectType": [
                    "Patient"
                ],
                "item": [
                    {
                        "linkId": "8067b9b2-e604-4414-b56f-8e3cc4de4b1b",
                        "prefix": "0",
                        "type": "choice",
                        "required": true,
                        "repeats": false,
                        "option": [
                            {
                                "valueString": ", Selected: false"
                            }
                        ]
                    }
                ]
            }
        },
        {
            "fullUrl": "urn:uuid:dfd6ea6f-162c-45f2-a413-78b5e5588f3a",
            "resource": {
                "resourceType": "QuestionnaireResponse",
                "identifier": {
                    "value": "8067b9b2-e604-4414-b56f-8e3cc4de4b1b"
                },
                "questionnaire": {
                    "reference": "urn:uuid:acf107fc-4d98-4fae-b084-f96634cf7916"
                },
                "status": "completed",
                "subject": {
                    "reference": "urn:uuid:c8abc0a0-7760-4758-9292-0ad031e751ad"
                },
                "context": {
                    "reference": "urn:uuid:dd8ed421-b045-4a88-a7cf-75e8161c60c8"
                },
                "authored": "2011-02-17T01:00:00+01:00",
                "item": [
                    {
                        "linkId": "N/A"
                    }
                ]
            }
        },
        {
            "fullUrl": "urn:uuid:acf107fc-4d98-4fae-b084-f96634cf7916",
            "resource": {
                "resourceType": "Questionnaire",
                "identifier": [
                    {
                        "value": "8067b9b2-e604-4414-b56f-8e3cc4de4b1b"
                    }
                ],
                "version": "Thu Feb 17 01:00:00 CET 2011",
                "status": "active",
                "experimental": false,
                "date": "2011-02-17T01:00:00+01:00",
                "publisher": "User ID: '3137' User name: 'redacted' User skill set: 'T1'",
                "lastReviewDate": "2011-02-17",
                "jurisdiction": [
                    {
                        "text": "England"
                    }
                ],
                "contact": [
                    {
                        "telecom": [
                            {
                                "value": "redacted"
                            }
                        ]
                    }
                ],
                "subjectType": [
                    "Patient"
                ],
                "item": [
                    {
                        "linkId": "8067b9b2-e604-4414-b56f-8e3cc4de4b1b",
                        "prefix": "0",
                        "type": "choice",
                        "required": true,
                        "repeats": false,
                        "option": [
                            {
                                "valueString": ", Selected: false"
                            }
                        ]
                    }
                ]
            }
        },
        {
            "fullUrl": "urn:uuid:3fefbcbe-0275-425c-b1a6-233e44ffde27",
            "resource": {
                "resourceType": "QuestionnaireResponse",
                "identifier": {
                    "value": "8067b9b2-e604-4414-b56f-8e3cc4de4b1b"
                },
                "questionnaire": {
                    "reference": "urn:uuid:fa501650-2587-4d1f-ab54-f3fd341740dd"
                },
                "status": "completed",
                "subject": {
                    "reference": "urn:uuid:c8abc0a0-7760-4758-9292-0ad031e751ad"
                },
                "context": {
                    "reference": "urn:uuid:dd8ed421-b045-4a88-a7cf-75e8161c60c8"
                },
                "authored": "2011-02-17T01:00:00+01:00",
                "item": [
                    {
                        "linkId": "Tx220109",
                        "text": "What is the reason for the call?",
                        "answer": [
                            {
                                "valueString": "an injury or other health problem"
                            }
                        ]
                    }
                ]
            }
        },
        {
            "fullUrl": "urn:uuid:fa501650-2587-4d1f-ab54-f3fd341740dd",
            "resource": {
                "resourceType": "Questionnaire",
                "identifier": [
                    {
                        "value": "8067b9b2-e604-4414-b56f-8e3cc4de4b1b"
                    }
                ],
                "version": "Thu Feb 17 01:00:00 CET 2011",
                "status": "active",
                "experimental": false,
                "date": "2011-02-17T01:00:00+01:00",
                "publisher": "User ID: '3137' User name: 'redacted' User skill set: 'T1'",
                "lastReviewDate": "2011-02-17",
                "jurisdiction": [
                    {
                        "text": "England"
                    }
                ],
                "contact": [
                    {
                        "telecom": [
                            {
                                "value": "redacted"
                            }
                        ]
                    }
                ],
                "subjectType": [
                    "Patient"
                ],
                "item": [
                    {
                        "linkId": "8067b9b2-e604-4414-b56f-8e3cc4de4b1b",
                        "prefix": "5",
                        "text": "What is the reason for the call?",
                        "type": "choice",
                        "required": true,
                        "repeats": false,
                        "option": [
                            {
                                "valueString": "an injury or other health problem, Selected: true"
                            },
                            {
                                "valueString": "a need to access another healthcare provider, Selected: false"
                            },
                            {
                                "valueString": "a healthcare professional requesting contact with another clinician, Selected: false"
                            },
                            {
                                "valueString": "a report of results or tests, Selected: false"
                            },
                            {
                                "valueString": "more, Selected: false"
                            }
                        ]
                    }
                ]
            }
        },
        {
            "fullUrl": "urn:uuid:de458496-ba38-4d27-98d9-2de581ad7b01",
            "resource": {
                "resourceType": "QuestionnaireResponse",
                "identifier": {
                    "value": "8067b9b2-e604-4414-b56f-8e3cc4de4b1b"
                },
                "questionnaire": {
                    "reference": "urn:uuid:61e5153b-41c1-4b37-8a82-a8833bc52955"
                },
                "status": "completed",
                "subject": {
                    "reference": "urn:uuid:c8abc0a0-7760-4758-9292-0ad031e751ad"
                },
                "context": {
                    "reference": "urn:uuid:dd8ed421-b045-4a88-a7cf-75e8161c60c8"
                },
                "authored": "2011-02-17T01:00:00+01:00",
                "item": [
                    {
                        "linkId": "Tx140118",
                        "text": "Has the baby just been born?",
                        "answer": [
                            {
                                "valueString": "no"
                            }
                        ]
                    }
                ]
            }
        },
        {
            "fullUrl": "urn:uuid:61e5153b-41c1-4b37-8a82-a8833bc52955",
            "resource": {
                "resourceType": "Questionnaire",
                "identifier": [
                    {
                        "value": "8067b9b2-e604-4414-b56f-8e3cc4de4b1b"
                    }
                ],
                "version": "Thu Feb 17 01:00:00 CET 2011",
                "status": "active",
                "experimental": false,
                "date": "2011-02-17T01:00:00+01:00",
                "publisher": "User ID: '3137' User name: 'redacted' User skill set: 'T1'",
                "lastReviewDate": "2011-02-17",
                "jurisdiction": [
                    {
                        "text": "England"
                    }
                ],
                "contact": [
                    {
                        "telecom": [
                            {
                                "value": "redacted"
                            }
                        ]
                    }
                ],
                "subjectType": [
                    "Patient"
                ],
                "item": [
                    {
                        "linkId": "8067b9b2-e604-4414-b56f-8e3cc4de4b1b",
                        "prefix": "35",
                        "text": "Has the baby just been born?",
                        "type": "choice",
                        "required": true,
                        "repeats": false,
                        "option": [
                            {
                                "valueString": "yes, Selected: false"
                            },
                            {
                                "valueString": "not sure, Selected: false"
                            },
                            {
                                "valueString": "no, Selected: true"
                            }
                        ]
                    }
                ]
            }
        },
        {
            "fullUrl": "urn:uuid:ae01765b-d4e0-47c7-b494-d161d2cdd9a1",
            "resource": {
                "resourceType": "QuestionnaireResponse",
                "identifier": {
                    "value": "8067b9b2-e604-4414-b56f-8e3cc4de4b1b"
                },
                "questionnaire": {
                    "reference": "urn:uuid:57f62e30-351a-4d35-9f66-31df27ac6d6c"
                },
                "status": "completed",
                "subject": {
                    "reference": "urn:uuid:c8abc0a0-7760-4758-9292-0ad031e751ad"
                },
                "context": {
                    "reference": "urn:uuid:dd8ed421-b045-4a88-a7cf-75e8161c60c8"
                },
                "authored": "2011-02-17T01:00:00+01:00",
                "item": [
                    {
                        "linkId": "Tx220110",
                        "text": "Is he breathing and conscious?",
                        "answer": [
                            {
                                "valueString": "breathing AND conscious"
                            }
                        ]
                    }
                ]
            }
        },
        {
            "fullUrl": "urn:uuid:57f62e30-351a-4d35-9f66-31df27ac6d6c",
            "resource": {
                "resourceType": "Questionnaire",
                "identifier": [
                    {
                        "value": "8067b9b2-e604-4414-b56f-8e3cc4de4b1b"
                    }
                ],
                "version": "Thu Feb 17 01:00:00 CET 2011",
                "status": "active",
                "experimental": false,
                "date": "2011-02-17T01:00:00+01:00",
                "publisher": "User ID: '3137' User name: 'redacted' User skill set: 'T1'",
                "lastReviewDate": "2011-02-17",
                "jurisdiction": [
                    {
                        "text": "England"
                    }
                ],
                "contact": [
                    {
                        "telecom": [
                            {
                                "value": "redacted"
                            }
                        ]
                    }
                ],
                "subjectType": [
                    "Patient"
                ],
                "item": [
                    {
                        "linkId": "8067b9b2-e604-4414-b56f-8e3cc4de4b1b",
                        "prefix": "40",
                        "text": "Is he breathing and conscious?",
                        "type": "choice",
                        "required": true,
                        "repeats": false,
                        "option": [
                            {
                                "valueString": "breathing AND conscious, Selected: true"
                            },
                            {
                                "valueString": "breathing but NOT conscious (includes current fitting), Selected: false"
                            },
                            {
                                "valueString": "NOT breathing, Selected: false"
                            },
                            {
                                "valueString": "choking now, Selected: false"
                            }
                        ]
                    }
                ]
            }
        },
        {
            "fullUrl": "urn:uuid:299764f7-b57e-40da-b196-4eb5f9e690bf",
            "resource": {
                "resourceType": "QuestionnaireResponse",
                "identifier": {
                    "value": "8067b9b2-e604-4414-b56f-8e3cc4de4b1b"
                },
                "questionnaire": {
                    "reference": "urn:uuid:3366a9c1-8c44-42b6-97a2-6e1105731070"
                },
                "status": "completed",
                "subject": {
                    "reference": "urn:uuid:c8abc0a0-7760-4758-9292-0ad031e751ad"
                },
                "context": {
                    "reference": "urn:uuid:dd8ed421-b045-4a88-a7cf-75e8161c60c8"
                },
                "authored": "2011-02-17T01:00:00+01:00",
                "item": [
                    {
                        "linkId": "Tx220285",
                        "text": "Has he been bleeding very heavily IN THE LAST HOUR?",
                        "answer": [
                            {
                                "valueString": "no"
                            }
                        ]
                    }
                ]
            }
        },
        {
            "fullUrl": "urn:uuid:3366a9c1-8c44-42b6-97a2-6e1105731070",
            "resource": {
                "resourceType": "Questionnaire",
                "identifier": [
                    {
                        "value": "8067b9b2-e604-4414-b56f-8e3cc4de4b1b"
                    }
                ],
                "version": "Thu Feb 17 01:00:00 CET 2011",
                "status": "active",
                "experimental": false,
                "date": "2011-02-17T01:00:00+01:00",
                "publisher": "User ID: '3137' User name: 'redacted' User skill set: 'T1'",
                "lastReviewDate": "2011-02-17",
                "jurisdiction": [
                    {
                        "text": "England"
                    }
                ],
                "contact": [
                    {
                        "telecom": [
                            {
                                "value": "redacted"
                            }
                        ]
                    }
                ],
                "subjectType": [
                    "Patient"
                ],
                "item": [
                    {
                        "linkId": "8067b9b2-e604-4414-b56f-8e3cc4de4b1b",
                        "prefix": "60",
                        "text": "Has he been bleeding very heavily IN THE LAST HOUR?",
                        "type": "choice",
                        "required": true,
                        "repeats": false,
                        "option": [
                            {
                                "valueString": "blood spurting from a wound, Selected: false"
                            },
                            {
                                "valueString": "an egg cupful or more of red blood from a body opening, Selected: false"
                            },
                            {
                                "valueString": "an egg cupful or more from a wound, Selected: false"
                            },
                            {
                                "valueString": "not sure, Selected: false"
                            },
                            {
                                "valueString": "no, Selected: true"
                            }
                        ]
                    }
                ]
            }
        },
        {
            "fullUrl": "urn:uuid:cd120eb5-23cc-4bc7-8b25-2a55f164877e",
            "resource": {
                "resourceType": "QuestionnaireResponse",
                "identifier": {
                    "value": "8067b9b2-e604-4414-b56f-8e3cc4de4b1b"
                },
                "questionnaire": {
                    "reference": "urn:uuid:49b983fc-03cd-4872-9ff8-35e846ec12ee"
                },
                "status": "completed",
                "subject": {
                    "reference": "urn:uuid:c8abc0a0-7760-4758-9292-0ad031e751ad"
                },
                "context": {
                    "reference": "urn:uuid:dd8ed421-b045-4a88-a7cf-75e8161c60c8"
                },
                "authored": "2011-02-17T01:00:00+01:00",
                "item": [
                    {
                        "linkId": "N/A",
                        "text": "SocialConcernsExcluded",
                        "answer": [
                            {
                                "valueString": "*"
                            }
                        ]
                    }
                ]
            }
        },
        {
            "fullUrl": "urn:uuid:49b983fc-03cd-4872-9ff8-35e846ec12ee",
            "resource": {
                "resourceType": "Questionnaire",
                "identifier": [
                    {
                        "value": "8067b9b2-e604-4414-b56f-8e3cc4de4b1b"
                    }
                ],
                "version": "Thu Feb 17 01:00:00 CET 2011",
                "status": "active",
                "experimental": false,
                "date": "2011-02-17T01:00:00+01:00",
                "publisher": "User ID: '3137' User name: 'redacted' User skill set: 'T1'",
                "lastReviewDate": "2011-02-17",
                "jurisdiction": [
                    {
                        "text": "England"
                    }
                ],
                "contact": [
                    {
                        "telecom": [
                            {
                                "value": "redacted"
                            }
                        ]
                    }
                ],
                "subjectType": [
                    "Patient"
                ],
                "item": [
                    {
                        "linkId": "8067b9b2-e604-4414-b56f-8e3cc4de4b1b",
                        "prefix": "2050",
                        "text": "SocialConcernsExcluded",
                        "type": "choice",
                        "required": true,
                        "repeats": false,
                        "option": [
                            {
                                "valueString": "==\"present\", Selected: false"
                            },
                            {
                                "valueString": "*, Selected: true"
                            }
                        ]
                    }
                ]
            }
        },
        {
            "fullUrl": "urn:uuid:32e04860-b361-4eca-9c55-dd0c050c1e4e",
            "resource": {
                "resourceType": "QuestionnaireResponse",
                "identifier": {
                    "value": "8067b9b2-e604-4414-b56f-8e3cc4de4b1b"
                },
                "questionnaire": {
                    "reference": "urn:uuid:665a81e8-294a-40e9-93d1-be2e9cc9f81f"
                },
                "status": "completed",
                "subject": {
                    "reference": "urn:uuid:c8abc0a0-7760-4758-9292-0ad031e751ad"
                },
                "context": {
                    "reference": "urn:uuid:dd8ed421-b045-4a88-a7cf-75e8161c60c8"
                },
                "authored": "2011-02-17T01:00:00+01:00",
                "item": [
                    {
                        "linkId": "Tx140159",
                        "text": "What is the reason for ending the assessment?",
                        "answer": [
                            {
                                "valueString": "transfer to a clinician"
                            }
                        ]
                    }
                ]
            }
        },
        {
            "fullUrl": "urn:uuid:665a81e8-294a-40e9-93d1-be2e9cc9f81f",
            "resource": {
                "resourceType": "Questionnaire",
                "identifier": [
                    {
                        "value": "8067b9b2-e604-4414-b56f-8e3cc4de4b1b"
                    }
                ],
                "version": "Thu Feb 17 01:00:00 CET 2011",
                "status": "active",
                "experimental": false,
                "date": "2011-02-17T01:00:00+01:00",
                "publisher": "User ID: '3137' User name: 'redacted' User skill set: 'T1'",
                "lastReviewDate": "2011-02-17",
                "jurisdiction": [
                    {
                        "text": "England"
                    }
                ],
                "contact": [
                    {
                        "telecom": [
                            {
                                "value": "redacted"
                            }
                        ]
                    }
                ],
                "subjectType": [
                    "Patient"
                ],
                "item": [
                    {
                        "linkId": "8067b9b2-e604-4414-b56f-8e3cc4de4b1b",
                        "prefix": "0",
                        "text": "What is the reason for ending the assessment?",
                        "type": "choice",
                        "required": true,
                        "repeats": false,
                        "option": [
                            {
                                "valueString": "the phone line went dead, Selected: false"
                            },
                            {
                                "valueString": "the caller terminated the call (specify), Selected: false"
                            },
                            {
                                "valueString": "I terminated the call (specify), Selected: false"
                            },
                            {
                                "valueString": "triage not possible, Selected: false"
                            },
                            {
                                "valueString": "transfer to a clinician, Selected: true"
                            }
                        ]
                    }
                ]
            }
        },
        {
            "fullUrl": "urn:uuid:8f67d93c-c2e7-4ef8-abcd-8c9ddd6ca452",
            "resource": {
                "resourceType": "QuestionnaireResponse",
                "identifier": {
                    "value": "8067b9b2-e604-4414-b56f-8e3cc4de4b1b"
                },
                "questionnaire": {
                    "reference": "urn:uuid:824cbb7c-bc48-43f3-9050-457335494b4f"
                },
                "status": "completed",
                "subject": {
                    "reference": "urn:uuid:c8abc0a0-7760-4758-9292-0ad031e751ad"
                },
                "context": {
                    "reference": "urn:uuid:dd8ed421-b045-4a88-a7cf-75e8161c60c8"
                },
                "authored": "2011-02-17T01:00:00+01:00",
                "item": [
                    {
                        "linkId": "Tx220408",
                        "text": "WHAT IS THE REASON FOR TRANSFER TO A CLINICIAN?",
                        "answer": [
                            {
                                "valueString": "other complex call (specify)"
                            }
                        ]
                    }
                ]
            }
        },
        {
            "fullUrl": "urn:uuid:824cbb7c-bc48-43f3-9050-457335494b4f",
            "resource": {
                "resourceType": "Questionnaire",
                "identifier": [
                    {
                        "value": "8067b9b2-e604-4414-b56f-8e3cc4de4b1b"
                    }
                ],
                "version": "Thu Feb 17 01:00:00 CET 2011",
                "status": "active",
                "experimental": false,
                "date": "2011-02-17T01:00:00+01:00",
                "publisher": "User ID: '3137' User name: 'redacted' User skill set: 'T1'",
                "lastReviewDate": "2011-02-17",
                "jurisdiction": [
                    {
                        "text": "England"
                    }
                ],
                "contact": [
                    {
                        "telecom": [
                            {
                                "value": "redacted"
                            }
                        ]
                    }
                ],
                "subjectType": [
                    "Patient"
                ],
                "item": [
                    {
                        "linkId": "8067b9b2-e604-4414-b56f-8e3cc4de4b1b",
                        "prefix": "50",
                        "text": "WHAT IS THE REASON FOR TRANSFER TO A CLINICIAN?",
                        "type": "choice",
                        "required": true,
                        "repeats": false,
                        "option": [
                            {
                                "valueString": "caller refuses disposition, Selected: false"
                            },
                            {
                                "valueString": "multiple unrelated symptoms, Selected: false"
                            },
                            {
                                "valueString": "difficulty obtaining adequate information, Selected: false"
                            },
                            {
                                "valueString": "medication or medical procedure enquiry, Selected: false"
                            },
                            {
                                "valueString": "declared medical history (details not required), Selected: false"
                            },
                            {
                                "valueString": "other complex call (specify), Selected: true"
                            }
                        ]
                    }
                ]
            }
        },
        {
            "fullUrl": "urn:uuid:b5a535eb-ad6d-4393-b94d-3a00164c0eb8",
            "resource": {
                "resourceType": "QuestionnaireResponse",
                "identifier": {
                    "value": "8067b9b2-e604-4414-b56f-8e3cc4de4b1b"
                },
                "questionnaire": {
                    "reference": "urn:uuid:510af315-745b-43f4-bb5e-cac43f304138"
                },
                "status": "completed",
                "subject": {
                    "reference": "urn:uuid:c8abc0a0-7760-4758-9292-0ad031e751ad"
                },
                "context": {
                    "reference": "urn:uuid:dd8ed421-b045-4a88-a7cf-75e8161c60c8"
                },
                "authored": "2011-02-17T01:00:00+01:00",
                "item": [
                    {
                        "linkId": "N/A",
                        "text": "Speak to Clinician from our Service immediately"
                    }
                ]
            }
        },
        {
            "fullUrl": "urn:uuid:510af315-745b-43f4-bb5e-cac43f304138",
            "resource": {
                "resourceType": "Questionnaire",
                "identifier": [
                    {
                        "value": "8067b9b2-e604-4414-b56f-8e3cc4de4b1b"
                    }
                ],
                "version": "Thu Feb 17 01:00:00 CET 2011",
                "status": "active",
                "experimental": false,
                "date": "2011-02-17T01:00:00+01:00",
                "publisher": "User ID: '3137' User name: 'redacted' User skill set: 'T1'",
                "lastReviewDate": "2011-02-17",
                "jurisdiction": [
                    {
                        "text": "England"
                    }
                ],
                "contact": [
                    {
                        "telecom": [
                            {
                                "value": "redacted"
                            }
                        ]
                    }
                ],
                "subjectType": [
                    "Patient"
                ],
                "item": [
                    {
                        "linkId": "8067b9b2-e604-4414-b56f-8e3cc4de4b1b",
                        "prefix": "0",
                        "text": "Speak to Clinician from our Service immediately",
                        "type": "choice",
                        "required": true,
                        "repeats": false,
                        "option": [
                            {
                                "valueString": ", Selected: false"
                            }
                        ]
                    }
                ]
            }
        },
        {
            "fullUrl": "urn:uuid:4f9b6c9f-b672-40cc-9c9a-56bed5f6ab3e",
            "resource": {
                "resourceType": "QuestionnaireResponse",
                "identifier": {
                    "value": "8067b9b2-e604-4414-b56f-8e3cc4de4b1b"
                },
                "questionnaire": {
                    "reference": "urn:uuid:eb76ee0c-4f89-493d-a4d6-1320f4c6b1a8"
                },
                "status": "completed",
                "subject": {
                    "reference": "urn:uuid:c8abc0a0-7760-4758-9292-0ad031e751ad"
                },
                "context": {
                    "reference": "urn:uuid:dd8ed421-b045-4a88-a7cf-75e8161c60c8"
                },
                "authored": "2011-02-17T01:00:00+01:00",
                "item": [
                    {
                        "linkId": "N/A"
                    }
                ]
            }
        },
        {
            "fullUrl": "urn:uuid:eb76ee0c-4f89-493d-a4d6-1320f4c6b1a8",
            "resource": {
                "resourceType": "Questionnaire",
                "identifier": [
                    {
                        "value": "8067b9b2-e604-4414-b56f-8e3cc4de4b1b"
                    }
                ],
                "version": "Thu Feb 17 01:00:00 CET 2011",
                "status": "active",
                "experimental": false,
                "date": "2011-02-17T01:00:00+01:00",
                "publisher": "User ID: '3137' User name: 'redacted' User skill set: 'T1'",
                "lastReviewDate": "2011-02-17",
                "jurisdiction": [
                    {
                        "text": "England"
                    }
                ],
                "contact": [
                    {
                        "telecom": [
                            {
                                "value": "redacted"
                            }
                        ]
                    }
                ],
                "subjectType": [
                    "Patient"
                ],
                "item": [
                    {
                        "linkId": "8067b9b2-e604-4414-b56f-8e3cc4de4b1b",
                        "prefix": "0",
                        "type": "choice",
                        "required": true,
                        "repeats": false,
                        "option": [
                            {
                                "valueString": ", Selected: false"
                            }
                        ]
                    }
                ]
            }
        },
        {
            "fullUrl": "urn:uuid:4ba00b5c-48e7-465f-86df-82ce064076c1",
            "resource": {
                "resourceType": "QuestionnaireResponse",
                "identifier": {
                    "value": "8067b9b2-e604-4414-b56f-8e3cc4de4b1b"
                },
                "questionnaire": {
                    "reference": "urn:uuid:b7b79a9f-69fc-4916-b114-734803b341e0"
                },
                "status": "completed",
                "subject": {
                    "reference": "urn:uuid:c8abc0a0-7760-4758-9292-0ad031e751ad"
                },
                "context": {
                    "reference": "urn:uuid:dd8ed421-b045-4a88-a7cf-75e8161c60c8"
                },
                "authored": "2011-02-17T01:00:00+01:00",
                "item": [
                    {
                        "linkId": "N/A"
                    }
                ]
            }
        },
        {
            "fullUrl": "urn:uuid:b7b79a9f-69fc-4916-b114-734803b341e0",
            "resource": {
                "resourceType": "Questionnaire",
                "identifier": [
                    {
                        "value": "8067b9b2-e604-4414-b56f-8e3cc4de4b1b"
                    }
                ],
                "version": "Thu Feb 17 01:00:00 CET 2011",
                "status": "active",
                "experimental": false,
                "date": "2011-02-17T01:00:00+01:00",
                "publisher": "User ID: '3137' User name: 'redacted' User skill set: 'T1'",
                "lastReviewDate": "2011-02-17",
                "jurisdiction": [
                    {
                        "text": "England"
                    }
                ],
                "contact": [
                    {
                        "telecom": [
                            {
                                "value": "redacted"
                            }
                        ]
                    }
                ],
                "subjectType": [
                    "Patient"
                ],
                "item": [
                    {
                        "linkId": "8067b9b2-e604-4414-b56f-8e3cc4de4b1b",
                        "prefix": "0",
                        "type": "choice",
                        "required": true,
                        "repeats": false,
                        "option": [
                            {
                                "valueString": ", Selected: false"
                            }
                        ]
                    }
                ]
            }
        },
        {
            "fullUrl": "urn:uuid:b9c7e1ce-fcc7-4c4b-b684-570f49a99829",
            "resource": {
                "resourceType": "QuestionnaireResponse",
                "identifier": {
                    "value": "8067b9b2-e604-4414-b56f-8e3cc4de4b1b"
                },
                "questionnaire": {
                    "reference": "urn:uuid:b6418468-3c57-4b8b-b4fa-44531cb93ffe"
                },
                "status": "completed",
                "subject": {
                    "reference": "urn:uuid:c8abc0a0-7760-4758-9292-0ad031e751ad"
                },
                "context": {
                    "reference": "urn:uuid:dd8ed421-b045-4a88-a7cf-75e8161c60c8"
                },
                "authored": "2011-02-17T01:00:00+01:00",
                "item": [
                    {
                        "linkId": "Tx220109",
                        "text": "What is the reason for the call?",
                        "answer": [
                            {
                                "valueString": "an injury or other health problem"
                            }
                        ]
                    }
                ]
            }
        },
        {
            "fullUrl": "urn:uuid:b6418468-3c57-4b8b-b4fa-44531cb93ffe",
            "resource": {
                "resourceType": "Questionnaire",
                "identifier": [
                    {
                        "value": "8067b9b2-e604-4414-b56f-8e3cc4de4b1b"
                    }
                ],
                "version": "Thu Feb 17 01:00:00 CET 2011",
                "status": "active",
                "experimental": false,
                "date": "2011-02-17T01:00:00+01:00",
                "publisher": "User ID: '3137' User name: 'redacted' User skill set: 'T1'",
                "lastReviewDate": "2011-02-17",
                "jurisdiction": [
                    {
                        "text": "England"
                    }
                ],
                "contact": [
                    {
                        "telecom": [
                            {
                                "value": "redacted"
                            }
                        ]
                    }
                ],
                "subjectType": [
                    "Patient"
                ],
                "item": [
                    {
                        "linkId": "8067b9b2-e604-4414-b56f-8e3cc4de4b1b",
                        "prefix": "5",
                        "text": "What is the reason for the call?",
                        "type": "choice",
                        "required": true,
                        "repeats": false,
                        "option": [
                            {
                                "valueString": "an injury or other health problem, Selected: true"
                            },
                            {
                                "valueString": "a need to access another healthcare provider, Selected: false"
                            },
                            {
                                "valueString": "a healthcare professional requesting contact with another clinician, Selected: false"
                            },
                            {
                                "valueString": "a report of results or tests, Selected: false"
                            },
                            {
                                "valueString": "more, Selected: false"
                            }
                        ]
                    }
                ]
            }
        },
        {
            "fullUrl": "urn:uuid:9af4ed0f-18bb-41bc-8dc0-267f6e30878e",
            "resource": {
                "resourceType": "QuestionnaireResponse",
                "identifier": {
                    "value": "8067b9b2-e604-4414-b56f-8e3cc4de4b1b"
                },
                "questionnaire": {
                    "reference": "urn:uuid:ddeaafeb-5613-481c-9e32-3419316c5fdc"
                },
                "status": "completed",
                "subject": {
                    "reference": "urn:uuid:c8abc0a0-7760-4758-9292-0ad031e751ad"
                },
                "context": {
                    "reference": "urn:uuid:dd8ed421-b045-4a88-a7cf-75e8161c60c8"
                },
                "authored": "2011-02-17T01:00:00+01:00",
                "item": [
                    {
                        "linkId": "Tx140118",
                        "text": "Has the baby just been born?",
                        "answer": [
                            {
                                "valueString": "no"
                            }
                        ]
                    }
                ]
            }
        },
        {
            "fullUrl": "urn:uuid:ddeaafeb-5613-481c-9e32-3419316c5fdc",
            "resource": {
                "resourceType": "Questionnaire",
                "identifier": [
                    {
                        "value": "8067b9b2-e604-4414-b56f-8e3cc4de4b1b"
                    }
                ],
                "version": "Thu Feb 17 01:00:00 CET 2011",
                "status": "active",
                "experimental": false,
                "date": "2011-02-17T01:00:00+01:00",
                "publisher": "User ID: '3137' User name: 'redacted' User skill set: 'T1'",
                "lastReviewDate": "2011-02-17",
                "jurisdiction": [
                    {
                        "text": "England"
                    }
                ],
                "contact": [
                    {
                        "telecom": [
                            {
                                "value": "redacted"
                            }
                        ]
                    }
                ],
                "subjectType": [
                    "Patient"
                ],
                "item": [
                    {
                        "linkId": "8067b9b2-e604-4414-b56f-8e3cc4de4b1b",
                        "prefix": "35",
                        "text": "Has the baby just been born?",
                        "type": "choice",
                        "required": true,
                        "repeats": false,
                        "option": [
                            {
                                "valueString": "yes, Selected: false"
                            },
                            {
                                "valueString": "not sure, Selected: false"
                            },
                            {
                                "valueString": "no, Selected: true"
                            }
                        ]
                    }
                ]
            }
        },
        {
            "fullUrl": "urn:uuid:bf44db34-0f08-4851-a7b5-189e40c0ef3f",
            "resource": {
                "resourceType": "QuestionnaireResponse",
                "identifier": {
                    "value": "8067b9b2-e604-4414-b56f-8e3cc4de4b1b"
                },
                "questionnaire": {
                    "reference": "urn:uuid:ea38609f-398f-4eb4-b3b4-03f4935a88f4"
                },
                "status": "completed",
                "subject": {
                    "reference": "urn:uuid:c8abc0a0-7760-4758-9292-0ad031e751ad"
                },
                "context": {
                    "reference": "urn:uuid:dd8ed421-b045-4a88-a7cf-75e8161c60c8"
                },
                "authored": "2011-02-17T01:00:00+01:00",
                "item": [
                    {
                        "linkId": "Tx220110",
                        "text": "Is he breathing and conscious?",
                        "answer": [
                            {
                                "valueString": "breathing AND conscious"
                            }
                        ]
                    }
                ]
            }
        },
        {
            "fullUrl": "urn:uuid:ea38609f-398f-4eb4-b3b4-03f4935a88f4",
            "resource": {
                "resourceType": "Questionnaire",
                "identifier": [
                    {
                        "value": "8067b9b2-e604-4414-b56f-8e3cc4de4b1b"
                    }
                ],
                "version": "Thu Feb 17 01:00:00 CET 2011",
                "status": "active",
                "experimental": false,
                "date": "2011-02-17T01:00:00+01:00",
                "publisher": "User ID: '3137' User name: 'redacted' User skill set: 'T1'",
                "lastReviewDate": "2011-02-17",
                "jurisdiction": [
                    {
                        "text": "England"
                    }
                ],
                "contact": [
                    {
                        "telecom": [
                            {
                                "value": "redacted"
                            }
                        ]
                    }
                ],
                "subjectType": [
                    "Patient"
                ],
                "item": [
                    {
                        "linkId": "8067b9b2-e604-4414-b56f-8e3cc4de4b1b",
                        "prefix": "40",
                        "text": "Is he breathing and conscious?",
                        "type": "choice",
                        "required": true,
                        "repeats": false,
                        "option": [
                            {
                                "valueString": "breathing AND conscious, Selected: true"
                            },
                            {
                                "valueString": "breathing but NOT conscious (includes current fitting), Selected: false"
                            },
                            {
                                "valueString": "NOT breathing, Selected: false"
                            },
                            {
                                "valueString": "choking now, Selected: false"
                            }
                        ]
                    }
                ]
            }
        },
        {
            "fullUrl": "urn:uuid:196db114-82b6-4d9b-aff4-f191c6d8af71",
            "resource": {
                "resourceType": "QuestionnaireResponse",
                "identifier": {
                    "value": "8067b9b2-e604-4414-b56f-8e3cc4de4b1b"
                },
                "questionnaire": {
                    "reference": "urn:uuid:b0efa401-e933-4351-a44e-6617ff3abe90"
                },
                "status": "completed",
                "subject": {
                    "reference": "urn:uuid:c8abc0a0-7760-4758-9292-0ad031e751ad"
                },
                "context": {
                    "reference": "urn:uuid:dd8ed421-b045-4a88-a7cf-75e8161c60c8"
                },
                "authored": "2011-02-17T01:00:00+01:00",
                "item": [
                    {
                        "linkId": "Tx220285",
                        "text": "Has he been bleeding very heavily IN THE LAST HOUR?",
                        "answer": [
                            {
                                "valueString": "an egg cupful or more from a wound"
                            }
                        ]
                    }
                ]
            }
        },
        {
            "fullUrl": "urn:uuid:b0efa401-e933-4351-a44e-6617ff3abe90",
            "resource": {
                "resourceType": "Questionnaire",
                "identifier": [
                    {
                        "value": "8067b9b2-e604-4414-b56f-8e3cc4de4b1b"
                    }
                ],
                "version": "Thu Feb 17 01:00:00 CET 2011",
                "status": "active",
                "experimental": false,
                "date": "2011-02-17T01:00:00+01:00",
                "publisher": "User ID: '3137' User name: 'redacted' User skill set: 'T1'",
                "lastReviewDate": "2011-02-17",
                "jurisdiction": [
                    {
                        "text": "England"
                    }
                ],
                "contact": [
                    {
                        "telecom": [
                            {
                                "value": "redacted"
                            }
                        ]
                    }
                ],
                "subjectType": [
                    "Patient"
                ],
                "item": [
                    {
                        "linkId": "8067b9b2-e604-4414-b56f-8e3cc4de4b1b",
                        "prefix": "60",
                        "text": "Has he been bleeding very heavily IN THE LAST HOUR?",
                        "type": "choice",
                        "required": true,
                        "repeats": false,
                        "option": [
                            {
                                "valueString": "blood spurting from a wound, Selected: false"
                            },
                            {
                                "valueString": "an egg cupful or more of red blood from a body opening, Selected: false"
                            },
                            {
                                "valueString": "an egg cupful or more from a wound, Selected: true"
                            },
                            {
                                "valueString": "not sure, Selected: false"
                            },
                            {
                                "valueString": "no, Selected: false"
                            }
                        ]
                    }
                ]
            }
        },
        {
            "fullUrl": "urn:uuid:8b27c2be-abd3-4e13-af3c-56123900bf85",
            "resource": {
                "resourceType": "QuestionnaireResponse",
                "identifier": {
                    "value": "8067b9b2-e604-4414-b56f-8e3cc4de4b1b"
                },
                "questionnaire": {
                    "reference": "urn:uuid:37ec50fd-704f-4fb7-8383-c54f4e1f8972"
                },
                "status": "completed",
                "subject": {
                    "reference": "urn:uuid:c8abc0a0-7760-4758-9292-0ad031e751ad"
                },
                "context": {
                    "reference": "urn:uuid:dd8ed421-b045-4a88-a7cf-75e8161c60c8"
                },
                "authored": "2011-02-17T01:00:00+01:00",
                "item": [
                    {
                        "linkId": "Tx140109",
                        "text": "Is he fighting desperately for every breath?",
                        "answer": [
                            {
                                "valueString": "no"
                            }
                        ]
                    }
                ]
            }
        },
        {
            "fullUrl": "urn:uuid:37ec50fd-704f-4fb7-8383-c54f4e1f8972",
            "resource": {
                "resourceType": "Questionnaire",
                "identifier": [
                    {
                        "value": "8067b9b2-e604-4414-b56f-8e3cc4de4b1b"
                    }
                ],
                "version": "Thu Feb 17 01:00:00 CET 2011",
                "status": "active",
                "experimental": false,
                "date": "2011-02-17T01:00:00+01:00",
                "publisher": "User ID: '3137' User name: 'redacted' User skill set: 'T1'",
                "lastReviewDate": "2011-02-17",
                "jurisdiction": [
                    {
                        "text": "England"
                    }
                ],
                "contact": [
                    {
                        "telecom": [
                            {
                                "value": "redacted"
                            }
                        ]
                    }
                ],
                "subjectType": [
                    "Patient"
                ],
                "item": [
                    {
                        "linkId": "8067b9b2-e604-4414-b56f-8e3cc4de4b1b",
                        "prefix": "20000",
                        "text": "Is he fighting desperately for every breath?",
                        "type": "choice",
                        "required": true,
                        "repeats": false,
                        "option": [
                            {
                                "valueString": "yes, Selected: false"
                            },
                            {
                                "valueString": "not sure, Selected: false"
                            },
                            {
                                "valueString": "no, Selected: true"
                            }
                        ]
                    }
                ]
            }
        },
        {
            "fullUrl": "urn:uuid:b274dba1-3a8f-4984-b09a-a1628887a35c",
            "resource": {
                "resourceType": "QuestionnaireResponse",
                "identifier": {
                    "value": "8067b9b2-e604-4414-b56f-8e3cc4de4b1b"
                },
                "questionnaire": {
                    "reference": "urn:uuid:490c9009-9af0-4d78-b3ba-962f1b425f29"
                },
                "status": "completed",
                "subject": {
                    "reference": "urn:uuid:c8abc0a0-7760-4758-9292-0ad031e751ad"
                },
                "context": {
                    "reference": "urn:uuid:dd8ed421-b045-4a88-a7cf-75e8161c60c8"
                },
                "authored": "2011-02-17T01:00:00+01:00",
                "item": [
                    {
                        "linkId": "Tx220563",
                        "text": "Is he limp, floppy and/or unresponsive?",
                        "answer": [
                            {
                                "valueString": "no"
                            }
                        ]
                    }
                ]
            }
        },
        {
            "fullUrl": "urn:uuid:490c9009-9af0-4d78-b3ba-962f1b425f29",
            "resource": {
                "resourceType": "Questionnaire",
                "identifier": [
                    {
                        "value": "8067b9b2-e604-4414-b56f-8e3cc4de4b1b"
                    }
                ],
                "version": "Thu Feb 17 01:00:00 CET 2011",
                "status": "active",
                "experimental": false,
                "date": "2011-02-17T01:00:00+01:00",
                "publisher": "User ID: '3137' User name: 'redacted' User skill set: 'T1'",
                "lastReviewDate": "2011-02-17",
                "jurisdiction": [
                    {
                        "text": "England"
                    }
                ],
                "contact": [
                    {
                        "telecom": [
                            {
                                "value": "redacted"
                            }
                        ]
                    }
                ],
                "subjectType": [
                    "Patient"
                ],
                "item": [
                    {
                        "linkId": "8067b9b2-e604-4414-b56f-8e3cc4de4b1b",
                        "prefix": "20400",
                        "text": "Is he limp, floppy and/or unresponsive?",
                        "type": "choice",
                        "required": true,
                        "repeats": false,
                        "option": [
                            {
                                "valueString": "yes, Selected: false"
                            },
                            {
                                "valueString": "not sure, Selected: false"
                            },
                            {
                                "valueString": "no, Selected: true"
                            }
                        ]
                    }
                ]
            }
        },
        {
            "fullUrl": "urn:uuid:1f0dfe89-2b47-44e6-9795-79a1945f6630",
            "resource": {
                "resourceType": "QuestionnaireResponse",
                "identifier": {
                    "value": "8067b9b2-e604-4414-b56f-8e3cc4de4b1b"
                },
                "questionnaire": {
                    "reference": "urn:uuid:e5c5be7c-b8a6-462f-87dc-c38defc76879"
                },
                "status": "completed",
                "subject": {
                    "reference": "urn:uuid:c8abc0a0-7760-4758-9292-0ad031e751ad"
                },
                "context": {
                    "reference": "urn:uuid:dd8ed421-b045-4a88-a7cf-75e8161c60c8"
                },
                "authored": "2011-02-17T01:00:00+01:00",
                "item": [
                    {
                        "linkId": "Tx220561",
                        "text": "Is he warm to touch?",
                        "answer": [
                            {
                                "valueString": "yes"
                            }
                        ]
                    }
                ]
            }
        },
        {
            "fullUrl": "urn:uuid:e5c5be7c-b8a6-462f-87dc-c38defc76879",
            "resource": {
                "resourceType": "Questionnaire",
                "identifier": [
                    {
                        "value": "8067b9b2-e604-4414-b56f-8e3cc4de4b1b"
                    }
                ],
                "version": "Thu Feb 17 01:00:00 CET 2011",
                "status": "active",
                "experimental": false,
                "date": "2011-02-17T01:00:00+01:00",
                "publisher": "User ID: '3137' User name: 'redacted' User skill set: 'T1'",
                "lastReviewDate": "2011-02-17",
                "jurisdiction": [
                    {
                        "text": "England"
                    }
                ],
                "contact": [
                    {
                        "telecom": [
                            {
                                "value": "redacted"
                            }
                        ]
                    }
                ],
                "subjectType": [
                    "Patient"
                ],
                "item": [
                    {
                        "linkId": "8067b9b2-e604-4414-b56f-8e3cc4de4b1b",
                        "prefix": "20450",
                        "text": "Is he warm to touch?",
                        "type": "choice",
                        "required": true,
                        "repeats": false,
                        "option": [
                            {
                                "valueString": "yes, Selected: true"
                            },
                            {
                                "valueString": "not sure, Selected: false"
                            },
                            {
                                "valueString": "no, Selected: false"
                            },
                            {
                                "valueString": "not safe to touch, Selected: false"
                            }
                        ]
                    }
                ]
            }
        },
        {
            "fullUrl": "urn:uuid:a65105e6-61b1-4f8f-987f-01ef13d2c21d",
            "resource": {
                "resourceType": "QuestionnaireResponse",
                "identifier": {
                    "value": "8067b9b2-e604-4414-b56f-8e3cc4de4b1b"
                },
                "questionnaire": {
                    "reference": "urn:uuid:20af90a2-d9b5-4b8c-805e-db8c55e2629c"
                },
                "status": "completed",
                "subject": {
                    "reference": "urn:uuid:c8abc0a0-7760-4758-9292-0ad031e751ad"
                },
                "context": {
                    "reference": "urn:uuid:dd8ed421-b045-4a88-a7cf-75e8161c60c8"
                },
                "authored": "2011-02-17T01:00:00+01:00",
                "item": [
                    {
                        "linkId": "Tx120019",
                        "text": "Was the injury caused by any of the following?",
                        "answer": [
                            {
                                "valueString": "no"
                            }
                        ]
                    }
                ]
            }
        },
        {
            "fullUrl": "urn:uuid:20af90a2-d9b5-4b8c-805e-db8c55e2629c",
            "resource": {
                "resourceType": "Questionnaire",
                "identifier": [
                    {
                        "value": "8067b9b2-e604-4414-b56f-8e3cc4de4b1b"
                    }
                ],
                "version": "Thu Feb 17 01:00:00 CET 2011",
                "status": "active",
                "experimental": false,
                "date": "2011-02-17T01:00:00+01:00",
                "publisher": "User ID: '3137' User name: 'redacted' User skill set: 'T1'",
                "lastReviewDate": "2011-02-17",
                "jurisdiction": [
                    {
                        "text": "England"
                    }
                ],
                "contact": [
                    {
                        "telecom": [
                            {
                                "value": "redacted"
                            }
                        ]
                    }
                ],
                "subjectType": [
                    "Patient"
                ],
                "item": [
                    {
                        "linkId": "8067b9b2-e604-4414-b56f-8e3cc4de4b1b",
                        "prefix": "20800",
                        "text": "Was the injury caused by any of the following?",
                        "type": "choice",
                        "required": true,
                        "repeats": false,
                        "option": [
                            {
                                "valueString": "a gunshot, Selected: false"
                            },
                            {
                                "valueString": "a stabbing, Selected: false"
                            },
                            {
                                "valueString": "being ejected from a vehicle, Selected: false"
                            },
                            {
                                "valueString": "not sure, Selected: false"
                            },
                            {
                                "valueString": "no, Selected: true"
                            }
                        ]
                    }
                ]
            }
        },
        {
            "fullUrl": "urn:uuid:87bbd84b-bb2b-41ad-913b-5b745296361c",
            "resource": {
                "resourceType": "QuestionnaireResponse",
                "identifier": {
                    "value": "8067b9b2-e604-4414-b56f-8e3cc4de4b1b"
                },
                "questionnaire": {
                    "reference": "urn:uuid:4050b956-68c8-4e7b-b434-8b754af44e1c"
                },
                "status": "completed",
                "subject": {
                    "reference": "urn:uuid:c8abc0a0-7760-4758-9292-0ad031e751ad"
                },
                "context": {
                    "reference": "urn:uuid:dd8ed421-b045-4a88-a7cf-75e8161c60c8"
                },
                "authored": "2011-02-17T01:00:00+01:00",
                "item": [
                    {
                        "linkId": "Tx220286",
                        "text": "DID THE INJURY INVOLVE ANY OF THE FOLLOWING?",
                        "answer": [
                            {
                                "valueString": "no"
                            }
                        ]
                    }
                ]
            }
        },
        {
            "fullUrl": "urn:uuid:4050b956-68c8-4e7b-b434-8b754af44e1c",
            "resource": {
                "resourceType": "Questionnaire",
                "identifier": [
                    {
                        "value": "8067b9b2-e604-4414-b56f-8e3cc4de4b1b"
                    }
                ],
                "version": "Thu Feb 17 01:00:00 CET 2011",
                "status": "active",
                "experimental": false,
                "date": "2011-02-17T01:00:00+01:00",
                "publisher": "User ID: '3137' User name: 'redacted' User skill set: 'T1'",
                "lastReviewDate": "2011-02-17",
                "jurisdiction": [
                    {
                        "text": "England"
                    }
                ],
                "contact": [
                    {
                        "telecom": [
                            {
                                "value": "redacted"
                            }
                        ]
                    }
                ],
                "subjectType": [
                    "Patient"
                ],
                "item": [
                    {
                        "linkId": "8067b9b2-e604-4414-b56f-8e3cc4de4b1b",
                        "prefix": "23100",
                        "text": "DID THE INJURY INVOLVE ANY OF THE FOLLOWING?",
                        "type": "choice",
                        "required": true,
                        "repeats": false,
                        "option": [
                            {
                                "valueString": "a fall of 5 metres or more (specify), Selected: false"
                            },
                            {
                                "valueString": "multiple major injuries (specify), Selected: false"
                            },
                            {
                                "valueString": "major wound or amputation - not just involving a single finger or toe (specify), Selected: false"
                            },
                            {
                                "valueString": "being knocked over by a blast (specify), Selected: false"
                            },
                            {
                                "valueString": "not sure, Selected: false"
                            },
                            {
                                "valueString": "no, Selected: true"
                            }
                        ]
                    }
                ]
            }
        },
        {
            "fullUrl": "urn:uuid:543bbe28-fd31-4bf7-9480-e1ba23787f4d",
            "resource": {
                "resourceType": "QuestionnaireResponse",
                "identifier": {
                    "value": "8067b9b2-e604-4414-b56f-8e3cc4de4b1b"
                },
                "questionnaire": {
                    "reference": "urn:uuid:368c58d4-65a2-4c90-a2b3-c2ac2b9baeed"
                },
                "status": "completed",
                "subject": {
                    "reference": "urn:uuid:c8abc0a0-7760-4758-9292-0ad031e751ad"
                },
                "context": {
                    "reference": "urn:uuid:dd8ed421-b045-4a88-a7cf-75e8161c60c8"
                },
                "authored": "2011-02-17T01:00:00+01:00",
                "item": [
                    {
                        "linkId": "Tx140159",
                        "text": "What is the reason for ending the assessment?",
                        "answer": [
                            {
                                "valueString": "transfer to a clinician"
                            }
                        ]
                    }
                ]
            }
        },
        {
            "fullUrl": "urn:uuid:368c58d4-65a2-4c90-a2b3-c2ac2b9baeed",
            "resource": {
                "resourceType": "Questionnaire",
                "identifier": [
                    {
                        "value": "8067b9b2-e604-4414-b56f-8e3cc4de4b1b"
                    }
                ],
                "version": "Thu Feb 17 01:00:00 CET 2011",
                "status": "active",
                "experimental": false,
                "date": "2011-02-17T01:00:00+01:00",
                "publisher": "User ID: '3137' User name: 'redacted' User skill set: 'T1'",
                "lastReviewDate": "2011-02-17",
                "jurisdiction": [
                    {
                        "text": "England"
                    }
                ],
                "contact": [
                    {
                        "telecom": [
                            {
                                "value": "redacted"
                            }
                        ]
                    }
                ],
                "subjectType": [
                    "Patient"
                ],
                "item": [
                    {
                        "linkId": "8067b9b2-e604-4414-b56f-8e3cc4de4b1b",
                        "prefix": "0",
                        "text": "What is the reason for ending the assessment?",
                        "type": "choice",
                        "required": true,
                        "repeats": false,
                        "option": [
                            {
                                "valueString": "the phone line went dead, Selected: false"
                            },
                            {
                                "valueString": "the caller terminated the call (specify), Selected: false"
                            },
                            {
                                "valueString": "I terminated the call (specify), Selected: false"
                            },
                            {
                                "valueString": "triage not possible, Selected: false"
                            },
                            {
                                "valueString": "transfer to a clinician, Selected: true"
                            }
                        ]
                    }
                ]
            }
        },
        {
            "fullUrl": "urn:uuid:785a3321-19c9-4b53-8250-9ca4a6896f3b",
            "resource": {
                "resourceType": "QuestionnaireResponse",
                "identifier": {
                    "value": "8067b9b2-e604-4414-b56f-8e3cc4de4b1b"
                },
                "questionnaire": {
                    "reference": "urn:uuid:026c9e73-cdd7-44ab-b5d8-cc8d45be10c7"
                },
                "status": "completed",
                "subject": {
                    "reference": "urn:uuid:c8abc0a0-7760-4758-9292-0ad031e751ad"
                },
                "context": {
                    "reference": "urn:uuid:dd8ed421-b045-4a88-a7cf-75e8161c60c8"
                },
                "authored": "2011-02-17T01:00:00+01:00",
                "item": [
                    {
                        "linkId": "Tx220286",
                        "text": "DID THE INJURY INVOLVE ANY OF THE FOLLOWING?",
                        "answer": [
                            {
                                "valueString": "no"
                            }
                        ]
                    }
                ]
            }
        },
        {
            "fullUrl": "urn:uuid:026c9e73-cdd7-44ab-b5d8-cc8d45be10c7",
            "resource": {
                "resourceType": "Questionnaire",
                "identifier": [
                    {
                        "value": "8067b9b2-e604-4414-b56f-8e3cc4de4b1b"
                    }
                ],
                "version": "Thu Feb 17 01:00:00 CET 2011",
                "status": "active",
                "experimental": false,
                "date": "2011-02-17T01:00:00+01:00",
                "publisher": "User ID: '3137' User name: 'redacted' User skill set: 'T1'",
                "lastReviewDate": "2011-02-17",
                "jurisdiction": [
                    {
                        "text": "England"
                    }
                ],
                "contact": [
                    {
                        "telecom": [
                            {
                                "value": "redacted"
                            }
                        ]
                    }
                ],
                "subjectType": [
                    "Patient"
                ],
                "item": [
                    {
                        "linkId": "8067b9b2-e604-4414-b56f-8e3cc4de4b1b",
                        "prefix": "23100",
                        "text": "DID THE INJURY INVOLVE ANY OF THE FOLLOWING?",
                        "type": "choice",
                        "required": true,
                        "repeats": false,
                        "option": [
                            {
                                "valueString": "a fall of 5 metres or more (specify), Selected: false"
                            },
                            {
                                "valueString": "multiple major injuries (specify), Selected: false"
                            },
                            {
                                "valueString": "major wound or amputation - not just involving a single finger or toe (specify), Selected: false"
                            },
                            {
                                "valueString": "being knocked over by a blast (specify), Selected: false"
                            },
                            {
                                "valueString": "not sure, Selected: false"
                            },
                            {
                                "valueString": "no, Selected: true"
                            }
                        ]
                    }
                ]
            }
        },
        {
            "fullUrl": "urn:uuid:b5de2b0c-c433-4c18-9a32-1016b769a32c",
            "resource": {
                "resourceType": "QuestionnaireResponse",
                "identifier": {
                    "value": "8067b9b2-e604-4414-b56f-8e3cc4de4b1b"
                },
                "questionnaire": {
                    "reference": "urn:uuid:d5420b2e-38a7-4497-b3b4-c19d952f14c5"
                },
                "status": "completed",
                "subject": {
                    "reference": "urn:uuid:c8abc0a0-7760-4758-9292-0ad031e751ad"
                },
                "context": {
                    "reference": "urn:uuid:dd8ed421-b045-4a88-a7cf-75e8161c60c8"
                },
                "authored": "2011-02-17T01:00:00+01:00",
                "item": [
                    {
                        "linkId": "N/A",
                        "text": "Dispatch 19 minute ambulance"
                    }
                ]
            }
        },
        {
            "fullUrl": "urn:uuid:d5420b2e-38a7-4497-b3b4-c19d952f14c5",
            "resource": {
                "resourceType": "Questionnaire",
                "identifier": [
                    {
                        "value": "8067b9b2-e604-4414-b56f-8e3cc4de4b1b"
                    }
                ],
                "version": "Thu Feb 17 01:00:00 CET 2011",
                "status": "active",
                "experimental": false,
                "date": "2011-02-17T01:00:00+01:00",
                "publisher": "User ID: '3137' User name: 'redacted' User skill set: 'T1'",
                "lastReviewDate": "2011-02-17",
                "jurisdiction": [
                    {
                        "text": "England"
                    }
                ],
                "contact": [
                    {
                        "telecom": [
                            {
                                "value": "redacted"
                            }
                        ]
                    }
                ],
                "subjectType": [
                    "Patient"
                ],
                "item": [
                    {
                        "linkId": "8067b9b2-e604-4414-b56f-8e3cc4de4b1b",
                        "prefix": "24100",
                        "text": "Dispatch 19 minute ambulance",
                        "type": "choice",
                        "required": true,
                        "repeats": false,
                        "option": [
                            {
                                "valueString": ", Selected: false"
                            }
                        ]
                    }
                ]
            }
        },
        {
            "fullUrl": "urn:uuid:72692d68-da25-4524-acb7-e14ab3476982",
            "resource": {
                "resourceType": "PractitionerRole",
                "practitioner": {
                    "reference": "urn:uuid:8ff556a6-e068-46be-b279-3e366c7f7aa2"
                },
                "organization": {
                    "reference": "urn:uuid:ae4208e7-ff58-4b29-a92f-8878f7e5185a"
                },
                "code": [
                    {
                        "coding": [
                            {
                                "system": "2.16.840.1.113883.2.1.3.2.4.17.196",
                                "code": "T1",
                                "display": "Nurse Triage Practitioner"
                            }
                        ]
                    }
                ]
            }
        },
        {
            "fullUrl": "urn:uuid:ae4208e7-ff58-4b29-a92f-8878f7e5185a",
            "resource": {
                "resourceType": "Organization",
                "identifier": [
                    {
                        "value": "5L399"
                    }
                ],
                "name": "Medway NHS Foundation Trust"
            }
        },
        {
            "fullUrl": "urn:uuid:92357e67-ab89-4528-a5c3-0da554f38215",
            "resource": {
                "resourceType": "PractitionerRole",
                "practitioner": {
                    "reference": "urn:uuid:5384afbf-bc54-46a7-bc73-34af42eb7740"
                },
                "organization": {
                    "reference": "urn:uuid:9137cfb7-4cb2-4032-9b1c-fda3bc97b23f"
                },
                "code": [
                    {
                        "coding": [
                            {
                                "system": "2.16.840.1.113883.2.1.3.2.4.17.196",
                                "code": "R0010",
                                "display": "Medical Director"
                            }
                        ]
                    }
                ]
            }
        },
        {
            "fullUrl": "urn:uuid:9137cfb7-4cb2-4032-9b1c-fda3bc97b23f",
            "resource": {
                "resourceType": "Organization",
                "identifier": [
                    {
                        "value": "VDE232323"
                    }
                ],
                "name": "Medway South Out of Hours Centre"
            }
        },
        {
            "fullUrl": "urn:uuid:05ab0e0b-23d9-4eee-bbba-8231fe205fb0",
            "resource": {
                "resourceType": "List",
                "status": "current",
                "mode": "working",
                "title": "111 Report List",
                "code": {
                    "coding": [
                        {
                            "system": "http://snomed.info/sct",
                            "code": "225390008",
                            "display": "Triage"
                        }
                    ]
                },
                "subject": {
                    "reference": "urn:uuid:c8abc0a0-7760-4758-9292-0ad031e751ad"
                },
                "encounter": {
                    "reference": "urn:uuid:dd8ed421-b045-4a88-a7cf-75e8161c60c8"
                },
                "date": "2021-08-04T12:24:14+02:00",
                "source": {
                    "reference": "Device/1"
                },
                "orderedBy": {
                    "coding": [
                        {
                            "system": "http://hl7.org/fhir/list-order",
                            "code": "event-date",
                            "display": "Sorted by Event Date"
                        }
                    ]
                },
                "entry": [
                    {
                        "item": {
                            "reference": "urn:uuid:d6de9c13-ea49-49d2-bc37-956a63cc577e"
                        }
                    },
                    {
                        "item": {
                            "reference": "urn:uuid:3e5afe72-64ef-465e-bd8e-dc469833a743"
                        }
                    },
                    {
                        "item": {
                            "reference": "urn:uuid:1610e4d9-5116-4c64-92d2-dc9f13c93cbd"
                        }
                    },
                    {
                        "item": {
                            "reference": "urn:uuid:c8fbb07f-61bb-4e65-b19a-c6c7190a4655"
                        }
                    },
                    {
                        "item": {
                            "reference": "urn:uuid:ae4208e7-ff58-4b29-a92f-8878f7e5185a"
                        }
                    },
                    {
                        "item": {
                            "reference": "urn:uuid:5384afbf-bc54-46a7-bc73-34af42eb7740"
                        }
                    },
                    {
                        "item": {
                            "reference": "urn:uuid:9df968af-02d4-49d6-8e73-388fd538fc3e"
                        }
                    },
                    {
                        "item": {
                            "reference": "urn:uuid:0c7d242e-b546-4df4-94e1-2bf88179764e"
                        }
                    },
                    {
                        "item": {
                            "reference": "urn:uuid:ee645670-0371-4f97-8a9c-d1aa8fdb73d2"
                        }
                    },
                    {
                        "item": {
                            "reference": "urn:uuid:9137cfb7-4cb2-4032-9b1c-fda3bc97b23f"
                        }
                    },
                    {
                        "item": {
                            "reference": "urn:uuid:6d238d0b-57d4-45fc-835d-4c618780fd73"
                        }
                    },
                    {
                        "item": {
                            "reference": "urn:uuid:8ff556a6-e068-46be-b279-3e366c7f7aa2"
                        }
                    },
                    {
                        "item": {
                            "reference": "urn:uuid:673955cf-1107-4ab5-a21b-a78b3b2042aa"
                        }
                    },
                    {
                        "item": {
                            "reference": "urn:uuid:65b9eb3e-a293-4907-a5a2-eb45e2cc25d1"
                        }
                    },
                    {
                        "item": {
                            "reference": "urn:uuid:1f0dfe89-2b47-44e6-9795-79a1945f6630"
                        }
                    },
                    {
                        "item": {
                            "reference": "urn:uuid:cd120eb5-23cc-4bc7-8b25-2a55f164877e"
                        }
                    },
                    {
                        "item": {
                            "reference": "urn:uuid:8f67d93c-c2e7-4ef8-abcd-8c9ddd6ca452"
                        }
                    },
                    {
                        "item": {
                            "reference": "urn:uuid:8b27c2be-abd3-4e13-af3c-56123900bf85"
                        }
                    },
                    {
                        "item": {
                            "reference": "urn:uuid:4050b956-68c8-4e7b-b434-8b754af44e1c"
                        }
                    },
                    {
                        "item": {
                            "reference": "urn:uuid:299764f7-b57e-40da-b196-4eb5f9e690bf"
                        }
                    },
                    {
                        "item": {
                            "reference": "urn:uuid:de458496-ba38-4d27-98d9-2de581ad7b01"
                        }
                    },
                    {
                        "item": {
                            "reference": "urn:uuid:32e04860-b361-4eca-9c55-dd0c050c1e4e"
                        }
                    },
                    {
                        "item": {
                            "reference": "urn:uuid:201f26f8-c199-465b-b20d-f4afc562ed52"
                        }
                    },
                    {
                        "item": {
                            "reference": "urn:uuid:87bbd84b-bb2b-41ad-913b-5b745296361c"
                        }
                    },
                    {
                        "item": {
                            "reference": "urn:uuid:026c9e73-cdd7-44ab-b5d8-cc8d45be10c7"
                        }
                    },
                    {
                        "item": {
                            "reference": "urn:uuid:b9c7e1ce-fcc7-4c4b-b684-570f49a99829"
                        }
                    },
                    {
                        "item": {
                            "reference": "urn:uuid:b5de2b0c-c433-4c18-9a32-1016b769a32c"
                        }
                    },
                    {
                        "item": {
                            "reference": "urn:uuid:57f62e30-351a-4d35-9f66-31df27ac6d6c"
                        }
                    },
                    {
                        "item": {
                            "reference": "urn:uuid:bf44db34-0f08-4851-a7b5-189e40c0ef3f"
                        }
                    },
                    {
                        "item": {
                            "reference": "urn:uuid:4ba00b5c-48e7-465f-86df-82ce064076c1"
                        }
                    },
                    {
                        "item": {
                            "reference": "urn:uuid:b274dba1-3a8f-4984-b09a-a1628887a35c"
                        }
                    },
                    {
                        "item": {
                            "reference": "urn:uuid:ae01765b-d4e0-47c7-b494-d161d2cdd9a1"
                        }
                    },
                    {
                        "item": {
                            "reference": "urn:uuid:ddeaafeb-5613-481c-9e32-3419316c5fdc"
                        }
                    },
                    {
                        "item": {
                            "reference": "urn:uuid:4f9b6c9f-b672-40cc-9c9a-56bed5f6ab3e"
                        }
                    },
                    {
                        "item": {
                            "reference": "urn:uuid:b7b79a9f-69fc-4916-b114-734803b341e0"
                        }
                    },
                    {
                        "item": {
                            "reference": "urn:uuid:fa501650-2587-4d1f-ab54-f3fd341740dd"
                        }
                    },
                    {
                        "item": {
                            "reference": "urn:uuid:3fefbcbe-0275-425c-b1a6-233e44ffde27"
                        }
                    },
                    {
                        "item": {
                            "reference": "urn:uuid:9af4ed0f-18bb-41bc-8dc0-267f6e30878e"
                        }
                    },
                    {
                        "item": {
                            "reference": "urn:uuid:4ca88bad-e905-438e-beb8-c7a85f239b4d"
                        }
                    },
                    {
                        "item": {
                            "reference": "urn:uuid:368c58d4-65a2-4c90-a2b3-c2ac2b9baeed"
                        }
                    },
                    {
                        "item": {
                            "reference": "urn:uuid:3366a9c1-8c44-42b6-97a2-6e1105731070"
                        }
                    },
                    {
                        "item": {
                            "reference": "urn:uuid:dfd6ea6f-162c-45f2-a413-78b5e5588f3a"
                        }
                    },
                    {
                        "item": {
                            "reference": "urn:uuid:490c9009-9af0-4d78-b3ba-962f1b425f29"
                        }
                    },
                    {
                        "item": {
                            "reference": "urn:uuid:665a81e8-294a-40e9-93d1-be2e9cc9f81f"
                        }
                    },
                    {
                        "item": {
                            "reference": "urn:uuid:196db114-82b6-4d9b-aff4-f191c6d8af71"
                        }
                    },
                    {
                        "item": {
                            "reference": "urn:uuid:510af315-745b-43f4-bb5e-cac43f304138"
                        }
                    },
                    {
                        "item": {
                            "reference": "urn:uuid:ea38609f-398f-4eb4-b3b4-03f4935a88f4"
                        }
                    },
                    {
                        "item": {
                            "reference": "urn:uuid:d5420b2e-38a7-4497-b3b4-c19d952f14c5"
                        }
                    },
                    {
                        "item": {
                            "reference": "urn:uuid:acf107fc-4d98-4fae-b084-f96634cf7916"
                        }
                    },
                    {
                        "item": {
                            "reference": "urn:uuid:824cbb7c-bc48-43f3-9050-457335494b4f"
                        }
                    },
                    {
                        "item": {
                            "reference": "urn:uuid:eb76ee0c-4f89-493d-a4d6-1320f4c6b1a8"
                        }
                    },
                    {
                        "item": {
                            "reference": "urn:uuid:a65105e6-61b1-4f8f-987f-01ef13d2c21d"
                        }
                    },
                    {
                        "item": {
                            "reference": "urn:uuid:e5c5be7c-b8a6-462f-87dc-c38defc76879"
                        }
                    },
                    {
                        "item": {
                            "reference": "urn:uuid:785a3321-19c9-4b53-8250-9ca4a6896f3b"
                        }
                    },
                    {
                        "item": {
                            "reference": "urn:uuid:b6418468-3c57-4b8b-b4fa-44531cb93ffe"
                        }
                    },
                    {
                        "item": {
                            "reference": "urn:uuid:20af90a2-d9b5-4b8c-805e-db8c55e2629c"
                        }
                    },
                    {
                        "item": {
                            "reference": "urn:uuid:37ec50fd-704f-4fb7-8383-c54f4e1f8972"
                        }
                    },
                    {
                        "item": {
                            "reference": "urn:uuid:543bbe28-fd31-4bf7-9480-e1ba23787f4d"
                        }
                    },
                    {
                        "item": {
                            "reference": "urn:uuid:b0efa401-e933-4351-a44e-6617ff3abe90"
                        }
                    },
                    {
                        "item": {
                            "reference": "urn:uuid:b5a535eb-ad6d-4393-b94d-3a00164c0eb8"
                        }
                    },
                    {
                        "item": {
                            "reference": "urn:uuid:61e5153b-41c1-4b37-8a82-a8833bc52955"
                        }
                    },
                    {
                        "item": {
                            "reference": "urn:uuid:49b983fc-03cd-4872-9ff8-35e846ec12ee"
                        }
                    }
                ]
            }
        }
    ]
}