{
    "resourceType": "Bundle",
    "identifier": {
        "type": {
            "text": "ClinicalDocument VersionNumber"
        },
        "value": "1"
    },
    "type": "message",
    "entry": [
        {
            "fullUrl": "urn:uuid:A12F527F-3808-44BC-9272-8C8A92884A37",
            "resource": {
                "resourceType": "MessageHeader",
                "id": "A12F527F-3808-44BC-9272-8C8A92884A37",
                "event": {
                    "system": "https://fhir.nhs.uk/STU3/CodeSystem/EventType-1",
                    "code": "referral-1",
                    "display": "Referral"
                },
                "destination": [
                    {
                        "endpoint": "urn:nhs-uk:addressing:ods:20000729:DOSServiceID:2000072936"
                    }
                ],
                "timestamp": "2020-10-30T18:29:05.000+00:00",
                "source": {
                    "name": "NHS 111 Adaptor",
                    "endpoint": "http://localhost:8080/report"
                },
                "reason": {
                    "coding": [
                        {
                            "system": "urn:nhs-itk:ns:201005:interaction",
                            "code": "urn:nhs-itk:interaction:primaryNHS111RepeatCallerDocumentSet-v1-0"
                        }
                    ]
                }
            }
        },
        {
            "fullUrl": "urn:uuid:e0053d9a-76da-4f68-85d5-ae91af61a214",
            "resource": {
                "resourceType": "Encounter",
                "id": "e0053d9a-76da-4f68-85d5-ae91af61a214",
                "identifier": [
                    {
                        "system": "2.16.840.1.113883.2.1.3.2.4.18.34",
                        "value": "CF1F65AB-2392-4582-9E14-F0384358CB6A"
                    },
                    {
                        "system": "2.16.840.1.113883.2.1.3.2.4.18.35",
                        "value": "7434927"
                    }
                ],
                "status": "finished",
                "type": [
                    {
                        "text": "111 Encounter Referral"
                    }
                ],
                "subject": {
                    "reference": "urn:uuid:a9099782-5dca-464e-9452-55655750f306"
                },
                "participant": [
                    {
                        "type": [
                            {
                                "coding": [
                                    {
                                        "system": "http://hl7.org/fhir/ValueSet/encounter-participant-type",
                                        "code": "PPRF",
                                        "display": "Author"
                                    }
                                ]
                            }
                        ],
                        "individual": {
                            "reference": "urn:uuid:bf99ef72-40ea-4184-8803-a815563d3b80"
                        }
                    },
                    {
                        "type": [
                            {
                                "coding": [
                                    {
                                        "system": "http://hl7.org/fhir/ValueSet/encounter-participant-type",
                                        "code": "ATND",
                                        "display": "Responsible Party"
                                    }
                                ]
                            }
                        ],
                        "individual": {
                            "reference": "urn:uuid:073a258d-81d3-4ece-8261-cb4fc37b397d"
                        }
                    }
                ],
                "period": {
                    "start": "2020-10-30T18:29:05+00:00"
                },
                "location": [
                    {
                        "location": {
                            "reference": "urn:uuid:a782d8b8-daa5-4bb5-8a03-b74308e04799"
                        },
                        "status": "active"
                    },
                    {
                        "location": {
                            "reference": "urn:uuid:a0b6a367-3a3b-4c58-9ec9-ce150ba99fc0"
                        },
                        "status": "completed"
                    }
                ],
                "serviceProvider": {
                    "reference": "urn:uuid:505fa59d-27ab-4503-ba68-bc4f02849f53"
                }
            }
        },
        {
            "fullUrl": "urn:uuid:505fa59d-27ab-4503-ba68-bc4f02849f53",
            "resource": {
                "resourceType": "Organization",
                "id": "505fa59d-27ab-4503-ba68-bc4f02849f53",
                "active": true,
                "type": [
                    {
                        "text": "CST"
                    }
                ],
                "name": "Devon Doctors Group"
            }
        },
        {
            "fullUrl": "urn:uuid:bf99ef72-40ea-4184-8803-a815563d3b80",
            "resource": {
                "resourceType": "Practitioner",
                "id": "bf99ef72-40ea-4184-8803-a815563d3b80",
                "active": true,
                "name": [
                    {
                        "use": "official",
                        "family": "Service Advisor",
                        "given": [
                            "Dental"
                        ]
                    }
                ]
            }
        },
        {
            "fullUrl": "urn:uuid:073a258d-81d3-4ece-8261-cb4fc37b397d",
            "resource": {
                "resourceType": "Practitioner",
                "id": "073a258d-81d3-4ece-8261-cb4fc37b397d",
                "active": true,
                "name": [
                    {
                        "use": "official",
                        "family": "Eggleton",
                        "given": [
                            "Dr. Mark"
                        ]
                    }
                ]
            }
        },
        {
            "fullUrl": "urn:uuid:a782d8b8-daa5-4bb5-8a03-b74308e04799",
            "resource": {
                "resourceType": "Location",
                "id": "a782d8b8-daa5-4bb5-8a03-b74308e04799",
                "managingOrganization": {
                    "reference": "urn:uuid:8b5554f6-3d6f-40ea-a076-b3ad11772396"
                }
            }
        },
        {
            "fullUrl": "urn:uuid:8b5554f6-3d6f-40ea-a076-b3ad11772396",
            "resource": {
                "resourceType": "Organization",
                "id": "8b5554f6-3d6f-40ea-a076-b3ad11772396",
                "identifier": [
                    {
                        "value": "J85990"
                    }
                ],
                "type": [
                    {
                        "text": "GP Practice"
                    }
                ],
                "name": "Test Somerset"
            }
        },
        {
            "fullUrl": "urn:uuid:a0b6a367-3a3b-4c58-9ec9-ce150ba99fc0",
            "resource": {
                "resourceType": "Location",
                "id": "a0b6a367-3a3b-4c58-9ec9-ce150ba99fc0",
                "name": "Incident Location",
                "address": {
                    "type": "physical",
                    "line": [
                        "NHS England",
                        "Quarry House Quarry Hill",
                        "Leeds",
                        "West Yorkshire"
                    ],
                    "postalCode": "LS2 7UE"
                }
            }
        },
        {
            "fullUrl": "urn:uuid:a9099782-5dca-464e-9452-55655750f306",
            "resource": {
                "resourceType": "Patient",
                "id": "a9099782-5dca-464e-9452-55655750f306",
                "identifier": [
                    {
                        "extension": [
                            {
                                "url": "https://fhir.hl7.org.uk/STU3/StructureDefinition/Extension-CareConnect-NHSNumberVerificationStatus-1",
                                "valueCodeableConcept": {
                                    "coding": [
                                        {
                                            "system": "https://fhir.hl7.org.uk/STU3/StructureDefinition/Extension-CareConnect-NHSNumberVerificationStatus-1",
                                            "code": "02"
                                        }
                                    ]
                                }
                            }
                        ],
                        "system": "https://fhir.nhs.uk/Id/nhs-number",
                        "value": "9990238359"
                    }
                ],
                "active": true,
                "name": [
                    {
                        "use": "official",
                        "family": "Xxtestpatientdzadn",
                        "given": [
                            "Scrdonotuse"
                        ]
                    }
                ],
                "telecom": [
                    {
                        "system": "phone",
                        "value": "tel:01702123456",
                        "use": "home"
                    },
                    {
                        "system": "phone",
                        "value": "tel:01702123456"
                    }
                ],
                "gender": "female",
                "birthDate": "1965-02-17",
                "address": [
                    {
                        "use": "home",
                        "line": [
                            "NHS England",
                            "Quarry House Quarry Hill",
                            "Leeds",
                            "West Yorkshire"
                        ],
                        "postalCode": "LS2 7UE"
                    }
                ],
                "generalPractitioner": [
                    {
                        "reference": "urn:uuid:20097cd6-288b-4963-94c4-25fe40138ddc"
                    }
                ]
            }
        },
        {
            "fullUrl": "urn:uuid:20097cd6-288b-4963-94c4-25fe40138ddc",
            "resource": {
                "resourceType": "Organization",
                "id": "20097cd6-288b-4963-94c4-25fe40138ddc",
                "identifier": [
                    {
                        "value": "J85990"
                    }
                ],
                "type": [
                    {
                        "text": "GP Practice"
                    }
                ],
                "name": "Test Somerset"
            }
        },
        {
            "fullUrl": "urn:uuid:16834819-7c6e-40f1-98e8-a0ad952bac6c",
            "resource": {
                "resourceType": "HealthcareService",
                "id": "16834819-7c6e-40f1-98e8-a0ad952bac6c",
                "active": true,
                "providedBy": {
                    "reference": "urn:uuid:8daa6e38-88ba-47b7-8e50-117bc13f956c"
                },
                "location": [
                    {
                        "reference": "urn:uuid:dc37ed4c-3803-45ff-82c1-6c8a45696abb"
                    }
                ],
                "name": "**TESTING ONLY** DO NOT SEND PATIENTS - ED Test Service for EDDI"
            }
        },
        {
            "fullUrl": "urn:uuid:dc37ed4c-3803-45ff-82c1-6c8a45696abb",
            "resource": {
                "resourceType": "Location",
                "id": "dc37ed4c-3803-45ff-82c1-6c8a45696abb",
                "managingOrganization": {
                    "reference": "urn:uuid:8daa6e38-88ba-47b7-8e50-117bc13f956c"
                }
            }
        },
        {
            "fullUrl": "urn:uuid:8daa6e38-88ba-47b7-8e50-117bc13f956c",
            "resource": {
                "resourceType": "Organization",
                "id": "8daa6e38-88ba-47b7-8e50-117bc13f956c",
                "identifier": [
                    {
                        "value": "20000729"
                    }
                ],
                "type": [
                    {
                        "coding": [
                            {
                                "code": "PRCP",
                                "display": "**TESTING ONLY** DO NOT SEND PATIENTS - ED Test Service for EDDI"
                            }
                        ]
                    }
                ],
                "name": "**TESTING ONLY** DO NOT SEND PATIENTS - ED Test Service for EDDI"
            }
        },
        {
            "fullUrl": "urn:uuid:feff3005-d107-4eb1-9007-aae1e488e0f0",
            "resource": {
                "resourceType": "ReferralRequest",
                "id": "feff3005-d107-4eb1-9007-aae1e488e0f0",
                "status": "active",
                "intent": "plan",
                "priority": "routine",
                "subject": {
                    "reference": "urn:uuid:a9099782-5dca-464e-9452-55655750f306"
                },
                "context": {
                    "reference": "urn:uuid:e0053d9a-76da-4f68-85d5-ae91af61a214"
                },
                "occurrencePeriod": {
                    "start": "2021-09-09T23:21:50+02:00",
                    "end": "2021-09-10T00:21:50+02:00"
                },
                "authoredOn": "2020-10-30T18:28:58+00:00",
                "requester": {
                    "agent": {
                        "reference": "urn:uuid:0a93ce4d-2a11-44ce-a30f-46c7a5dd4fee"
                    },
                    "onBehalfOf": {
                        "reference": "urn:uuid:505fa59d-27ab-4503-ba68-bc4f02849f53"
                    }
                },
                "recipient": [
                    {
                        "reference": "urn:uuid:16834819-7c6e-40f1-98e8-a0ad952bac6c"
                    }
                ],
                "reasonReference": [
                    {
                        "reference": "urn:uuid:ab448f56-3ec9-415f-a199-98a107c5ff3f"
                    }
                ],
                "supportingInfo": [
                    {
                        "reference": "urn:uuid:88d2184b-3e8e-432d-8f00-d64e12360922"
                    }
                ]
            }
        },
        {
            "fullUrl": "urn:uuid:88d2184b-3e8e-432d-8f00-d64e12360922",
            "resource": {
                "resourceType": "ProcedureRequest",
                "id": "88d2184b-3e8e-432d-8f00-d64e12360922",
                "status": "active",
                "intent": "plan",
                "priority": "routine",
                "doNotPerform": false,
                "code": {
                    "coding": [
                        {
                            "system": "2.16.840.1.113883.2.1.3.2.4.17.325",
                            "code": "Dx02",
                            "display": "Attend a Treatment Centre within 1 hour"
                        }
                    ]
                },
                "subject": {
                    "reference": "urn:uuid:a9099782-5dca-464e-9452-55655750f306"
                },
                "occurrencePeriod": {
                    "start": "2021-09-09T23:21:50+02:00",
                    "end": "2021-09-10T00:21:50+02:00"
                },
                "reasonReference": [
                    {
                        "reference": "urn:uuid:ab448f56-3ec9-415f-a199-98a107c5ff3f"
                    }
                ]
            }
        },
        {
            "fullUrl": "urn:uuid:85a98e21-76a2-48e0-913e-901a2b1283d9",
            "resource": {
                "resourceType": "Composition",
                "id": "85a98e21-76a2-48e0-913e-901a2b1283d9",
                "identifier": {
                    "use": "usual",
                    "value": "B53175B4-0A4A-4503-A6CD-94333AA01645"
                },
                "status": "final",
                "type": {
                    "coding": [
                        {
                            "system": "http://snomed.info/sct",
                            "code": "371531000",
                            "display": "Report of clinical encounter (record artifact)"
                        }
                    ]
                },
                "subject": {
                    "reference": "urn:uuid:a9099782-5dca-464e-9452-55655750f306"
                },
                "encounter": {
                    "reference": "urn:uuid:e0053d9a-76da-4f68-85d5-ae91af61a214"
                },
                "date": "2021-09-09T23:21:50+02:00",
                "author": [
                    {
                        "reference": "urn:uuid:bf99ef72-40ea-4184-8803-a815563d3b80"
                    }
                ],
                "title": "111 Report",
                "confidentiality": "N",
                "section": [
                    {
                        "section": [
                            {
                                "title": "Patient's Reported Condition",
                                "text": {
                                    "status": "generated",
                                    "div": "<div xmlns=\"http://www.w3.org/1999/xhtml\">&lt;xml-fragment xmlns:npfitlc=&quot;NPFIT:HL7:Localisation&quot; xmlns:xsi=&quot;http://www.w3.org/2001/XMLSchema-instance&quot;&gt;TEST&lt;urn:br xmlns:urn=&quot;urn:hl7-org:v3&quot;/&gt;&lt;/xml-fragment&gt;</div>"
                                }
                            },
                            {
                                "title": "Pathways Disposition",
                                "text": {
                                    "status": "generated",
                                    "div": "<div xmlns=\"http://www.w3.org/1999/xhtml\">&lt;xml-fragment xmlns:npfitlc=&quot;NPFIT:HL7:Localisation&quot; xmlns:xsi=&quot;http://www.w3.org/2001/XMLSchema-instance&quot;&gt;Attend a Treatment Centre within 1 hour (Dx02)\n                    &lt;urn:br xmlns:urn=&quot;urn:hl7-org:v3&quot;/&gt;&lt;urn:br xmlns:urn=&quot;urn:hl7-org:v3&quot;/&gt;\n                    Selected service: **TESTING ONLY** DO NOT SEND PATIENTS - ED Test Se&lt;urn:br xmlns:urn=&quot;urn:hl7-org:v3&quot;/&gt;&lt;/xml-fragment&gt;</div>"
                                }
                            },
                            {
                                "title": "Consultation Summary",
                                "text": {
                                    "status": "generated",
                                    "div": "<div xmlns=\"http://www.w3.org/1999/xhtml\">&lt;xml-fragment xmlns:npfitlc=&quot;NPFIT:HL7:Localisation&quot; xmlns:xsi=&quot;http://www.w3.org/2001/XMLSchema-instance&quot;&gt;Illness&lt;urn:br xmlns:urn=&quot;urn:hl7-org:v3&quot;/&gt;Warm to touch&lt;urn:br xmlns:urn=&quot;urn:hl7-org:v3&quot;/&gt;Nose bleeding freely&lt;urn:br xmlns:urn=&quot;urn:hl7-org:v3&quot;/&gt;Nose bleeding despite first aid measures&lt;urn:br xmlns:urn=&quot;urn:hl7-org:v3&quot;/&gt;&lt;/xml-fragment&gt;</div>"
                                }
                            },
                            {
                                "title": "Pathways Assessment",
                                "text": {
                                    "status": "generated",
                                    "div": "<div xmlns=\"http://www.w3.org/1999/xhtml\">&lt;xml-fragment xmlns:npfitlc=&quot;NPFIT:HL7:Localisation&quot; xmlns:xsi=&quot;http://www.w3.org/2001/XMLSchema-instance&quot;&gt;An injury or health problem was the reason for the contact.&lt;urn:br xmlns:urn=&quot;urn:hl7-org:v3&quot;/&gt;Heavy bleeding had not occurred in the previous 2 hours.&lt;urn:br xmlns:urn=&quot;urn:hl7-org:v3&quot;/&gt;An illness or health problem was the main problem.&lt;urn:br xmlns:urn=&quot;urn:hl7-org:v3&quot;/&gt;User Comments: TEST&lt;urn:br xmlns:urn=&quot;urn:hl7-org:v3&quot;/&gt;The individual was not fighting for breath.&lt;urn:br xmlns:urn=&quot;urn:hl7-org:v3&quot;/&gt;The main reason for the assessment was not an allergic reaction, heart attack, chest/upper back pain, probable stroke, recent fit/seizure or suicide attempt.&lt;urn:br xmlns:urn=&quot;urn:hl7-org:v3&quot;/&gt;The main reason for contact was not new confusion, declared diabetic hypo/hyperglycaemia, or ICD shock.&lt;urn:br xmlns:urn=&quot;urn:hl7-org:v3&quot;/&gt;The skin on the torso felt normal, warm or hot.&lt;urn:br xmlns:urn=&quot;urn:hl7-org:v3&quot;/&gt;Pathway selected - Nosebleeds without Injury&lt;urn:br xmlns:urn=&quot;urn:hl7-org:v3&quot;/&gt;The individual was not feeling faint or dizzy.&lt;urn:br xmlns:urn=&quot;urn:hl7-org:v3&quot;/&gt;The nose was continuing to bleed.&lt;urn:br xmlns:urn=&quot;urn:hl7-org:v3&quot;/&gt;There was no nasal foreign body.&lt;urn:br xmlns:urn=&quot;urn:hl7-org:v3&quot;/&gt;Constant pressure had been applied to the soft part of the nose for at least 10 minutes.&lt;urn:br xmlns:urn=&quot;urn:hl7-org:v3&quot;/&gt;Instructions given were: The individual needs to attend a treatment centre within 1 hour.&lt;urn:br xmlns:urn=&quot;urn:hl7-org:v3&quot;/&gt;Directory of Services referral: **TESTING ONLY** DO NOT SEND PATIENTS - ED Test Service for EDDI&lt;urn:br xmlns:urn=&quot;urn:hl7-org:v3&quot;/&gt;Advice given:\nWorsening\n&lt;urn:br xmlns:urn=&quot;urn:hl7-org:v3&quot;/&gt;&lt;/xml-fragment&gt;</div>"
                                }
                            },
                            {
                                "title": "Advice Given",
                                "text": {
                                    "status": "generated",
                                    "div": "<div xmlns=\"http://www.w3.org/1999/xhtml\">&lt;xml-fragment xmlns:npfitlc=&quot;NPFIT:HL7:Localisation&quot; xmlns:xsi=&quot;http://www.w3.org/2001/XMLSchema-instance&quot;&gt;If there are any new symptoms, or if the condition gets worse, changes or you have any other concerns, call us back.&lt;urn:br xmlns:urn=&quot;urn:hl7-org:v3&quot;/&gt;&lt;urn:br xmlns:urn=&quot;urn:hl7-org:v3&quot;/&gt;&lt;/xml-fragment&gt;</div>"
                                }
                            },
                            {
                                "title": "Special Patient Notes",
                                "text": {
                                    "status": "generated",
                                    "div": "<div xmlns=\"http://www.w3.org/1999/xhtml\">&lt;xml-fragment xmlns:npfitlc=&quot;NPFIT:HL7:Localisation&quot; xmlns:xsi=&quot;http://www.w3.org/2001/XMLSchema-instance&quot;&gt;Special Notes from an external system were flagged as being present for this patient.&lt;/xml-fragment&gt;</div>"
                                }
                            }
                        ]
                    },
                    {
                        "title": "ReferralRequest",
                        "entry": [
                            {
                                "reference": "urn:uuid:feff3005-d107-4eb1-9007-aae1e488e0f0"
                            }
                        ]
                    },
                    {
                        "title": "QuestionnaireResponse",
                        "entry": [
                            {
                                "reference": "urn:uuid:85631730-0ab0-4333-b4a2-c82755677502"
                            }
                        ]
                    },
                    {
                        "title": "QuestionnaireResponse",
                        "entry": [
                            {
                                "reference": "urn:uuid:bff93709-3916-4e44-84ab-7ceb42836d27"
                            }
                        ]
                    },
                    {
                        "title": "QuestionnaireResponse",
                        "entry": [
                            {
                                "reference": "urn:uuid:236cb8a9-2b5d-4932-a979-1a65dc94441a"
                            }
                        ]
                    },
                    {
                        "title": "QuestionnaireResponse",
                        "entry": [
                            {
                                "reference": "urn:uuid:5346d054-5e25-4a63-90c9-ab27dc3b4afe"
                            }
                        ]
                    },
                    {
                        "title": "QuestionnaireResponse",
                        "entry": [
                            {
                                "reference": "urn:uuid:2855f6b1-aa8f-4894-adff-176577893247"
                            }
                        ]
                    },
                    {
                        "title": "QuestionnaireResponse",
                        "entry": [
                            {
                                "reference": "urn:uuid:ea407fb0-428d-4fb4-87e9-5de91f651c86"
                            }
                        ]
                    },
                    {
                        "title": "QuestionnaireResponse",
                        "entry": [
                            {
                                "reference": "urn:uuid:690b8a25-44ad-478b-aada-a35c3823b170"
                            }
                        ]
                    },
                    {
                        "title": "QuestionnaireResponse",
                        "entry": [
                            {
                                "reference": "urn:uuid:58f85469-602c-40ec-beba-d00f8cffd6cd"
                            }
                        ]
                    },
                    {
                        "title": "QuestionnaireResponse",
                        "entry": [
                            {
                                "reference": "urn:uuid:8f66a614-8b09-4b30-a0b1-0220b4f5ee2b"
                            }
                        ]
                    },
                    {
                        "title": "QuestionnaireResponse",
                        "entry": [
                            {
                                "reference": "urn:uuid:bb7c6702-e37b-4b73-b10a-3ebbe071bf73"
                            }
                        ]
                    },
                    {
                        "title": "QuestionnaireResponse",
                        "entry": [
                            {
                                "reference": "urn:uuid:89bc7ace-84f4-43a6-b231-11191f8c5bc2"
                            }
                        ]
                    },
                    {
                        "title": "QuestionnaireResponse",
                        "entry": [
                            {
                                "reference": "urn:uuid:0e77f1ce-6dc1-4c23-a0e2-637e5dc3e8bd"
                            }
                        ]
                    },
                    {
                        "title": "QuestionnaireResponse",
                        "entry": [
                            {
                                "reference": "urn:uuid:5dc61ec5-49ba-44dd-b7f9-f8aff7e22ec6"
                            }
                        ]
                    },
                    {
                        "title": "QuestionnaireResponse",
                        "entry": [
                            {
                                "reference": "urn:uuid:5d8d1a0f-29a6-474d-8fb1-32f8549d972d"
                            }
                        ]
                    },
                    {
                        "title": "QuestionnaireResponse",
                        "entry": [
                            {
                                "reference": "urn:uuid:8051bf7e-f63b-4529-94ed-7470724d4662"
                            }
                        ]
                    },
                    {
                        "title": "QuestionnaireResponse",
                        "entry": [
                            {
                                "reference": "urn:uuid:8bc97391-af31-4020-abfc-110cfd06e603"
                            }
                        ]
                    },
                    {
                        "title": "QuestionnaireResponse",
                        "entry": [
                            {
                                "reference": "urn:uuid:deaa5fd6-119c-47bd-967e-2d2d411071b5"
                            }
                        ]
                    },
                    {
                        "title": "QuestionnaireResponse",
                        "entry": [
                            {
                                "reference": "urn:uuid:1ab909c6-6311-4516-9ee8-5d7ea9173645"
                            }
                        ]
                    },
                    {
                        "title": "QuestionnaireResponse",
                        "entry": [
                            {
                                "reference": "urn:uuid:dce7a071-804f-4f2b-8065-cfe36fe76f43"
                            }
                        ]
                    },
                    {
                        "title": "QuestionnaireResponse",
                        "entry": [
                            {
                                "reference": "urn:uuid:b6dfa6ef-c25b-492d-97af-4d5e0b79c823"
                            }
                        ]
                    },
                    {
                        "title": "QuestionnaireResponse",
                        "entry": [
                            {
                                "reference": "urn:uuid:bb0b571e-19e8-4a8c-8aa0-c743d9f295db"
                            }
                        ]
                    },
                    {
                        "title": "QuestionnaireResponse",
                        "entry": [
                            {
                                "reference": "urn:uuid:0786502a-7216-4fce-b322-dc4754c7b892"
                            }
                        ]
                    },
                    {
                        "title": "QuestionnaireResponse",
                        "entry": [
                            {
                                "reference": "urn:uuid:62c7c9a4-4e1c-4604-b918-6fcd1eda1918"
                            }
                        ]
                    }
                ]
            }
        },
        {
            "fullUrl": "urn:uuid:1838beae-95bd-454d-848a-53b36a9c0107",
            "resource": {
                "resourceType": "Consent",
                "id": "1838beae-95bd-454d-848a-53b36a9c0107",
                "identifier": {
                    "use": "usual",
                    "value": "B53175B4-0A4A-4503-A6CD-94333AA01645"
                },
                "status": "active",
                "patient": {
                    "reference": "urn:uuid:a9099782-5dca-464e-9452-55655750f306"
                },
                "period": {
                    "start": "2020-10-30T18:29:05+00:00"
                },
                "consentingParty": [
                    {
                        "reference": "urn:uuid:a9099782-5dca-464e-9452-55655750f306"
                    }
                ],
                "action": [
                    {
                        "coding": [
                            {
                                "system": "http://snomed.info/sct",
                                "code": "425691002",
                                "display": "Consent given for electronic record sharing"
                            }
                        ],
                        "text": "Consent given for electronic record sharing"
                    }
                ],
                "organization": [
                    {
                        "reference": "urn:uuid:505fa59d-27ab-4503-ba68-bc4f02849f53"
                    }
                ],
                "policyRule": "http://hl7.org/fhir/ConsentPolicy/opt-out",
                "data": [
                    {
                        "meaning": "related",
                        "reference": {
                            "reference": "urn:uuid:e0053d9a-76da-4f68-85d5-ae91af61a214"
                        }
                    }
                ]
            }
        },
        {
            "fullUrl": "urn:uuid:ab448f56-3ec9-415f-a199-98a107c5ff3f",
            "resource": {
                "resourceType": "Condition",
                "id": "ab448f56-3ec9-415f-a199-98a107c5ff3f",
                "clinicalStatus": "active",
                "verificationStatus": "unknown",
                "subject": {
                    "reference": "urn:uuid:a9099782-5dca-464e-9452-55655750f306"
                },
                "context": {
                    "reference": "urn:uuid:e0053d9a-76da-4f68-85d5-ae91af61a214"
                },
                "evidence": [
                    {
                        "detail": [
                            {
                                "reference": "urn:uuid:85631730-0ab0-4333-b4a2-c82755677502"
                            }
                        ]
                    },
                    {
                        "detail": [
                            {
                                "reference": "urn:uuid:bff93709-3916-4e44-84ab-7ceb42836d27"
                            }
                        ]
                    },
                    {
                        "detail": [
                            {
                                "reference": "urn:uuid:236cb8a9-2b5d-4932-a979-1a65dc94441a"
                            }
                        ]
                    },
                    {
                        "detail": [
                            {
                                "reference": "urn:uuid:5346d054-5e25-4a63-90c9-ab27dc3b4afe"
                            }
                        ]
                    },
                    {
                        "detail": [
                            {
                                "reference": "urn:uuid:2855f6b1-aa8f-4894-adff-176577893247"
                            }
                        ]
                    },
                    {
                        "detail": [
                            {
                                "reference": "urn:uuid:ea407fb0-428d-4fb4-87e9-5de91f651c86"
                            }
                        ]
                    },
                    {
                        "detail": [
                            {
                                "reference": "urn:uuid:690b8a25-44ad-478b-aada-a35c3823b170"
                            }
                        ]
                    },
                    {
                        "detail": [
                            {
                                "reference": "urn:uuid:58f85469-602c-40ec-beba-d00f8cffd6cd"
                            }
                        ]
                    },
                    {
                        "detail": [
                            {
                                "reference": "urn:uuid:8f66a614-8b09-4b30-a0b1-0220b4f5ee2b"
                            }
                        ]
                    },
                    {
                        "detail": [
                            {
                                "reference": "urn:uuid:bb7c6702-e37b-4b73-b10a-3ebbe071bf73"
                            }
                        ]
                    },
                    {
                        "detail": [
                            {
                                "reference": "urn:uuid:89bc7ace-84f4-43a6-b231-11191f8c5bc2"
                            }
                        ]
                    },
                    {
                        "detail": [
                            {
                                "reference": "urn:uuid:0e77f1ce-6dc1-4c23-a0e2-637e5dc3e8bd"
                            }
                        ]
                    },
                    {
                        "detail": [
                            {
                                "reference": "urn:uuid:5dc61ec5-49ba-44dd-b7f9-f8aff7e22ec6"
                            }
                        ]
                    },
                    {
                        "detail": [
                            {
                                "reference": "urn:uuid:5d8d1a0f-29a6-474d-8fb1-32f8549d972d"
                            }
                        ]
                    },
                    {
                        "detail": [
                            {
                                "reference": "urn:uuid:8051bf7e-f63b-4529-94ed-7470724d4662"
                            }
                        ]
                    },
                    {
                        "detail": [
                            {
                                "reference": "urn:uuid:8bc97391-af31-4020-abfc-110cfd06e603"
                            }
                        ]
                    },
                    {
                        "detail": [
                            {
                                "reference": "urn:uuid:deaa5fd6-119c-47bd-967e-2d2d411071b5"
                            }
                        ]
                    },
                    {
                        "detail": [
                            {
                                "reference": "urn:uuid:1ab909c6-6311-4516-9ee8-5d7ea9173645"
                            }
                        ]
                    },
                    {
                        "detail": [
                            {
                                "reference": "urn:uuid:dce7a071-804f-4f2b-8065-cfe36fe76f43"
                            }
                        ]
                    },
                    {
                        "detail": [
                            {
                                "reference": "urn:uuid:b6dfa6ef-c25b-492d-97af-4d5e0b79c823"
                            }
                        ]
                    },
                    {
                        "detail": [
                            {
                                "reference": "urn:uuid:bb0b571e-19e8-4a8c-8aa0-c743d9f295db"
                            }
                        ]
                    },
                    {
                        "detail": [
                            {
                                "reference": "urn:uuid:0786502a-7216-4fce-b322-dc4754c7b892"
                            }
                        ]
                    },
                    {
                        "detail": [
                            {
                                "reference": "urn:uuid:62c7c9a4-4e1c-4604-b918-6fcd1eda1918"
                            }
                        ]
                    }
                ]
            }
        },
        {
            "fullUrl": "urn:uuid:85631730-0ab0-4333-b4a2-c82755677502",
            "resource": {
                "resourceType": "QuestionnaireResponse",
                "id": "85631730-0ab0-4333-b4a2-c82755677502",
                "identifier": {
                    "value": "7434927"
                },
                "questionnaire": {
                    "reference": "urn:uuid:2a449c3b-2f93-40fd-91bf-d406416a9295"
                },
                "status": "completed",
                "subject": {
                    "reference": "urn:uuid:a9099782-5dca-464e-9452-55655750f306"
                },
                "context": {
                    "reference": "urn:uuid:e0053d9a-76da-4f68-85d5-ae91af61a214"
                },
                "authored": "2020-10-30T19:29:05+01:00",
                "item": [
                    {
                        "linkId": "Tx220074",
                        "text": "What is the reason for the contact?",
                        "answer": [
                            {
                                "valueString": "an injury or other health problem"
                            }
                        ]
                    }
                ]
            }
        },
        {
            "fullUrl": "urn:uuid:2a449c3b-2f93-40fd-91bf-d406416a9295",
            "resource": {
                "resourceType": "Questionnaire",
                "id": "2a449c3b-2f93-40fd-91bf-d406416a9295",
                "identifier": [
                    {
                        "value": "7434927"
                    }
                ],
                "version": "2020-10-30T18:29:05.808Z",
                "status": "active",
                "experimental": false,
                "date": "2020-10-30T19:29:05+01:00",
                "publisher": "User ID: 'RB12' User name: 'Rachel Boyer' User skill set: 'T3'",
                "lastReviewDate": "2020-10-30",
                "subjectType": [
                    "Patient"
                ],
                "item": [
                    {
                        "linkId": "7434927",
                        "prefix": "5",
                        "text": "What is the reason for the contact?",
                        "type": "choice",
                        "required": true,
                        "repeats": false,
                        "option": [
                            {
                                "valueString": "an injury or other health problem, Selected: true"
                            },
                            {
                                "valueString": "labour or childbirth, Selected: false"
                            },
                            {
                                "valueString": "a need to access another healthcare service, Selected: false"
                            },
                            {
                                "valueString": "a healthcare professional requesting contact with another clinician, Selected: false"
                            },
                            {
                                "valueString": "a report of results or tests, Selected: false"
                            },
                            {
                                "valueString": "a possible failure of contraception, Selected: false"
                            },
                            {
                                "valueString": "more, Selected: false"
                            }
                        ]
                    }
                ]
            }
        },
        {
            "fullUrl": "urn:uuid:bff93709-3916-4e44-84ab-7ceb42836d27",
            "resource": {
                "resourceType": "QuestionnaireResponse",
                "id": "bff93709-3916-4e44-84ab-7ceb42836d27",
                "identifier": {
                    "value": "7434927"
                },
                "questionnaire": {
                    "reference": "urn:uuid:0976fb73-3023-4f45-8f55-ced2d2cc6b7a"
                },
                "status": "completed",
                "subject": {
                    "reference": "urn:uuid:a9099782-5dca-464e-9452-55655750f306"
                },
                "context": {
                    "reference": "urn:uuid:e0053d9a-76da-4f68-85d5-ae91af61a214"
                },
                "authored": "2020-10-30T19:29:05+01:00",
                "item": [
                    {
                        "linkId": "Tx221807",
                        "text": "STRING:to'Immediatethreatstolife(SPA/OOHversion)'-'Majorbloodloss'stem",
                        "answer": [
                            {
                                "valueString": "\"present\""
                            }
                        ]
                    }
                ]
            }
        },
        {
            "fullUrl": "urn:uuid:0976fb73-3023-4f45-8f55-ced2d2cc6b7a",
            "resource": {
                "resourceType": "Questionnaire",
                "id": "0976fb73-3023-4f45-8f55-ced2d2cc6b7a",
                "identifier": [
                    {
                        "value": "7434927"
                    }
                ],
                "version": "2020-10-30T18:29:05.808Z",
                "status": "active",
                "experimental": false,
                "date": "2020-10-30T19:29:05+01:00",
                "publisher": "User ID: 'RB12' User name: 'Rachel Boyer' User skill set: 'T3'",
                "lastReviewDate": "2020-10-30",
                "subjectType": [
                    "Patient"
                ],
                "item": [
                    {
                        "linkId": "7434927",
                        "prefix": "200",
                        "text": "STRING:to'Immediatethreatstolife(SPA/OOHversion)'-'Majorbloodloss'stem",
                        "type": "choice",
                        "required": true,
                        "repeats": false,
                        "option": [
                            {
                                "valueString": "\"present\", Selected: true"
                            }
                        ]
                    }
                ]
            }
        },
        {
            "fullUrl": "urn:uuid:236cb8a9-2b5d-4932-a979-1a65dc94441a",
            "resource": {
                "resourceType": "QuestionnaireResponse",
                "id": "236cb8a9-2b5d-4932-a979-1a65dc94441a",
                "identifier": {
                    "value": "7434927"
                },
                "questionnaire": {
                    "reference": "urn:uuid:c08bb286-76e2-4d79-af27-edb110513a23"
                },
                "status": "completed",
                "subject": {
                    "reference": "urn:uuid:a9099782-5dca-464e-9452-55655750f306"
                },
                "context": {
                    "reference": "urn:uuid:e0053d9a-76da-4f68-85d5-ae91af61a214"
                },
                "authored": "2020-10-30T19:29:05+01:00"
            }
        },
        {
            "fullUrl": "urn:uuid:c08bb286-76e2-4d79-af27-edb110513a23",
            "resource": {
                "resourceType": "Questionnaire",
                "id": "c08bb286-76e2-4d79-af27-edb110513a23",
                "identifier": [
                    {
                        "value": "7434927"
                    }
                ],
                "version": "2020-10-30T18:29:05.808Z",
                "status": "active",
                "experimental": false,
                "date": "2020-10-30T19:29:05+01:00",
                "publisher": "User ID: 'RB12' User name: 'Rachel Boyer' User skill set: 'T3'",
                "lastReviewDate": "2020-10-30",
                "subjectType": [
                    "Patient"
                ]
            }
        },
        {
            "fullUrl": "urn:uuid:5346d054-5e25-4a63-90c9-ab27dc3b4afe",
            "resource": {
                "resourceType": "QuestionnaireResponse",
                "id": "5346d054-5e25-4a63-90c9-ab27dc3b4afe",
                "identifier": {
                    "value": "7434927"
                },
                "questionnaire": {
                    "reference": "urn:uuid:7842c711-3765-4961-843b-eb71a7956027"
                },
                "status": "completed",
                "subject": {
                    "reference": "urn:uuid:a9099782-5dca-464e-9452-55655750f306"
                },
                "context": {
                    "reference": "urn:uuid:e0053d9a-76da-4f68-85d5-ae91af61a214"
                },
                "authored": "2020-10-30T19:29:05+01:00",
                "item": [
                    {
                        "linkId": "Tx221799",
                        "text": "STRING:injury,illnessorlabourestablishedinEntryFlow",
                        "answer": [
                            {
                                "valueString": "\"present\""
                            }
                        ]
                    }
                ]
            }
        },
        {
            "fullUrl": "urn:uuid:7842c711-3765-4961-843b-eb71a7956027",
            "resource": {
                "resourceType": "Questionnaire",
                "id": "7842c711-3765-4961-843b-eb71a7956027",
                "identifier": [
                    {
                        "value": "7434927"
                    }
                ],
                "version": "2020-10-30T18:29:05.808Z",
                "status": "active",
                "experimental": false,
                "date": "2020-10-30T19:29:05+01:00",
                "publisher": "User ID: 'RB12' User name: 'Rachel Boyer' User skill set: 'T3'",
                "lastReviewDate": "2020-10-30",
                "subjectType": [
                    "Patient"
                ],
                "item": [
                    {
                        "linkId": "7434927",
                        "prefix": "0",
                        "text": "STRING:injury,illnessorlabourestablishedinEntryFlow",
                        "type": "choice",
                        "required": true,
                        "repeats": false,
                        "option": [
                            {
                                "valueString": "\"present\", Selected: true"
                            }
                        ]
                    }
                ]
            }
        },
        {
            "fullUrl": "urn:uuid:2855f6b1-aa8f-4894-adff-176577893247",
            "resource": {
                "resourceType": "QuestionnaireResponse",
                "id": "2855f6b1-aa8f-4894-adff-176577893247",
                "identifier": {
                    "value": "7434927"
                },
                "questionnaire": {
                    "reference": "urn:uuid:76d919bb-afec-4fd0-8a0b-895bd1db2ea0"
                },
                "status": "completed",
                "subject": {
                    "reference": "urn:uuid:a9099782-5dca-464e-9452-55655750f306"
                },
                "context": {
                    "reference": "urn:uuid:e0053d9a-76da-4f68-85d5-ae91af61a214"
                },
                "authored": "2020-10-30T19:29:05+01:00",
                "item": [
                    {
                        "linkId": "Tx224120",
                        "text": "Have you been bleeding RED BLOOD very heavily IN THE LAST 2 HOURS?",
                        "answer": [
                            {
                                "valueString": "no"
                            }
                        ]
                    }
                ]
            }
        },
        {
            "fullUrl": "urn:uuid:76d919bb-afec-4fd0-8a0b-895bd1db2ea0",
            "resource": {
                "resourceType": "Questionnaire",
                "id": "76d919bb-afec-4fd0-8a0b-895bd1db2ea0",
                "identifier": [
                    {
                        "value": "7434927"
                    }
                ],
                "version": "2020-10-30T18:29:05.808Z",
                "status": "active",
                "experimental": false,
                "date": "2020-10-30T19:29:05+01:00",
                "publisher": "User ID: 'RB12' User name: 'Rachel Boyer' User skill set: 'T3'",
                "lastReviewDate": "2020-10-30",
                "subjectType": [
                    "Patient"
                ],
                "item": [
                    {
                        "linkId": "7434927",
                        "prefix": "10100",
                        "text": "Have you been bleeding RED BLOOD very heavily IN THE LAST 2 HOURS?",
                        "type": "choice",
                        "required": true,
                        "repeats": false,
                        "option": [
                            {
                                "valueString": "yes, Selected: false"
                            },
                            {
                                "valueString": "not sure, Selected: false"
                            },
                            {
                                "valueString": "no, Selected: true"
                            }
                        ]
                    }
                ]
            }
        },
        {
            "fullUrl": "urn:uuid:ea407fb0-428d-4fb4-87e9-5de91f651c86",
            "resource": {
                "resourceType": "QuestionnaireResponse",
                "id": "ea407fb0-428d-4fb4-87e9-5de91f651c86",
                "identifier": {
                    "value": "7434927"
                },
                "questionnaire": {
                    "reference": "urn:uuid:8b2dec91-1e0b-47de-a1e6-5b17c8052318"
                },
                "status": "completed",
                "subject": {
                    "reference": "urn:uuid:a9099782-5dca-464e-9452-55655750f306"
                },
                "context": {
                    "reference": "urn:uuid:e0053d9a-76da-4f68-85d5-ae91af61a214"
                },
                "authored": "2020-10-30T19:29:05+01:00",
                "item": [
                    {
                        "linkId": "Tx221343",
                        "text": "SocialConcernsExcluded",
                        "answer": [
                            {
                                "valueString": "==\"present\""
                            }
                        ]
                    }
                ]
            }
        },
        {
            "fullUrl": "urn:uuid:8b2dec91-1e0b-47de-a1e6-5b17c8052318",
            "resource": {
                "resourceType": "Questionnaire",
                "id": "8b2dec91-1e0b-47de-a1e6-5b17c8052318",
                "identifier": [
                    {
                        "value": "7434927"
                    }
                ],
                "version": "2020-10-30T18:29:05.808Z",
                "status": "active",
                "experimental": false,
                "date": "2020-10-30T19:29:05+01:00",
                "publisher": "User ID: 'RB12' User name: 'Rachel Boyer' User skill set: 'T3'",
                "lastReviewDate": "2020-10-30",
                "subjectType": [
                    "Patient"
                ],
                "item": [
                    {
                        "linkId": "7434927",
                        "prefix": "1100",
                        "text": "SocialConcernsExcluded",
                        "type": "choice",
                        "required": true,
                        "repeats": false,
                        "option": [
                            {
                                "valueString": "==\"present\", Selected: true"
                            },
                            {
                                "valueString": "*, Selected: false"
                            }
                        ]
                    }
                ]
            }
        },
        {
            "fullUrl": "urn:uuid:690b8a25-44ad-478b-aada-a35c3823b170",
            "resource": {
                "resourceType": "QuestionnaireResponse",
                "id": "690b8a25-44ad-478b-aada-a35c3823b170",
                "identifier": {
                    "value": "7434927"
                },
                "questionnaire": {
                    "reference": "urn:uuid:ebf7c5d1-6bce-4bce-89dc-42bdfdcbedc4"
                },
                "status": "completed",
                "subject": {
                    "reference": "urn:uuid:a9099782-5dca-464e-9452-55655750f306"
                },
                "context": {
                    "reference": "urn:uuid:e0053d9a-76da-4f68-85d5-ae91af61a214"
                },
                "authored": "2020-10-30T19:29:05+01:00",
                "item": [
                    {
                        "linkId": "Tx130011",
                        "text": "What is the main problem?",
                        "answer": [
                            {
                                "valueString": "illness or other health problem (specify)"
                            }
                        ]
                    }
                ]
            }
        },
        {
            "fullUrl": "urn:uuid:ebf7c5d1-6bce-4bce-89dc-42bdfdcbedc4",
            "resource": {
                "resourceType": "Questionnaire",
                "id": "ebf7c5d1-6bce-4bce-89dc-42bdfdcbedc4",
                "identifier": [
                    {
                        "value": "7434927"
                    }
                ],
                "version": "2020-10-30T18:29:05.808Z",
                "status": "active",
                "experimental": false,
                "date": "2020-10-30T19:29:05+01:00",
                "publisher": "User ID: 'RB12' User name: 'Rachel Boyer' User skill set: 'T3'",
                "lastReviewDate": "2020-10-30",
                "subjectType": [
                    "Patient"
                ],
                "item": [
                    {
                        "linkId": "7434927",
                        "prefix": "2300",
                        "text": "What is the main problem?",
                        "type": "choice",
                        "required": true,
                        "repeats": false,
                        "option": [
                            {
                                "valueString": "the individual has been told to follow a particular course of action (specify), Selected: false"
                            },
                            {
                                "valueString": "the individual is an identified frequent caller, Selected: false"
                            },
                            {
                                "valueString": "injury (specify), Selected: false"
                            },
                            {
                                "valueString": "illness or other health problem (specify), Selected: true"
                            },
                            {
                                "valueString": "child protection/vulnerable adult concern, Selected: false"
                            },
                            {
                                "valueString": "social or domestic emergency, Selected: false"
                            },
                            {
                                "valueString": "the environment potentially poses an immediate threat to life (specify), Selected: false"
                            }
                        ]
                    }
                ]
            }
        },
        {
            "fullUrl": "urn:uuid:58f85469-602c-40ec-beba-d00f8cffd6cd",
            "resource": {
                "resourceType": "QuestionnaireResponse",
                "id": "58f85469-602c-40ec-beba-d00f8cffd6cd",
                "identifier": {
                    "value": "7434927"
                },
                "questionnaire": {
                    "reference": "urn:uuid:6303a110-b76e-4a50-b4d4-74a49913bf7d"
                },
                "status": "completed",
                "subject": {
                    "reference": "urn:uuid:a9099782-5dca-464e-9452-55655750f306"
                },
                "context": {
                    "reference": "urn:uuid:e0053d9a-76da-4f68-85d5-ae91af61a214"
                },
                "authored": "2020-10-30T19:29:05+01:00"
            }
        },
        {
            "fullUrl": "urn:uuid:6303a110-b76e-4a50-b4d4-74a49913bf7d",
            "resource": {
                "resourceType": "Questionnaire",
                "id": "6303a110-b76e-4a50-b4d4-74a49913bf7d",
                "identifier": [
                    {
                        "value": "7434927"
                    }
                ],
                "version": "2020-10-30T18:29:05.808Z",
                "status": "active",
                "experimental": false,
                "date": "2020-10-30T19:29:05+01:00",
                "publisher": "User ID: 'RB12' User name: 'Rachel Boyer' User skill set: 'T3'",
                "lastReviewDate": "2020-10-30",
                "subjectType": [
                    "Patient"
                ]
            }
        },
        {
            "fullUrl": "urn:uuid:8f66a614-8b09-4b30-a0b1-0220b4f5ee2b",
            "resource": {
                "resourceType": "QuestionnaireResponse",
                "id": "8f66a614-8b09-4b30-a0b1-0220b4f5ee2b",
                "identifier": {
                    "value": "7434927"
                },
                "questionnaire": {
                    "reference": "urn:uuid:baec1d92-1484-4b62-9725-e4c66b38252b"
                },
                "status": "completed",
                "subject": {
                    "reference": "urn:uuid:a9099782-5dca-464e-9452-55655750f306"
                },
                "context": {
                    "reference": "urn:uuid:e0053d9a-76da-4f68-85d5-ae91af61a214"
                },
                "authored": "2020-10-30T19:29:05+01:00",
                "item": [
                    {
                        "linkId": "Tx61025",
                        "text": "Are you so breathless that speaking more than a few words is impossible?",
                        "answer": [
                            {
                                "valueString": "no"
                            }
                        ]
                    }
                ]
            }
        },
        {
            "fullUrl": "urn:uuid:baec1d92-1484-4b62-9725-e4c66b38252b",
            "resource": {
                "resourceType": "Questionnaire",
                "id": "baec1d92-1484-4b62-9725-e4c66b38252b",
                "identifier": [
                    {
                        "value": "7434927"
                    }
                ],
                "version": "2020-10-30T18:29:05.808Z",
                "status": "active",
                "experimental": false,
                "date": "2020-10-30T19:29:05+01:00",
                "publisher": "User ID: 'RB12' User name: 'Rachel Boyer' User skill set: 'T3'",
                "lastReviewDate": "2020-10-30",
                "subjectType": [
                    "Patient"
                ],
                "item": [
                    {
                        "linkId": "7434927",
                        "prefix": "0",
                        "text": "Are you so breathless that speaking more than a few words is impossible?",
                        "type": "choice",
                        "required": true,
                        "repeats": false,
                        "option": [
                            {
                                "valueString": "yes, Selected: false"
                            },
                            {
                                "valueString": "not sure, Selected: false"
                            },
                            {
                                "valueString": "no, Selected: true"
                            }
                        ]
                    }
                ]
            }
        },
        {
            "fullUrl": "urn:uuid:bb7c6702-e37b-4b73-b10a-3ebbe071bf73",
            "resource": {
                "resourceType": "QuestionnaireResponse",
                "id": "bb7c6702-e37b-4b73-b10a-3ebbe071bf73",
                "identifier": {
                    "value": "7434927"
                },
                "questionnaire": {
                    "reference": "urn:uuid:d88f2853-550f-4efb-91e3-8f77882ee213"
                },
                "status": "completed",
                "subject": {
                    "reference": "urn:uuid:a9099782-5dca-464e-9452-55655750f306"
                },
                "context": {
                    "reference": "urn:uuid:e0053d9a-76da-4f68-85d5-ae91af61a214"
                },
                "authored": "2020-10-30T19:29:05+01:00",
                "item": [
                    {
                        "linkId": "Tx220845",
                        "text": "SYSTEM_FLUPANDEMIC",
                        "answer": [
                            {
                                "valueString": "==\"pandemic\""
                            }
                        ]
                    }
                ]
            }
        },
        {
            "fullUrl": "urn:uuid:d88f2853-550f-4efb-91e3-8f77882ee213",
            "resource": {
                "resourceType": "Questionnaire",
                "id": "d88f2853-550f-4efb-91e3-8f77882ee213",
                "identifier": [
                    {
                        "value": "7434927"
                    }
                ],
                "version": "2020-10-30T18:29:05.808Z",
                "status": "active",
                "experimental": false,
                "date": "2020-10-30T19:29:05+01:00",
                "publisher": "User ID: 'RB12' User name: 'Rachel Boyer' User skill set: 'T3'",
                "lastReviewDate": "2020-10-30",
                "subjectType": [
                    "Patient"
                ],
                "item": [
                    {
                        "linkId": "7434927",
                        "prefix": "100",
                        "text": "SYSTEM_FLUPANDEMIC",
                        "type": "choice",
                        "required": true,
                        "repeats": false,
                        "option": [
                            {
                                "valueString": "==\"pandemic\", Selected: true"
                            },
                            {
                                "valueString": "*, Selected: false"
                            }
                        ]
                    }
                ]
            }
        },
        {
            "fullUrl": "urn:uuid:89bc7ace-84f4-43a6-b231-11191f8c5bc2",
            "resource": {
                "resourceType": "QuestionnaireResponse",
                "id": "89bc7ace-84f4-43a6-b231-11191f8c5bc2",
                "identifier": {
                    "value": "7434927"
                },
                "questionnaire": {
                    "reference": "urn:uuid:85f91cbe-2095-4abc-b401-e790ba3c258b"
                },
                "status": "completed",
                "subject": {
                    "reference": "urn:uuid:a9099782-5dca-464e-9452-55655750f306"
                },
                "context": {
                    "reference": "urn:uuid:e0053d9a-76da-4f68-85d5-ae91af61a214"
                },
                "authored": "2020-10-30T19:29:05+01:00",
                "item": [
                    {
                        "linkId": "Tx223440",
                        "text": "WHAT IS SAID TO BE THE MAIN REASON FOR THIS CONTACT?",
                        "answer": [
                            {
                                "valueString": "more"
                            }
                        ]
                    }
                ]
            }
        },
        {
            "fullUrl": "urn:uuid:85f91cbe-2095-4abc-b401-e790ba3c258b",
            "resource": {
                "resourceType": "Questionnaire",
                "id": "85f91cbe-2095-4abc-b401-e790ba3c258b",
                "identifier": [
                    {
                        "value": "7434927"
                    }
                ],
                "version": "2020-10-30T18:29:05.808Z",
                "status": "active",
                "experimental": false,
                "date": "2020-10-30T19:29:05+01:00",
                "publisher": "User ID: 'RB12' User name: 'Rachel Boyer' User skill set: 'T3'",
                "lastReviewDate": "2020-10-30",
                "subjectType": [
                    "Patient"
                ],
                "item": [
                    {
                        "linkId": "7434927",
                        "prefix": "5200",
                        "text": "WHAT IS SAID TO BE THE MAIN REASON FOR THIS CONTACT?",
                        "type": "choice",
                        "required": true,
                        "repeats": false,
                        "option": [
                            {
                                "valueString": "a probable allergic reaction now, Selected: false"
                            },
                            {
                                "valueString": "a probable heart attack, Selected: false"
                            },
                            {
                                "valueString": "chest or upper back pain, Selected: false"
                            },
                            {
                                "valueString": "a probable stroke or mini-stroke, Selected: false"
                            },
                            {
                                "valueString": "a probable fit or seizure within the last 12 hours, Selected: false"
                            },
                            {
                                "valueString": "a suicide attempt, Selected: false"
                            },
                            {
                                "valueString": "more, Selected: true"
                            }
                        ]
                    }
                ]
            }
        },
        {
            "fullUrl": "urn:uuid:0e77f1ce-6dc1-4c23-a0e2-637e5dc3e8bd",
            "resource": {
                "resourceType": "QuestionnaireResponse",
                "id": "0e77f1ce-6dc1-4c23-a0e2-637e5dc3e8bd",
                "identifier": {
                    "value": "7434927"
                },
                "questionnaire": {
                    "reference": "urn:uuid:6ff05101-6334-49bf-abec-781a1b4799fc"
                },
                "status": "completed",
                "subject": {
                    "reference": "urn:uuid:a9099782-5dca-464e-9452-55655750f306"
                },
                "context": {
                    "reference": "urn:uuid:e0053d9a-76da-4f68-85d5-ae91af61a214"
                },
                "authored": "2020-10-30T19:29:05+01:00",
                "item": [
                    {
                        "linkId": "Tx220032",
                        "text": "WHAT IS SAID TO BE THE MAIN REASON FOR THIS CONTACT?",
                        "answer": [
                            {
                                "valueString": "none of the above"
                            }
                        ]
                    }
                ]
            }
        },
        {
            "fullUrl": "urn:uuid:6ff05101-6334-49bf-abec-781a1b4799fc",
            "resource": {
                "resourceType": "Questionnaire",
                "id": "6ff05101-6334-49bf-abec-781a1b4799fc",
                "identifier": [
                    {
                        "value": "7434927"
                    }
                ],
                "version": "2020-10-30T18:29:05.808Z",
                "status": "active",
                "experimental": false,
                "date": "2020-10-30T19:29:05+01:00",
                "publisher": "User ID: 'RB12' User name: 'Rachel Boyer' User skill set: 'T3'",
                "lastReviewDate": "2020-10-30",
                "subjectType": [
                    "Patient"
                ],
                "item": [
                    {
                        "linkId": "7434927",
                        "prefix": "2200",
                        "text": "WHAT IS SAID TO BE THE MAIN REASON FOR THIS CONTACT?",
                        "type": "choice",
                        "required": true,
                        "repeats": false,
                        "option": [
                            {
                                "valueString": "new confusion now, Selected: false"
                            },
                            {
                                "valueString": "a diabetic hypo (low blood sugar) or a diabetic hyper (high blood sugar), Selected: false"
                            },
                            {
                                "valueString": "recovery from an ICD (implanted cardioverter defibrillator) shock, Selected: false"
                            },
                            {
                                "valueString": "none of the above, Selected: true"
                            }
                        ]
                    }
                ]
            }
        },
        {
            "fullUrl": "urn:uuid:5dc61ec5-49ba-44dd-b7f9-f8aff7e22ec6",
            "resource": {
                "resourceType": "QuestionnaireResponse",
                "id": "5dc61ec5-49ba-44dd-b7f9-f8aff7e22ec6",
                "identifier": {
                    "value": "7434927"
                },
                "questionnaire": {
                    "reference": "urn:uuid:a82fbf99-6de0-4299-9ace-5a72a4d87d56"
                },
                "status": "completed",
                "subject": {
                    "reference": "urn:uuid:a9099782-5dca-464e-9452-55655750f306"
                },
                "context": {
                    "reference": "urn:uuid:e0053d9a-76da-4f68-85d5-ae91af61a214"
                },
                "authored": "2020-10-30T19:29:05+01:00",
                "item": [
                    {
                        "linkId": "Tx223142",
                        "text": "Does the skin on the chest, back or abdomen feel a normal temperature?",
                        "answer": [
                            {
                                "valueString": "yes - normal, warm or hot"
                            }
                        ]
                    }
                ]
            }
        },
        {
            "fullUrl": "urn:uuid:a82fbf99-6de0-4299-9ace-5a72a4d87d56",
            "resource": {
                "resourceType": "Questionnaire",
                "id": "a82fbf99-6de0-4299-9ace-5a72a4d87d56",
                "identifier": [
                    {
                        "value": "7434927"
                    }
                ],
                "version": "2020-10-30T18:29:05.808Z",
                "status": "active",
                "experimental": false,
                "date": "2020-10-30T19:29:05+01:00",
                "publisher": "User ID: 'RB12' User name: 'Rachel Boyer' User skill set: 'T3'",
                "lastReviewDate": "2020-10-30",
                "subjectType": [
                    "Patient"
                ],
                "item": [
                    {
                        "linkId": "7434927",
                        "prefix": "4200",
                        "text": "Does the skin on the chest, back or abdomen feel a normal temperature?",
                        "type": "choice",
                        "required": true,
                        "repeats": false,
                        "option": [
                            {
                                "valueString": "yes - normal, warm or hot, Selected: true"
                            },
                            {
                                "valueString": "not sure, Selected: false"
                            },
                            {
                                "valueString": "no - cool OR cold, Selected: false"
                            },
                            {
                                "valueString": "not safe to touch, Selected: false"
                            }
                        ]
                    }
                ]
            }
        },
        {
            "fullUrl": "urn:uuid:5d8d1a0f-29a6-474d-8fb1-32f8549d972d",
            "resource": {
                "resourceType": "QuestionnaireResponse",
                "id": "5d8d1a0f-29a6-474d-8fb1-32f8549d972d",
                "identifier": {
                    "value": "7434927"
                },
                "questionnaire": {
                    "reference": "urn:uuid:8495892e-6bd7-42cb-b576-6e37a20a1d52"
                },
                "status": "completed",
                "subject": {
                    "reference": "urn:uuid:a9099782-5dca-464e-9452-55655750f306"
                },
                "context": {
                    "reference": "urn:uuid:e0053d9a-76da-4f68-85d5-ae91af61a214"
                },
                "authored": "2020-10-30T19:29:05+01:00",
                "item": [
                    {
                        "linkId": "Tx221724",
                        "text": "STRING:ShockAsked",
                        "answer": [
                            {
                                "valueString": "\"present\""
                            }
                        ]
                    }
                ]
            }
        },
        {
            "fullUrl": "urn:uuid:8495892e-6bd7-42cb-b576-6e37a20a1d52",
            "resource": {
                "resourceType": "Questionnaire",
                "id": "8495892e-6bd7-42cb-b576-6e37a20a1d52",
                "identifier": [
                    {
                        "value": "7434927"
                    }
                ],
                "version": "2020-10-30T18:29:05.808Z",
                "status": "active",
                "experimental": false,
                "date": "2020-10-30T19:29:05+01:00",
                "publisher": "User ID: 'RB12' User name: 'Rachel Boyer' User skill set: 'T3'",
                "lastReviewDate": "2020-10-30",
                "subjectType": [
                    "Patient"
                ],
                "item": [
                    {
                        "linkId": "7434927",
                        "prefix": "3700",
                        "text": "STRING:ShockAsked",
                        "type": "choice",
                        "required": true,
                        "repeats": false,
                        "option": [
                            {
                                "valueString": "\"present\", Selected: true"
                            }
                        ]
                    }
                ]
            }
        },
        {
            "fullUrl": "urn:uuid:8051bf7e-f63b-4529-94ed-7470724d4662",
            "resource": {
                "resourceType": "QuestionnaireResponse",
                "id": "8051bf7e-f63b-4529-94ed-7470724d4662",
                "identifier": {
                    "value": "7434927"
                },
                "questionnaire": {
                    "reference": "urn:uuid:4268b276-ed6d-4242-8e65-4caf5bdfd84c"
                },
                "status": "completed",
                "subject": {
                    "reference": "urn:uuid:a9099782-5dca-464e-9452-55655750f306"
                },
                "context": {
                    "reference": "urn:uuid:e0053d9a-76da-4f68-85d5-ae91af61a214"
                },
                "authored": "2020-10-30T19:29:05+01:00"
            }
        },
        {
            "fullUrl": "urn:uuid:4268b276-ed6d-4242-8e65-4caf5bdfd84c",
            "resource": {
                "resourceType": "Questionnaire",
                "id": "4268b276-ed6d-4242-8e65-4caf5bdfd84c",
                "identifier": [
                    {
                        "value": "7434927"
                    }
                ],
                "version": "2020-10-30T18:29:05.808Z",
                "status": "active",
                "experimental": false,
                "date": "2020-10-30T19:29:05+01:00",
                "publisher": "User ID: 'RB12' User name: 'Rachel Boyer' User skill set: 'T3'",
                "lastReviewDate": "2020-10-30",
                "subjectType": [
                    "Patient"
                ]
            }
        },
        {
            "fullUrl": "urn:uuid:8bc97391-af31-4020-abfc-110cfd06e603",
            "resource": {
                "resourceType": "QuestionnaireResponse",
                "id": "8bc97391-af31-4020-abfc-110cfd06e603",
                "identifier": {
                    "value": "7434927"
                },
                "questionnaire": {
                    "reference": "urn:uuid:5c116cd9-b07e-4991-bda4-3f60343fbd76"
                },
                "status": "completed",
                "subject": {
                    "reference": "urn:uuid:a9099782-5dca-464e-9452-55655750f306"
                },
                "context": {
                    "reference": "urn:uuid:e0053d9a-76da-4f68-85d5-ae91af61a214"
                },
                "authored": "2020-10-30T19:29:05+01:00",
                "item": [
                    {
                        "linkId": "Tx42307",
                        "text": "Are you feeling faint or dizzy?",
                        "answer": [
                            {
                                "valueString": "no"
                            }
                        ]
                    }
                ]
            }
        },
        {
            "fullUrl": "urn:uuid:5c116cd9-b07e-4991-bda4-3f60343fbd76",
            "resource": {
                "resourceType": "Questionnaire",
                "id": "5c116cd9-b07e-4991-bda4-3f60343fbd76",
                "identifier": [
                    {
                        "value": "7434927"
                    }
                ],
                "version": "2020-10-30T18:29:05.808Z",
                "status": "active",
                "experimental": false,
                "date": "2020-10-30T19:29:05+01:00",
                "publisher": "User ID: 'RB12' User name: 'Rachel Boyer' User skill set: 'T3'",
                "lastReviewDate": "2020-10-30",
                "subjectType": [
                    "Patient"
                ],
                "item": [
                    {
                        "linkId": "7434927",
                        "prefix": "0",
                        "text": "Are you feeling faint or dizzy?",
                        "type": "choice",
                        "required": true,
                        "repeats": false,
                        "option": [
                            {
                                "valueString": "yes, Selected: false"
                            },
                            {
                                "valueString": "not sure, Selected: false"
                            },
                            {
                                "valueString": "no, Selected: true"
                            }
                        ]
                    }
                ]
            }
        },
        {
            "fullUrl": "urn:uuid:deaa5fd6-119c-47bd-967e-2d2d411071b5",
            "resource": {
                "resourceType": "QuestionnaireResponse",
                "id": "deaa5fd6-119c-47bd-967e-2d2d411071b5",
                "identifier": {
                    "value": "7434927"
                },
                "questionnaire": {
                    "reference": "urn:uuid:5c4adb41-b5f1-4fe3-8223-96f30f2848eb"
                },
                "status": "completed",
                "subject": {
                    "reference": "urn:uuid:a9099782-5dca-464e-9452-55655750f306"
                },
                "context": {
                    "reference": "urn:uuid:e0053d9a-76da-4f68-85d5-ae91af61a214"
                },
                "authored": "2020-10-30T19:29:05+01:00",
                "item": [
                    {
                        "linkId": "Tx1260",
                        "text": "Is the nose still bleeding?",
                        "answer": [
                            {
                                "valueString": "yes"
                            }
                        ]
                    }
                ]
            }
        },
        {
            "fullUrl": "urn:uuid:5c4adb41-b5f1-4fe3-8223-96f30f2848eb",
            "resource": {
                "resourceType": "Questionnaire",
                "id": "5c4adb41-b5f1-4fe3-8223-96f30f2848eb",
                "identifier": [
                    {
                        "value": "7434927"
                    }
                ],
                "version": "2020-10-30T18:29:05.808Z",
                "status": "active",
                "experimental": false,
                "date": "2020-10-30T19:29:05+01:00",
                "publisher": "User ID: 'RB12' User name: 'Rachel Boyer' User skill set: 'T3'",
                "lastReviewDate": "2020-10-30",
                "subjectType": [
                    "Patient"
                ],
                "item": [
                    {
                        "linkId": "7434927",
                        "prefix": "100",
                        "text": "Is the nose still bleeding?",
                        "type": "choice",
                        "required": true,
                        "repeats": false,
                        "option": [
                            {
                                "valueString": "yes, Selected: true"
                            },
                            {
                                "valueString": "not sure, Selected: false"
                            },
                            {
                                "valueString": "no, Selected: false"
                            }
                        ]
                    }
                ]
            }
        },
        {
            "fullUrl": "urn:uuid:1ab909c6-6311-4516-9ee8-5d7ea9173645",
            "resource": {
                "resourceType": "QuestionnaireResponse",
                "id": "1ab909c6-6311-4516-9ee8-5d7ea9173645",
                "identifier": {
                    "value": "7434927"
                },
                "questionnaire": {
                    "reference": "urn:uuid:1ebc2a26-0563-467e-bfb3-5ddc3ac621cd"
                },
                "status": "completed",
                "subject": {
                    "reference": "urn:uuid:a9099782-5dca-464e-9452-55655750f306"
                },
                "context": {
                    "reference": "urn:uuid:e0053d9a-76da-4f68-85d5-ae91af61a214"
                },
                "authored": "2020-10-30T19:29:05+01:00",
                "item": [
                    {
                        "linkId": "Tx1258",
                        "text": "Is anything stuck up the nose?",
                        "answer": [
                            {
                                "valueString": "no"
                            }
                        ]
                    }
                ]
            }
        },
        {
            "fullUrl": "urn:uuid:1ebc2a26-0563-467e-bfb3-5ddc3ac621cd",
            "resource": {
                "resourceType": "Questionnaire",
                "id": "1ebc2a26-0563-467e-bfb3-5ddc3ac621cd",
                "identifier": [
                    {
                        "value": "7434927"
                    }
                ],
                "version": "2020-10-30T18:29:05.808Z",
                "status": "active",
                "experimental": false,
                "date": "2020-10-30T19:29:05+01:00",
                "publisher": "User ID: 'RB12' User name: 'Rachel Boyer' User skill set: 'T3'",
                "lastReviewDate": "2020-10-30",
                "subjectType": [
                    "Patient"
                ],
                "item": [
                    {
                        "linkId": "7434927",
                        "prefix": "300",
                        "text": "Is anything stuck up the nose?",
                        "type": "choice",
                        "required": true,
                        "repeats": false,
                        "option": [
                            {
                                "valueString": "yes, Selected: false"
                            },
                            {
                                "valueString": "not sure, Selected: false"
                            },
                            {
                                "valueString": "no, Selected: true"
                            }
                        ]
                    }
                ]
            }
        },
        {
            "fullUrl": "urn:uuid:dce7a071-804f-4f2b-8065-cfe36fe76f43",
            "resource": {
                "resourceType": "QuestionnaireResponse",
                "id": "dce7a071-804f-4f2b-8065-cfe36fe76f43",
                "identifier": {
                    "value": "7434927"
                },
                "questionnaire": {
                    "reference": "urn:uuid:f24a1993-c9fe-433a-9a76-a89bc818cedd"
                },
                "status": "completed",
                "subject": {
                    "reference": "urn:uuid:a9099782-5dca-464e-9452-55655750f306"
                },
                "context": {
                    "reference": "urn:uuid:e0053d9a-76da-4f68-85d5-ae91af61a214"
                },
                "authored": "2020-10-30T19:29:05+01:00",
                "item": [
                    {
                        "linkId": "Tx1259",
                        "text": "Have you pinched the soft part of the nose for AT LEAST 10 MINUTES without a break?",
                        "answer": [
                            {
                                "valueString": "yes"
                            }
                        ]
                    }
                ]
            }
        },
        {
            "fullUrl": "urn:uuid:f24a1993-c9fe-433a-9a76-a89bc818cedd",
            "resource": {
                "resourceType": "Questionnaire",
                "id": "f24a1993-c9fe-433a-9a76-a89bc818cedd",
                "identifier": [
                    {
                        "value": "7434927"
                    }
                ],
                "version": "2020-10-30T18:29:05.808Z",
                "status": "active",
                "experimental": false,
                "date": "2020-10-30T19:29:05+01:00",
                "publisher": "User ID: 'RB12' User name: 'Rachel Boyer' User skill set: 'T3'",
                "lastReviewDate": "2020-10-30",
                "subjectType": [
                    "Patient"
                ],
                "item": [
                    {
                        "linkId": "7434927",
                        "prefix": "1500",
                        "text": "Have you pinched the soft part of the nose for AT LEAST 10 MINUTES without a break?",
                        "type": "choice",
                        "required": true,
                        "repeats": false,
                        "option": [
                            {
                                "valueString": "yes, Selected: true"
                            },
                            {
                                "valueString": "not sure, Selected: false"
                            },
                            {
                                "valueString": "no, Selected: false"
                            }
                        ]
                    }
                ]
            }
        },
        {
            "fullUrl": "urn:uuid:b6dfa6ef-c25b-492d-97af-4d5e0b79c823",
            "resource": {
                "resourceType": "QuestionnaireResponse",
                "id": "b6dfa6ef-c25b-492d-97af-4d5e0b79c823",
                "identifier": {
                    "value": "7434927"
                },
                "questionnaire": {
                    "reference": "urn:uuid:6c41923c-f148-43e8-bf59-f1c7c126d270"
                },
                "status": "completed",
                "subject": {
                    "reference": "urn:uuid:a9099782-5dca-464e-9452-55655750f306"
                },
                "context": {
                    "reference": "urn:uuid:e0053d9a-76da-4f68-85d5-ae91af61a214"
                },
                "authored": "2020-10-30T19:29:05+01:00",
                "item": [
                    {
                        "linkId": "Tx221512",
                        "text": "STRING:SDEDFullEDassessmentandmanagementcapability",
                        "answer": [
                            {
                                "valueString": "\"ED full ED assessment and management capability\""
                            }
                        ]
                    }
                ]
            }
        },
        {
            "fullUrl": "urn:uuid:6c41923c-f148-43e8-bf59-f1c7c126d270",
            "resource": {
                "resourceType": "Questionnaire",
                "id": "6c41923c-f148-43e8-bf59-f1c7c126d270",
                "identifier": [
                    {
                        "value": "7434927"
                    }
                ],
                "version": "2020-10-30T18:29:05.808Z",
                "status": "active",
                "experimental": false,
                "date": "2020-10-30T19:29:05+01:00",
                "publisher": "User ID: 'RB12' User name: 'Rachel Boyer' User skill set: 'T3'",
                "lastReviewDate": "2020-10-30",
                "subjectType": [
                    "Patient"
                ],
                "item": [
                    {
                        "linkId": "7434927",
                        "prefix": "1700",
                        "text": "STRING:SDEDFullEDassessmentandmanagementcapability",
                        "type": "choice",
                        "required": true,
                        "repeats": false,
                        "option": [
                            {
                                "valueString": "\"ED full ED assessment and management capability\", Selected: true"
                            }
                        ]
                    }
                ]
            }
        },
        {
            "fullUrl": "urn:uuid:bb0b571e-19e8-4a8c-8aa0-c743d9f295db",
            "resource": {
                "resourceType": "QuestionnaireResponse",
                "id": "bb0b571e-19e8-4a8c-8aa0-c743d9f295db",
                "identifier": {
                    "value": "7434927"
                },
                "questionnaire": {
                    "reference": "urn:uuid:78af31e5-8764-48f0-a327-2e34ff7c592f"
                },
                "status": "completed",
                "subject": {
                    "reference": "urn:uuid:a9099782-5dca-464e-9452-55655750f306"
                },
                "context": {
                    "reference": "urn:uuid:e0053d9a-76da-4f68-85d5-ae91af61a214"
                },
                "authored": "2020-10-30T19:29:05+01:00"
            }
        },
        {
            "fullUrl": "urn:uuid:78af31e5-8764-48f0-a327-2e34ff7c592f",
            "resource": {
                "resourceType": "Questionnaire",
                "id": "78af31e5-8764-48f0-a327-2e34ff7c592f",
                "identifier": [
                    {
                        "value": "7434927"
                    }
                ],
                "version": "2020-10-30T18:29:05.808Z",
                "status": "active",
                "experimental": false,
                "date": "2020-10-30T19:29:05+01:00",
                "publisher": "User ID: 'RB12' User name: 'Rachel Boyer' User skill set: 'T3'",
                "lastReviewDate": "2020-10-30",
                "subjectType": [
                    "Patient"
                ]
            }
        },
        {
            "fullUrl": "urn:uuid:0786502a-7216-4fce-b322-dc4754c7b892",
            "resource": {
                "resourceType": "QuestionnaireResponse",
                "id": "0786502a-7216-4fce-b322-dc4754c7b892",
                "identifier": {
                    "value": "7434927"
                },
                "questionnaire": {
                    "reference": "urn:uuid:1435c99b-8c5b-4b07-893d-418264517a07"
                },
                "status": "completed",
                "subject": {
                    "reference": "urn:uuid:a9099782-5dca-464e-9452-55655750f306"
                },
                "context": {
                    "reference": "urn:uuid:e0053d9a-76da-4f68-85d5-ae91af61a214"
                },
                "authored": "2020-10-30T19:29:05+01:00"
            }
        },
        {
            "fullUrl": "urn:uuid:1435c99b-8c5b-4b07-893d-418264517a07",
            "resource": {
                "resourceType": "Questionnaire",
                "id": "1435c99b-8c5b-4b07-893d-418264517a07",
                "identifier": [
                    {
                        "value": "7434927"
                    }
                ],
                "version": "2020-10-30T18:29:05.808Z",
                "status": "active",
                "experimental": false,
                "date": "2020-10-30T19:29:05+01:00",
                "publisher": "User ID: 'RB12' User name: 'Rachel Boyer' User skill set: 'T3'",
                "lastReviewDate": "2020-10-30",
                "subjectType": [
                    "Patient"
                ]
            }
        },
        {
            "fullUrl": "urn:uuid:62c7c9a4-4e1c-4604-b918-6fcd1eda1918",
            "resource": {
                "resourceType": "QuestionnaireResponse",
                "id": "62c7c9a4-4e1c-4604-b918-6fcd1eda1918",
                "identifier": {
                    "value": "7434927"
                },
                "questionnaire": {
                    "reference": "urn:uuid:c131b77c-e2e2-4b48-9171-6f8970f04b5c"
                },
                "status": "completed",
                "subject": {
                    "reference": "urn:uuid:a9099782-5dca-464e-9452-55655750f306"
                },
                "context": {
                    "reference": "urn:uuid:e0053d9a-76da-4f68-85d5-ae91af61a214"
                },
                "authored": "2020-10-30T19:29:05+01:00"
            }
        },
        {
            "fullUrl": "urn:uuid:c131b77c-e2e2-4b48-9171-6f8970f04b5c",
            "resource": {
                "resourceType": "Questionnaire",
                "id": "c131b77c-e2e2-4b48-9171-6f8970f04b5c",
                "identifier": [
                    {
                        "value": "7434927"
                    }
                ],
                "version": "2020-10-30T18:29:05.808Z",
                "status": "active",
                "experimental": false,
                "date": "2020-10-30T19:29:05+01:00",
                "publisher": "User ID: 'RB12' User name: 'Rachel Boyer' User skill set: 'T3'",
                "lastReviewDate": "2020-10-30",
                "subjectType": [
                    "Patient"
                ]
            }
        },
        {
            "fullUrl": "urn:uuid:af0d99b2-951e-4e83-8ace-aaeb5d31331d",
            "resource": {
                "resourceType": "Observation",
                "id": "af0d99b2-951e-4e83-8ace-aaeb5d31331d",
                "status": "final",
                "code": {
                    "coding": [
                        {
                            "system": "http://snomed.info/sct",
                            "code": "33962009",
                            "display": "Presenting complaint"
                        }
                    ]
                },
                "subject": {
                    "reference": "urn:uuid:a9099782-5dca-464e-9452-55655750f306"
                },
                "context": {
                    "reference": "urn:uuid:e0053d9a-76da-4f68-85d5-ae91af61a214"
                }
            }
        },
        {
            "fullUrl": "urn:uuid:da495736-2a29-4eac-a1b6-a48b8a70bfcf",
            "resource": {
                "resourceType": "PractitionerRole",
                "id": "da495736-2a29-4eac-a1b6-a48b8a70bfcf",
                "practitioner": {
                    "reference": "urn:uuid:bf99ef72-40ea-4184-8803-a815563d3b80"
                },
                "organization": {
                    "reference": "urn:uuid:0a5187e9-3ae0-4f8a-8619-de7af231f971"
                },
                "code": [
                    {
                        "coding": [
                            {
                                "system": "2.16.840.1.113883.2.1.3.2.4.17.339",
                                "code": "OTHER",
                                "display": "Assessed by"
                            }
                        ]
                    }
                ]
            }
        },
        {
            "fullUrl": "urn:uuid:0a5187e9-3ae0-4f8a-8619-de7af231f971",
            "resource": {
                "resourceType": "Organization",
                "id": "0a5187e9-3ae0-4f8a-8619-de7af231f971",
                "identifier": [
                    {
                        "value": "Y00397"
                    }
                ],
                "name": "Devon 111 (Devon Doctors Group)"
            }
        },
        {
            "fullUrl": "urn:uuid:19da23e1-56ae-414f-8efa-08b5c94ee114",
            "resource": {
                "resourceType": "PractitionerRole",
                "id": "19da23e1-56ae-414f-8efa-08b5c94ee114",
                "practitioner": {
                    "reference": "urn:uuid:073a258d-81d3-4ece-8261-cb4fc37b397d"
                },
                "organization": {
                    "reference": "urn:uuid:3fb14fb2-121f-4385-94be-bb88d6e96b42"
                },
                "code": [
                    {
                        "coding": [
                            {
                                "system": "2.16.840.1.113883.2.1.3.2.4.17.196",
                                "code": "R0010",
                                "display": "Medical Director"
                            }
                        ]
                    }
                ]
            }
        },
        {
            "fullUrl": "urn:uuid:3fb14fb2-121f-4385-94be-bb88d6e96b42",
            "resource": {
                "resourceType": "Organization",
                "id": "3fb14fb2-121f-4385-94be-bb88d6e96b42",
                "identifier": [
                    {
                        "value": "Y00397"
                    }
                ],
                "name": "Devon Doctors Group"
            }
        },
        {
            "fullUrl": "urn:uuid:000fb261-9ed5-4ee9-98ee-a730a9f06e32",
            "resource": {
                "resourceType": "RelatedPerson",
                "id": "000fb261-9ed5-4ee9-98ee-a730a9f06e32",
                "patient": {
                    "reference": "urn:uuid:a9099782-5dca-464e-9452-55655750f306"
                },
                "relationship": {
                    "coding": [
                        {
                            "system": "http://hl7.org/fhir/v2/0131",
                            "code": "C",
                            "display": "Emergency Contact"
                        }
                    ]
                },
                "telecom": [
                    {
                        "system": "phone",
                        "value": "tel:01702123456"
                    }
                ]
            }
        },
        {
            "fullUrl": "urn:uuid:0a93ce4d-2a11-44ce-a30f-46c7a5dd4fee",
            "resource": {
                "resourceType": "Device",
                "id": "0a93ce4d-2a11-44ce-a30f-46c7a5dd4fee",
                "model": "111 Adaptor",
                "version": "0.8.0"
            }
        },
        {
            "fullUrl": "urn:uuid:3dd421dd-a023-4532-8a19-7715ba10f043",
            "resource": {
                "resourceType": "List",
                "id": "3dd421dd-a023-4532-8a19-7715ba10f043",
                "status": "current",
                "mode": "working",
                "title": "111 Report List",
                "code": {
                    "coding": [
                        {
                            "system": "http://snomed.info/sct",
                            "code": "225390008",
                            "display": "Triage"
                        }
                    ]
                },
                "subject": {
                    "reference": "urn:uuid:a9099782-5dca-464e-9452-55655750f306"
                },
                "encounter": {
                    "reference": "urn:uuid:e0053d9a-76da-4f68-85d5-ae91af61a214"
                },
                "date": "2021-09-09T23:21:50+02:00",
                "source": {
                    "reference": "urn:uuid:0a93ce4d-2a11-44ce-a30f-46c7a5dd4fee"
                },
                "orderedBy": {
                    "coding": [
                        {
                            "system": "http://hl7.org/fhir/list-order",
                            "code": "event-date",
                            "display": "Sorted by Event Date"
                        }
                    ]
                },
                "entry": [
                    {
                        "item": {
                            "reference": "urn:uuid:20097cd6-288b-4963-94c4-25fe40138ddc"
                        }
                    },
                    {
                        "item": {
                            "reference": "urn:uuid:af0d99b2-951e-4e83-8ace-aaeb5d31331d"
                        }
                    },
                    {
                        "item": {
                            "reference": "urn:uuid:8daa6e38-88ba-47b7-8e50-117bc13f956c"
                        }
                    },
                    {
                        "item": {
                            "reference": "urn:uuid:505fa59d-27ab-4503-ba68-bc4f02849f53"
                        }
                    },
                    {
                        "item": {
                            "reference": "urn:uuid:000fb261-9ed5-4ee9-98ee-a730a9f06e32"
                        }
                    },
                    {
                        "item": {
                            "reference": "urn:uuid:bf99ef72-40ea-4184-8803-a815563d3b80"
                        }
                    },
                    {
                        "item": {
                            "reference": "urn:uuid:8b5554f6-3d6f-40ea-a076-b3ad11772396"
                        }
                    },
                    {
                        "item": {
                            "reference": "urn:uuid:ab448f56-3ec9-415f-a199-98a107c5ff3f"
                        }
                    },
                    {
                        "item": {
                            "reference": "urn:uuid:073a258d-81d3-4ece-8261-cb4fc37b397d"
                        }
                    },
                    {
                        "item": {
                            "reference": "urn:uuid:3fb14fb2-121f-4385-94be-bb88d6e96b42"
                        }
                    },
                    {
                        "item": {
                            "reference": "urn:uuid:0a5187e9-3ae0-4f8a-8619-de7af231f971"
                        }
                    },
                    {
                        "item": {
                            "reference": "urn:uuid:4268b276-ed6d-4242-8e65-4caf5bdfd84c"
                        }
                    },
                    {
                        "item": {
                            "reference": "urn:uuid:78af31e5-8764-48f0-a327-2e34ff7c592f"
                        }
                    },
                    {
                        "item": {
                            "reference": "urn:uuid:8bc97391-af31-4020-abfc-110cfd06e603"
                        }
                    },
                    {
                        "item": {
                            "reference": "urn:uuid:690b8a25-44ad-478b-aada-a35c3823b170"
                        }
                    },
                    {
                        "item": {
                            "reference": "urn:uuid:0786502a-7216-4fce-b322-dc4754c7b892"
                        }
                    },
                    {
                        "item": {
                            "reference": "urn:uuid:0e77f1ce-6dc1-4c23-a0e2-637e5dc3e8bd"
                        }
                    },
                    {
                        "item": {
                            "reference": "urn:uuid:1435c99b-8c5b-4b07-893d-418264517a07"
                        }
                    },
                    {
                        "item": {
                            "reference": "urn:uuid:1ebc2a26-0563-467e-bfb3-5ddc3ac621cd"
                        }
                    },
                    {
                        "item": {
                            "reference": "urn:uuid:c131b77c-e2e2-4b48-9171-6f8970f04b5c"
                        }
                    },
                    {
                        "item": {
                            "reference": "urn:uuid:6ff05101-6334-49bf-abec-781a1b4799fc"
                        }
                    },
                    {
                        "item": {
                            "reference": "urn:uuid:bb0b571e-19e8-4a8c-8aa0-c743d9f295db"
                        }
                    },
                    {
                        "item": {
                            "reference": "urn:uuid:5c4adb41-b5f1-4fe3-8223-96f30f2848eb"
                        }
                    },
                    {
                        "item": {
                            "reference": "urn:uuid:8f66a614-8b09-4b30-a0b1-0220b4f5ee2b"
                        }
                    },
                    {
                        "item": {
                            "reference": "urn:uuid:5d8d1a0f-29a6-474d-8fb1-32f8549d972d"
                        }
                    },
                    {
                        "item": {
                            "reference": "urn:uuid:baec1d92-1484-4b62-9725-e4c66b38252b"
                        }
                    },
                    {
                        "item": {
                            "reference": "urn:uuid:deaa5fd6-119c-47bd-967e-2d2d411071b5"
                        }
                    },
                    {
                        "item": {
                            "reference": "urn:uuid:58f85469-602c-40ec-beba-d00f8cffd6cd"
                        }
                    },
                    {
                        "item": {
                            "reference": "urn:uuid:8051bf7e-f63b-4529-94ed-7470724d4662"
                        }
                    },
                    {
                        "item": {
                            "reference": "urn:uuid:2a449c3b-2f93-40fd-91bf-d406416a9295"
                        }
                    },
                    {
                        "item": {
                            "reference": "urn:uuid:c08bb286-76e2-4d79-af27-edb110513a23"
                        }
                    },
                    {
                        "item": {
                            "reference": "urn:uuid:f24a1993-c9fe-433a-9a76-a89bc818cedd"
                        }
                    },
                    {
                        "item": {
                            "reference": "urn:uuid:0976fb73-3023-4f45-8f55-ced2d2cc6b7a"
                        }
                    },
                    {
                        "item": {
                            "reference": "urn:uuid:ebf7c5d1-6bce-4bce-89dc-42bdfdcbedc4"
                        }
                    },
                    {
                        "item": {
                            "reference": "urn:uuid:7842c711-3765-4961-843b-eb71a7956027"
                        }
                    },
                    {
                        "item": {
                            "reference": "urn:uuid:b6dfa6ef-c25b-492d-97af-4d5e0b79c823"
                        }
                    },
                    {
                        "item": {
                            "reference": "urn:uuid:1ab909c6-6311-4516-9ee8-5d7ea9173645"
                        }
                    },
                    {
                        "item": {
                            "reference": "urn:uuid:85631730-0ab0-4333-b4a2-c82755677502"
                        }
                    },
                    {
                        "item": {
                            "reference": "urn:uuid:62c7c9a4-4e1c-4604-b918-6fcd1eda1918"
                        }
                    },
                    {
                        "item": {
                            "reference": "urn:uuid:5c116cd9-b07e-4991-bda4-3f60343fbd76"
                        }
                    },
                    {
                        "item": {
                            "reference": "urn:uuid:bb7c6702-e37b-4b73-b10a-3ebbe071bf73"
                        }
                    },
                    {
                        "item": {
                            "reference": "urn:uuid:89bc7ace-84f4-43a6-b231-11191f8c5bc2"
                        }
                    },
                    {
                        "item": {
                            "reference": "urn:uuid:a82fbf99-6de0-4299-9ace-5a72a4d87d56"
                        }
                    },
                    {
                        "item": {
                            "reference": "urn:uuid:dce7a071-804f-4f2b-8065-cfe36fe76f43"
                        }
                    },
                    {
                        "item": {
                            "reference": "urn:uuid:8b2dec91-1e0b-47de-a1e6-5b17c8052318"
                        }
                    },
                    {
                        "item": {
                            "reference": "urn:uuid:236cb8a9-2b5d-4932-a979-1a65dc94441a"
                        }
                    },
                    {
                        "item": {
                            "reference": "urn:uuid:5346d054-5e25-4a63-90c9-ab27dc3b4afe"
                        }
                    },
                    {
                        "item": {
                            "reference": "urn:uuid:6303a110-b76e-4a50-b4d4-74a49913bf7d"
                        }
                    },
                    {
                        "item": {
                            "reference": "urn:uuid:2855f6b1-aa8f-4894-adff-176577893247"
                        }
                    },
                    {
                        "item": {
                            "reference": "urn:uuid:76d919bb-afec-4fd0-8a0b-895bd1db2ea0"
                        }
                    },
                    {
                        "item": {
                            "reference": "urn:uuid:6c41923c-f148-43e8-bf59-f1c7c126d270"
                        }
                    },
                    {
                        "item": {
                            "reference": "urn:uuid:5dc61ec5-49ba-44dd-b7f9-f8aff7e22ec6"
                        }
                    },
                    {
                        "item": {
                            "reference": "urn:uuid:8495892e-6bd7-42cb-b576-6e37a20a1d52"
                        }
                    },
                    {
                        "item": {
                            "reference": "urn:uuid:ea407fb0-428d-4fb4-87e9-5de91f651c86"
                        }
                    },
                    {
                        "item": {
                            "reference": "urn:uuid:bff93709-3916-4e44-84ab-7ceb42836d27"
                        }
                    },
                    {
                        "item": {
                            "reference": "urn:uuid:85f91cbe-2095-4abc-b401-e790ba3c258b"
                        }
                    },
                    {
                        "item": {
                            "reference": "urn:uuid:d88f2853-550f-4efb-91e3-8f77882ee213"
                        }
                    },
                    {
                        "item": {
                            "reference": "urn:uuid:feff3005-d107-4eb1-9007-aae1e488e0f0"
                        }
                    }
                ]
            }
        }
    ]
}