{
  "resourceType": "Bundle",
  "identifier": {
    "type": {
      "text": "ClinicalDocument VersionNumber"
    },
    "value": "1"
  },
  "type": "message",
  "entry": [ {
    "fullUrl": "urn:uuid:7AEFFED7-78AF-4940-9EE2-5FAA3920ECFE",
    "resource": {
      "resourceType": "MessageHeader",
      "id": "7AEFFED7-78AF-4940-9EE2-5FAA3920ECFE",
      "event": {
        "system": "https://fhir.nhs.uk/STU3/CodeSystem/EventType-1",
        "code": "referral-1",
        "display": "Referral"
      },
      "destination": [ {
        "endpoint": "urn:nhs-uk:addressing:ods:RSHSO14A:DOSServiceID:2000006423"
      } ],
      "timestamp": "2021-04-06T11:33:35.000+00:00",
      "source": {
        "name": "NHS 111 Adaptor",
        "endpoint": "http://localhost:8080/report"
      },
      "reason": {
        "coding": [ {
          "system": "urn:nhs-itk:ns:201005:interaction",
          "code": "urn:nhs-itk:interaction:primaryEmergencyDepartmentRecipientNHS111CDADocument-v2-0"
        } ]
      }
    }
  }, {
    "fullUrl": "urn:uuid:09e7f0c9-40f2-4bb7-b5b6-9df4aff17591",
    "resource": {
      "resourceType": "Encounter",
      "id": "09e7f0c9-40f2-4bb7-b5b6-9df4aff17591",
      "identifier": [ {
        "system": "2.16.840.1.113883.2.1.3.2.4.18.34",
        "value": "029EE79C-BBD3-478A-93EE-979CB300212E"
      }, {
        "system": "2.16.840.1.113883.2.1.3.2.4.18.35",
        "value": "59132"
      }, {
        "system": "2.16.840.1.113883.2.1.3.2.4.18.49",
        "value": "029EE79C-BBD3-478A-93EE-979CB300212E"
      } ],
      "status": "finished",
      "type": [ {
        "text": "111 Encounter Referral"
      } ],
      "subject": {
        "reference": "urn:uuid:1df07e61-ca7b-49c7-aae4-09080f84301e"
      },
      "participant": [ {
        "type": [ {
          "coding": [ {
            "system": "http://hl7.org/fhir/ValueSet/encounter-participant-type",
            "code": "PPRF",
            "display": "Author"
          } ]
        } ],
        "individual": {
          "reference": "urn:uuid:f5c35009-60bf-441a-9947-bf8536b1c1fb"
        }
      }, {
        "type": [ {
          "coding": [ {
            "system": "http://hl7.org/fhir/ValueSet/encounter-participant-type",
            "code": "ATND",
            "display": "Responsible Party"
          } ]
        } ],
        "individual": {
          "reference": "urn:uuid:6e8f7705-1259-4f62-94be-fd7c80a06efd"
        }
      } ],
      "period": {
        "start": "2021-04-06T11:33:35+00:00"
      },
      "location": [ {
        "location": {
          "reference": "urn:uuid:04dcdc1f-7cdd-430e-b77f-96330c1a3a4f"
        },
        "status": "active"
      }, {
        "location": {
          "reference": "urn:uuid:237cb92d-51d4-4501-93a3-6e306d9c37a2"
        },
        "status": "completed"
      } ],
      "serviceProvider": {
        "reference": "urn:uuid:9cda082a-26bd-4072-ba92-10127efb97a4"
      }
    }
  }, {
    "fullUrl": "urn:uuid:9cda082a-26bd-4072-ba92-10127efb97a4",
    "resource": {
      "resourceType": "Organization",
      "id": "9cda082a-26bd-4072-ba92-10127efb97a4",
      "active": true,
      "type": [ {
        "text": "CST"
      } ],
      "name": "SCAS111"
    }
  }, {
    "fullUrl": "urn:uuid:f5c35009-60bf-441a-9947-bf8536b1c1fb",
    "resource": {
      "resourceType": "Practitioner",
      "id": "f5c35009-60bf-441a-9947-bf8536b1c1fb",
      "active": true,
      "name": [ {
        "use": "official",
        "family": "McDonald",
        "given": [ "Denzle" ]
      } ]
    }
  }, {
    "fullUrl": "urn:uuid:6e8f7705-1259-4f62-94be-fd7c80a06efd",
    "resource": {
      "resourceType": "Practitioner",
      "id": "6e8f7705-1259-4f62-94be-fd7c80a06efd",
      "active": true,
      "name": [ {
        "use": "official",
        "family": "Black",
        "given": [ "John" ]
      } ]
    }
  }, {
    "fullUrl": "urn:uuid:04dcdc1f-7cdd-430e-b77f-96330c1a3a4f",
    "resource": {
      "resourceType": "Location",
      "id": "04dcdc1f-7cdd-430e-b77f-96330c1a3a4f",
      "managingOrganization": {
        "reference": "urn:uuid:0e289b2a-76c5-4334-a721-95e0f78ab8cb"
      }
    }
  }, {
    "fullUrl": "urn:uuid:0e289b2a-76c5-4334-a721-95e0f78ab8cb",
    "resource": {
      "resourceType": "Organization",
      "id": "0e289b2a-76c5-4334-a721-95e0f78ab8cb",
      "identifier": [ {
        "value": "J82633"
      } ],
      "type": [ {
        "text": "GP Practice"
      } ],
      "name": "The Riverside Partnership ( Riverside Kelsey)",
      "telecom": [ {
        "system": "phone",
        "value": "tel:01730892412",
        "use": "work"
      } ],
      "address": [ {
        "use": "work",
        "line": [ "Riverside Kelsey Surgery", "75 Station Road", "Liss", "Hampshire" ],
        "postalCode": "GU33 7AD"
      } ]
    }
  }, {
    "fullUrl": "urn:uuid:237cb92d-51d4-4501-93a3-6e306d9c37a2",
    "resource": {
      "resourceType": "Location",
      "id": "237cb92d-51d4-4501-93a3-6e306d9c37a2",
      "name": "Incident Location",
      "address": {
        "type": "physical",
        "line": [ "Hampshire Partnership NHS Trust", "Tatchbury Mount Hospital Horseshoe Drive", "Calmore", "Southampton", "Hampshire" ],
        "postalCode": "SO40 2RZ"
      }
    }
  }, {
    "fullUrl": "urn:uuid:1df07e61-ca7b-49c7-aae4-09080f84301e",
    "resource": {
      "resourceType": "Patient",
      "id": "1df07e61-ca7b-49c7-aae4-09080f84301e",
      "identifier": [ {
        "extension": [ {
          "url": "https://fhir.hl7.org.uk/STU3/StructureDefinition/Extension-CareConnect-NHSNumberVerificationStatus-1",
          "valueCodeableConcept": {
            "coding": [ {
              "system": "https://fhir.hl7.org.uk/STU3/StructureDefinition/Extension-CareConnect-NHSNumberVerificationStatus-1",
              "code": "01"
            } ]
          }
        } ],
        "system": "https://fhir.nhs.uk/Id/nhs-number",
        "value": "9990004951"
      } ],
      "active": true,
      "name": [ {
        "use": "official",
        "family": "Xxtestpatientdfae",
        "given": [ "Btl-Donotuse" ]
      } ],
      "telecom": [ {
        "system": "phone",
        "value": "tel:07948625625",
        "use": "home"
      }, {
        "system": "phone",
        "value": "tel:07948625625"
      } ],
      "gender": "female",
      "birthDate": "2015-04-01",
      "address": [ {
        "use": "home",
        "line": [ "Hampshire Partnership NHS Trust", "Tatchbury Mount Hospital Horseshoe Drive", "Calmore", "Southampton", "Hampshire" ],
        "postalCode": "SO40 2RZ"
      } ],
      "generalPractitioner": [ {
        "reference": "urn:uuid:35ed4033-dfa2-4bc0-81c4-7edf8fd1860c"
      } ]
    }
  }, {
    "fullUrl": "urn:uuid:35ed4033-dfa2-4bc0-81c4-7edf8fd1860c",
    "resource": {
      "resourceType": "Organization",
      "id": "35ed4033-dfa2-4bc0-81c4-7edf8fd1860c",
      "identifier": [ {
        "value": "J82633"
      } ],
      "type": [ {
        "text": "GP Practice"
      } ],
      "name": "The Riverside Partnership ( Riverside Kelsey)",
      "telecom": [ {
        "system": "phone",
        "value": "tel:01730892412",
        "use": "work"
      } ],
      "address": [ {
        "use": "work",
        "line": [ "Riverside Kelsey Surgery", "75 Station Road", "Liss", "Hampshire" ],
        "postalCode": "GU33 7AD"
      } ]
    }
  }, {
    "fullUrl": "urn:uuid:35772963-52e0-4cef-97e8-a15ec6f488bf",
    "resource": {
      "resourceType": "HealthcareService",
      "id": "35772963-52e0-4cef-97e8-a15ec6f488bf",
      "active": true,
      "providedBy": {
        "reference": "urn:uuid:0d289a85-a274-4aeb-af2b-9994409c5700"
      },
      "location": [ {
        "reference": "urn:uuid:21933799-04be-4562-98e3-ac7a1ebb0a85"
      } ],
      "name": "Urgent Treatment Centre (GP led), Royal South Hants Hospital"
    }
  }, {
    "fullUrl": "urn:uuid:21933799-04be-4562-98e3-ac7a1ebb0a85",
    "resource": {
      "resourceType": "Location",
      "id": "21933799-04be-4562-98e3-ac7a1ebb0a85",
      "managingOrganization": {
        "reference": "urn:uuid:0d289a85-a274-4aeb-af2b-9994409c5700"
      }
    }
  }, {
    "fullUrl": "urn:uuid:0d289a85-a274-4aeb-af2b-9994409c5700",
    "resource": {
      "resourceType": "Organization",
      "id": "0d289a85-a274-4aeb-af2b-9994409c5700",
      "identifier": [ {
        "value": "RSHSO14A"
      } ],
      "type": [ {
        "coding": [ {
          "code": "PRCP",
          "display": "Urgent Treatment Centre (GP led), Royal South Hants Hospital"
        } ]
      } ],
      "name": "Urgent Treatment Centre (GP led), Royal South Hants Hospital"
    }
  }, {
    "fullUrl": "urn:uuid:a637a8f7-17b3-4db5-85c3-c5c12a49b7ea",
    "resource": {
      "resourceType": "ReferralRequest",
      "id": "a637a8f7-17b3-4db5-85c3-c5c12a49b7ea",
      "status": "active",
      "intent": "plan",
      "priority": "routine",
      "subject": {
        "reference": "urn:uuid:1df07e61-ca7b-49c7-aae4-09080f84301e"
      },
      "context": {
        "reference": "urn:uuid:09e7f0c9-40f2-4bb7-b5b6-9df4aff17591"
      },
      "occurrencePeriod": {
        "start": "2021-09-14T09:23:24+00:00",
        "end": "2021-09-14T10:23:24+00:00"
      },
      "authoredOn": "2021-04-06T11:33:27+00:00",
      "requester": {
        "agent": {
          "reference": "urn:uuid:85bae361-0f5a-43e1-80d9-b2e49fedbb9c"
        },
        "onBehalfOf": {
          "reference": "urn:uuid:9cda082a-26bd-4072-ba92-10127efb97a4"
        }
      },
      "recipient": [ {
        "reference": "urn:uuid:35772963-52e0-4cef-97e8-a15ec6f488bf"
      } ],
      "reasonReference": [ {
        "reference": "urn:uuid:82cdb82f-d8b2-4ddd-bff9-c233cb267210"
      } ],
      "supportingInfo": [ {
        "reference": "urn:uuid:a0b23745-2c52-463f-a1c2-29a5f913f2a3"
      } ]
    }
  }, {
    "fullUrl": "urn:uuid:a0b23745-2c52-463f-a1c2-29a5f913f2a3",
    "resource": {
      "resourceType": "ProcedureRequest",
      "id": "a0b23745-2c52-463f-a1c2-29a5f913f2a3",
      "status": "active",
      "intent": "plan",
      "priority": "routine",
      "doNotPerform": false,
      "code": {
        "coding": [ {
          "system": "2.16.840.1.113883.2.1.3.2.4.17.325",
          "code": "Dx06",
          "display": "To contact a local service within 6 hours"
        } ]
      },
      "subject": {
        "reference": "urn:uuid:1df07e61-ca7b-49c7-aae4-09080f84301e"
      },
      "occurrencePeriod": {
        "start": "2021-09-14T09:23:24+00:00",
        "end": "2021-09-14T10:23:24+00:00"
      },
      "reasonReference": [ {
        "reference": "urn:uuid:82cdb82f-d8b2-4ddd-bff9-c233cb267210"
      } ]
    }
  }, {
    "fullUrl": "urn:uuid:b9c8702f-d11d-4437-a24e-74ccfc4946c3",
    "resource": {
      "resourceType": "Composition",
      "id": "b9c8702f-d11d-4437-a24e-74ccfc4946c3",
      "identifier": {
        "use": "usual",
        "value": "A8E3FB32-6805-4191-B071-EA540A9318CD"
      },
      "status": "final",
      "type": {
        "coding": [ {
          "system": "http://snomed.info/sct",
          "code": "371531000",
          "display": "Report of clinical encounter (record artifact)"
        } ]
      },
      "subject": {
        "reference": "urn:uuid:1df07e61-ca7b-49c7-aae4-09080f84301e"
      },
      "encounter": {
        "reference": "urn:uuid:09e7f0c9-40f2-4bb7-b5b6-9df4aff17591"
      },
      "date": "2021-09-14T09:23:24+00:00",
      "author": [ {
        "reference": "urn:uuid:f5c35009-60bf-441a-9947-bf8536b1c1fb"
      } ],
      "title": "111 Report",
      "confidentiality": "N",
      "section": [ {
        "section": [ {
          "title": "Patient's Reported Condition",
          "text": {
            "status": "generated",
            "div": "<div xmlns=\"http://www.w3.org/1999/xhtml\">&lt;xml-fragment xmlns:npfitlc=&quot;NPFIT:HL7:Localisation&quot; xmlns:xsi=&quot;http://www.w3.org/2001/XMLSchema-instance&quot;&gt;\n                                                    &lt;urn:content xmlns:urn=&quot;urn:hl7-org:v3&quot;&gt;Pharmacy ITK Testing&lt;/urn:content&gt;\n                                                    &lt;urn:br xmlns:urn=&quot;urn:hl7-org:v3&quot;/&gt;\n                                                &lt;/xml-fragment&gt;</div>"
          }
        }, {
          "title": "Pathways Disposition",
          "text": {
            "status": "generated",
            "div": "<div xmlns=\"http://www.w3.org/1999/xhtml\">&lt;xml-fragment xmlns:xsi=&quot;http://www.w3.org/2001/XMLSchema-instance&quot;&gt;To contact a local service within 6 hours (Dx06)                                         &lt;urn:br xmlns:urn=&quot;urn:hl7-org:v3&quot;/&gt;\n                                                    &lt;urn:br xmlns:urn=&quot;urn:hl7-org:v3&quot;/&gt;                                         Selected service: Urgent Treatment Centre (GP led), Royal South Hant&lt;urn:br xmlns:urn=&quot;urn:hl7-org:v3&quot;/&gt;\n                                                &lt;/xml-fragment&gt;</div>"
          }
        }, {
          "title": "Consultation Summary",
          "text": {
            "status": "generated",
            "div": "<div xmlns=\"http://www.w3.org/1999/xhtml\">&lt;xml-fragment xmlns:xsi=&quot;http://www.w3.org/2001/XMLSchema-instance&quot;&gt;Illness&lt;urn:br xmlns:urn=&quot;urn:hl7-org:v3&quot;/&gt;Warm to touch&lt;urn:br xmlns:urn=&quot;urn:hl7-org:v3&quot;/&gt;Nausea without vomiting&lt;urn:br xmlns:urn=&quot;urn:hl7-org:v3&quot;/&gt;Abdominal pain also present&lt;urn:br xmlns:urn=&quot;urn:hl7-org:v3&quot;/&gt;Moderately severe pain&lt;urn:br xmlns:urn=&quot;urn:hl7-org:v3&quot;/&gt;Flank pain&lt;urn:br xmlns:urn=&quot;urn:hl7-org:v3&quot;/&gt;Fever at time of assessment or in last 12 hours&lt;urn:br xmlns:urn=&quot;urn:hl7-org:v3&quot;/&gt;\n                                                &lt;/xml-fragment&gt;</div>"
          }
        }, {
          "title": "Pathways Assessment",
          "text": {
            "status": "generated",
            "div": "<div xmlns=\"http://www.w3.org/1999/xhtml\">&lt;xml-fragment xmlns:xsi=&quot;http://www.w3.org/2001/XMLSchema-instance&quot;&gt;An injury or health problem was the reason for the contact.&lt;urn:br xmlns:urn=&quot;urn:hl7-org:v3&quot;/&gt;Heavy bleeding had not occurred in the previous 30 minutes.&lt;urn:br xmlns:urn=&quot;urn:hl7-org:v3&quot;/&gt;An illness or health problem was the main problem.&lt;urn:br xmlns:urn=&quot;urn:hl7-org:v3&quot;/&gt;User Comments: Pharmacy ITK Testing&lt;urn:br xmlns:urn=&quot;urn:hl7-org:v3&quot;/&gt;The individual was not fighting for breath.&lt;urn:br xmlns:urn=&quot;urn:hl7-org:v3&quot;/&gt;The main reason for the contact was not an allergic reaction, chest/upper back pain, recent fit/seizure, suicide attempt, new confusion or suspected stroke.&lt;urn:br xmlns:urn=&quot;urn:hl7-org:v3&quot;/&gt;The main reason for contact was not declared diabetic hypo/hyperglycaemia or ICD shock.&lt;urn:br xmlns:urn=&quot;urn:hl7-org:v3&quot;/&gt;The skin on the torso felt normal, warm or hot.&lt;urn:br xmlns:urn=&quot;urn:hl7-org:v3&quot;/&gt;Pathway selected - Vomiting and/or Nausea&lt;urn:br xmlns:urn=&quot;urn:hl7-org:v3&quot;/&gt;The individual had not vomited.&lt;urn:br xmlns:urn=&quot;urn:hl7-org:v3&quot;/&gt;The individual did not also have diarrhoea.&lt;urn:br xmlns:urn=&quot;urn:hl7-org:v3&quot;/&gt;The symptoms did not follow drinking alcohol.&lt;urn:br xmlns:urn=&quot;urn:hl7-org:v3&quot;/&gt;Abdominal pain was also present.&lt;urn:br xmlns:urn=&quot;urn:hl7-org:v3&quot;/&gt;The pain interfered with normal activity.&lt;urn:br xmlns:urn=&quot;urn:hl7-org:v3&quot;/&gt;The individual was able to carry out most or all normal activities.&lt;urn:br xmlns:urn=&quot;urn:hl7-org:v3&quot;/&gt;The individual had not ingested a harmful or toxic substance.&lt;urn:br xmlns:urn=&quot;urn:hl7-org:v3&quot;/&gt;There had been no black and tarry or red/maroon bowel motions.&lt;urn:br xmlns:urn=&quot;urn:hl7-org:v3&quot;/&gt;There was no new or worsening confusion.&lt;urn:br xmlns:urn=&quot;urn:hl7-org:v3&quot;/&gt;Breathing harder or faster when doing nothing was not described.&lt;urn:br xmlns:urn=&quot;urn:hl7-org:v3&quot;/&gt;There was no new shoulder tip pain or pain in the lower right abdomen.&lt;urn:br xmlns:urn=&quot;urn:hl7-org:v3&quot;/&gt;The individual had not been in constant pain for 4 hours or more.&lt;urn:br xmlns:urn=&quot;urn:hl7-org:v3&quot;/&gt;There was no previous history of diabetes.&lt;urn:br xmlns:urn=&quot;urn:hl7-org:v3&quot;/&gt;There was flank pain.&lt;urn:br xmlns:urn=&quot;urn:hl7-org:v3&quot;/&gt;There was a fever at the time of assessment or within the previous 12 hours.&lt;urn:br xmlns:urn=&quot;urn:hl7-org:v3&quot;/&gt;There was no new, widespread, red rash.&lt;urn:br xmlns:urn=&quot;urn:hl7-org:v3&quot;/&gt;Instructions given were: The individual needs to contact a local service within 6 hours.&lt;urn:br xmlns:urn=&quot;urn:hl7-org:v3&quot;/&gt;Directory of Services referral: Urgent Treatment Centre (GP led), Royal South Hants Hospital&lt;urn:br xmlns:urn=&quot;urn:hl7-org:v3&quot;/&gt;\n                                                &lt;/xml-fragment&gt;</div>"
          }
        }, {
          "title": "Advice Given",
          "text": {
            "status": "generated",
            "div": "<div xmlns=\"http://www.w3.org/1999/xhtml\">&lt;xml-fragment xmlns:xsi=&quot;http://www.w3.org/2001/XMLSchema-instance&quot;&gt;I will arrange for a clinician to contact the individual. I need to ask some further questions in order to determine the best way to do this.&lt;urn:br xmlns:urn=&quot;urn:hl7-org:v3&quot;/&gt;If there are any new symptoms, or if the condition gets worse, changes or you have any other concerns, call us back.&lt;urn:br xmlns:urn=&quot;urn:hl7-org:v3&quot;/&gt;\n                                                    &lt;urn:br xmlns:urn=&quot;urn:hl7-org:v3&quot;/&gt;\n                                                &lt;/xml-fragment&gt;</div>"
          }
        }, {
          "title": "Information And Advice Given",
          "text": {
            "status": "generated",
            "div": "<div xmlns=\"http://www.w3.org/1999/xhtml\">&lt;xml-fragment xmlns:npfitlc=&quot;NPFIT:HL7:Localisation&quot; xmlns:xsi=&quot;http://www.w3.org/2001/XMLSchema-instance&quot;/&gt;</div>"
          }
        }, {
          "title": "Disposition",
          "text": {
            "status": "generated",
            "div": "<div xmlns=\"http://www.w3.org/1999/xhtml\">&lt;xml-fragment xmlns:npfitlc=&quot;NPFIT:HL7:Localisation&quot; xmlns:xsi=&quot;http://www.w3.org/2001/XMLSchema-instance&quot;&gt;\n                                                    &lt;urn:content xmlns:urn=&quot;urn:hl7-org:v3&quot;&gt;To contact a local service within 6 hours&lt;urn:br/&gt;\n                                                    &lt;/urn:content&gt;\n                                                    &lt;urn:br xmlns:urn=&quot;urn:hl7-org:v3&quot;/&gt;\n                                                    &lt;urn:br xmlns:urn=&quot;urn:hl7-org:v3&quot;/&gt;\n                                                &lt;/xml-fragment&gt;</div>"
          }
        } ]
      }, {
        "title": "CarePlan",
        "entry": [ {
          "reference": "urn:uuid:4b208157-e45e-443d-9c19-ec0de9b01d38"
        } ]
      }, {
        "title": "ReferralRequest",
        "entry": [ {
          "reference": "urn:uuid:a637a8f7-17b3-4db5-85c3-c5c12a49b7ea"
        } ]
      }, {
        "title": "QuestionnaireResponse",
        "entry": [ {
          "reference": "urn:uuid:2cc97b34-4c9a-4176-a7eb-51b92581b2cc"
        } ]
      }, {
        "title": "QuestionnaireResponse",
        "entry": [ {
          "reference": "urn:uuid:0f06746c-4e37-47dd-b223-6cd29fa45017"
        } ]
      }, {
        "title": "QuestionnaireResponse",
        "entry": [ {
          "reference": "urn:uuid:f64e750c-d34f-4d7d-9706-97200f04f08e"
        } ]
      }, {
        "title": "QuestionnaireResponse",
        "entry": [ {
          "reference": "urn:uuid:53ed0426-1204-4edd-a308-d787da2849c1"
        } ]
      }, {
        "title": "QuestionnaireResponse",
        "entry": [ {
          "reference": "urn:uuid:be74eeeb-0147-4639-a697-d0ce7260730a"
        } ]
      }, {
        "title": "QuestionnaireResponse",
        "entry": [ {
          "reference": "urn:uuid:acc52c68-f78d-4382-929b-865fead674e7"
        } ]
      }, {
        "title": "QuestionnaireResponse",
        "entry": [ {
          "reference": "urn:uuid:fab822b0-b638-4860-bb0f-d93030ad0fd6"
        } ]
      }, {
        "title": "QuestionnaireResponse",
        "entry": [ {
          "reference": "urn:uuid:230d43a8-0161-4b90-917f-294b56e76030"
        } ]
      }, {
        "title": "QuestionnaireResponse",
        "entry": [ {
          "reference": "urn:uuid:d9903c83-a25f-465e-bd8f-d3c387ecce0f"
        } ]
      }, {
        "title": "QuestionnaireResponse",
        "entry": [ {
          "reference": "urn:uuid:a1bc9e0c-8d47-4253-b4d2-29c8ce6df556"
        } ]
      }, {
        "title": "QuestionnaireResponse",
        "entry": [ {
          "reference": "urn:uuid:6cb085b5-2d85-44b2-b2c3-13d5cc7ad010"
        } ]
      }, {
        "title": "QuestionnaireResponse",
        "entry": [ {
          "reference": "urn:uuid:10b2d9f1-5f20-4c81-acb8-7dbda091fef8"
        } ]
      }, {
        "title": "QuestionnaireResponse",
        "entry": [ {
          "reference": "urn:uuid:e24dff92-a70f-4b12-9365-d74b5b8cae28"
        } ]
      }, {
        "title": "QuestionnaireResponse",
        "entry": [ {
          "reference": "urn:uuid:f95150e4-fe78-4449-82f5-f9ecdd927cf6"
        } ]
      }, {
        "title": "QuestionnaireResponse",
        "entry": [ {
          "reference": "urn:uuid:90e60f01-c66e-4bc7-8df6-8185a6406b32"
        } ]
      }, {
        "title": "QuestionnaireResponse",
        "entry": [ {
          "reference": "urn:uuid:5c3d7c68-9cdb-49ab-95b3-eeea33695387"
        } ]
      }, {
        "title": "QuestionnaireResponse",
        "entry": [ {
          "reference": "urn:uuid:a1a13307-1cc1-4092-ab0b-5111e69ddfda"
        } ]
      }, {
        "title": "QuestionnaireResponse",
        "entry": [ {
          "reference": "urn:uuid:d0cd6ef7-f4c4-4b41-af8b-b5455c527072"
        } ]
      }, {
        "title": "QuestionnaireResponse",
        "entry": [ {
          "reference": "urn:uuid:467824d6-15aa-47c6-980f-4684ead29da7"
        } ]
      }, {
        "title": "QuestionnaireResponse",
        "entry": [ {
          "reference": "urn:uuid:31cc1cbc-3b7f-4af1-9e0e-a06a45b87e0a"
        } ]
      }, {
        "title": "QuestionnaireResponse",
        "entry": [ {
          "reference": "urn:uuid:5ebdb4ad-cf1a-4b7f-a842-7925c7659e4e"
        } ]
      }, {
        "title": "QuestionnaireResponse",
        "entry": [ {
          "reference": "urn:uuid:6e7a1205-b36a-4ce3-99f3-bfb955b5afed"
        } ]
      }, {
        "title": "QuestionnaireResponse",
        "entry": [ {
          "reference": "urn:uuid:8a91f1e0-fd92-4f21-aa66-a18447dc936f"
        } ]
      }, {
        "title": "QuestionnaireResponse",
        "entry": [ {
          "reference": "urn:uuid:5cb6ccc3-710b-4e3c-9dfe-63803b4ba9f6"
        } ]
      }, {
        "title": "QuestionnaireResponse",
        "entry": [ {
          "reference": "urn:uuid:eafbea8e-5842-4a81-8c3e-698e56d78884"
        } ]
      }, {
        "title": "QuestionnaireResponse",
        "entry": [ {
          "reference": "urn:uuid:5207b52e-37c9-4fdc-a7a6-87c694ac9e80"
        } ]
      }, {
        "title": "QuestionnaireResponse",
        "entry": [ {
          "reference": "urn:uuid:37adf475-4a3a-4b21-ba01-0f832d8b9177"
        } ]
      }, {
        "title": "QuestionnaireResponse",
        "entry": [ {
          "reference": "urn:uuid:b16b0e6a-f68b-490c-a6b6-72d33871fe74"
        } ]
      }, {
        "title": "QuestionnaireResponse",
        "entry": [ {
          "reference": "urn:uuid:81de01a9-e8b2-4feb-b8fe-f05fe6f49eff"
        } ]
      }, {
        "title": "QuestionnaireResponse",
        "entry": [ {
          "reference": "urn:uuid:e8234038-8af5-4250-b57b-a7574a267a3b"
        } ]
      }, {
        "title": "QuestionnaireResponse",
        "entry": [ {
          "reference": "urn:uuid:1fa5f35e-5b9e-4799-b3a1-38f4c9feaec2"
        } ]
      }, {
        "title": "QuestionnaireResponse",
        "entry": [ {
          "reference": "urn:uuid:5082e1b1-aa8c-4c6e-a500-3f43d933c989"
        } ]
      }, {
        "title": "QuestionnaireResponse",
        "entry": [ {
          "reference": "urn:uuid:37729514-d357-4647-98b8-97e2d4c9a67a"
        } ]
      }, {
        "title": "QuestionnaireResponse",
        "entry": [ {
          "reference": "urn:uuid:1f39e32c-ea92-4064-8206-6a8dca2d5c31"
        } ]
      }, {
        "title": "QuestionnaireResponse",
        "entry": [ {
          "reference": "urn:uuid:251133e2-01ad-4756-909b-b3ab13bd5287"
        } ]
      }, {
        "title": "QuestionnaireResponse",
        "entry": [ {
          "reference": "urn:uuid:6737fe69-1edd-4215-bd72-0bd63c387630"
        } ]
      }, {
        "title": "QuestionnaireResponse",
        "entry": [ {
          "reference": "urn:uuid:e530b312-e859-4dc2-a219-21c4e810a32c"
        } ]
      }, {
        "title": "QuestionnaireResponse",
        "entry": [ {
          "reference": "urn:uuid:8b90ddf6-39a2-4120-97e8-93d9a7871350"
        } ]
      }, {
        "title": "QuestionnaireResponse",
        "entry": [ {
          "reference": "urn:uuid:a2d2b8ea-80c7-4c92-8917-638d28ebec90"
        } ]
      }, {
        "title": "QuestionnaireResponse",
        "entry": [ {
          "reference": "urn:uuid:18ef2098-e77a-40ea-942e-bb750dab46b6"
        } ]
      }, {
        "title": "QuestionnaireResponse",
        "entry": [ {
          "reference": "urn:uuid:8c89beb9-7948-4c1e-9cf1-dd70d2a564d3"
        } ]
      }, {
        "title": "QuestionnaireResponse",
        "entry": [ {
          "reference": "urn:uuid:8493fb49-c953-4567-9fa5-3ff8a5314807"
        } ]
      }, {
        "title": "QuestionnaireResponse",
        "entry": [ {
          "reference": "urn:uuid:8a35480a-c869-4e8f-bdd2-07a6b5b3a3cc"
        } ]
      }, {
        "title": "QuestionnaireResponse",
        "entry": [ {
          "reference": "urn:uuid:7adc5d09-a596-4c15-a8b2-5927d0d90e04"
        } ]
      }, {
        "title": "QuestionnaireResponse",
        "entry": [ {
          "reference": "urn:uuid:d8b06bc8-8421-4930-a35a-90091dfefba9"
        } ]
      }, {
        "title": "QuestionnaireResponse",
        "entry": [ {
          "reference": "urn:uuid:b208d6ae-c630-499d-8faf-31ff1ed6c5c0"
        } ]
      }, {
        "title": "QuestionnaireResponse",
        "entry": [ {
          "reference": "urn:uuid:841cc312-c34c-4dd5-b668-5dd60610b2db"
        } ]
      }, {
        "title": "QuestionnaireResponse",
        "entry": [ {
          "reference": "urn:uuid:b0ed8c6a-97f8-4c8e-8755-b35829c2a6b6"
        } ]
      }, {
        "title": "QuestionnaireResponse",
        "entry": [ {
          "reference": "urn:uuid:141b8072-208c-4275-9618-fa02e88dfc3e"
        } ]
      }, {
        "title": "QuestionnaireResponse",
        "entry": [ {
          "reference": "urn:uuid:d50616f6-3a39-492c-b099-e20db7c0a407"
        } ]
      }, {
        "title": "QuestionnaireResponse",
        "entry": [ {
          "reference": "urn:uuid:9bbe737c-01c4-4ec4-8ddb-af6177b7175d"
        } ]
      }, {
        "title": "QuestionnaireResponse",
        "entry": [ {
          "reference": "urn:uuid:93612b46-8fb6-419e-a558-42d0e2a8cadf"
        } ]
      }, {
        "title": "QuestionnaireResponse",
        "entry": [ {
          "reference": "urn:uuid:fb90b5b4-3a76-4c69-a219-d85b173ddf68"
        } ]
      }, {
        "title": "QuestionnaireResponse",
        "entry": [ {
          "reference": "urn:uuid:70d6835f-b049-49e9-8471-4b49dd5bfb25"
        } ]
      }, {
        "title": "QuestionnaireResponse",
        "entry": [ {
          "reference": "urn:uuid:a9217648-4cce-4514-952b-e119c78e9d13"
        } ]
      }, {
        "title": "QuestionnaireResponse",
        "entry": [ {
          "reference": "urn:uuid:5317fcd2-c929-4201-b98c-f8a208782748"
        } ]
      }, {
        "title": "QuestionnaireResponse",
        "entry": [ {
          "reference": "urn:uuid:4b275d84-e51c-4fdf-9fb6-0874d4f29d80"
        } ]
      }, {
        "title": "QuestionnaireResponse",
        "entry": [ {
          "reference": "urn:uuid:253d43c4-896b-4875-b3ea-e9e9258a588a"
        } ]
      }, {
        "title": "QuestionnaireResponse",
        "entry": [ {
          "reference": "urn:uuid:86f57d26-13b8-4b48-bc34-1bfcdc9721f3"
        } ]
      }, {
        "title": "QuestionnaireResponse",
        "entry": [ {
          "reference": "urn:uuid:aff688ff-b672-498e-bfd6-9c9e53d6d471"
        } ]
      }, {
        "title": "QuestionnaireResponse",
        "entry": [ {
          "reference": "urn:uuid:6dfc7821-e8a6-4664-9fa5-905903ef01eb"
        } ]
      }, {
        "title": "QuestionnaireResponse",
        "entry": [ {
          "reference": "urn:uuid:92a55cc2-5357-468b-94cf-ec8e434a27bc"
        } ]
      }, {
        "title": "QuestionnaireResponse",
        "entry": [ {
          "reference": "urn:uuid:655a2419-98c1-444f-803d-0221bdc794d0"
        } ]
      }, {
        "title": "QuestionnaireResponse",
        "entry": [ {
          "reference": "urn:uuid:c878949a-e940-4250-bbef-d1f3ad90196b"
        } ]
      }, {
        "title": "QuestionnaireResponse",
        "entry": [ {
          "reference": "urn:uuid:8d94aaee-783d-45a2-87b6-e38ed43ce472"
        } ]
      }, {
        "title": "QuestionnaireResponse",
        "entry": [ {
          "reference": "urn:uuid:186aa4ee-e699-4abf-ad05-fea7eee0a0b1"
        } ]
      }, {
        "title": "QuestionnaireResponse",
        "entry": [ {
          "reference": "urn:uuid:30686d51-41d7-47f9-9f2c-c4deac647cb6"
        } ]
      }, {
        "title": "QuestionnaireResponse",
        "entry": [ {
          "reference": "urn:uuid:1f128350-f035-4b45-8380-f79349c610f9"
        } ]
      }, {
        "title": "QuestionnaireResponse",
        "entry": [ {
          "reference": "urn:uuid:20fa2be5-8ba5-4602-b71a-1286a7734667"
        } ]
      }, {
        "title": "QuestionnaireResponse",
        "entry": [ {
          "reference": "urn:uuid:82e14a4d-dd1e-4eb7-affa-e1a4b597fe1d"
        } ]
      }, {
        "title": "QuestionnaireResponse",
        "entry": [ {
          "reference": "urn:uuid:8e608cfd-f8c7-4a0d-9a6c-f3a6eac2c939"
        } ]
      }, {
        "title": "QuestionnaireResponse",
        "entry": [ {
          "reference": "urn:uuid:1406bd73-178d-40c0-a05c-0370ecf6b4ce"
        } ]
      }, {
        "title": "QuestionnaireResponse",
        "entry": [ {
          "reference": "urn:uuid:42f6f392-4ba4-4098-9489-7128f57aaf2c"
        } ]
      } ]
    }
  }, {
    "fullUrl": "urn:uuid:4b208157-e45e-443d-9c19-ec0de9b01d38",
    "resource": {
      "resourceType": "CarePlan",
      "id": "4b208157-e45e-443d-9c19-ec0de9b01d38",
      "status": "completed",
      "intent": "plan",
      "title": "Information And Advice Given",
      "subject": {
        "reference": "urn:uuid:1df07e61-ca7b-49c7-aae4-09080f84301e"
      },
      "context": {
        "reference": "urn:uuid:09e7f0c9-40f2-4bb7-b5b6-9df4aff17591"
      },
      "period": {
        "start": "2021-04-06T11:33:35+00:00"
      },
      "author": [ {
        "reference": "urn:uuid:0e289b2a-76c5-4334-a721-95e0f78ab8cb"
      } ],
      "addresses": [ {
        "reference": "urn:uuid:82cdb82f-d8b2-4ddd-bff9-c233cb267210"
      } ]
    }
  }, {
    "fullUrl": "urn:uuid:094af89e-443e-4c6a-9aad-b7ff092f7eee",
    "resource": {
      "resourceType": "Consent",
      "id": "094af89e-443e-4c6a-9aad-b7ff092f7eee",
      "identifier": {
        "use": "usual",
        "value": "A8E3FB32-6805-4191-B071-EA540A9318CD"
      },
      "status": "active",
      "patient": {
        "reference": "urn:uuid:1df07e61-ca7b-49c7-aae4-09080f84301e"
      },
      "period": {
        "start": "2021-04-06T11:33:35+00:00"
      },
      "consentingParty": [ {
        "reference": "urn:uuid:1df07e61-ca7b-49c7-aae4-09080f84301e"
      } ],
      "action": [ {
        "coding": [ {
          "system": "http://snomed.info/sct",
          "code": "425691002",
          "display": "Consent given for electronic record sharing"
        } ],
        "text": "Consent given for electronic record sharing"
      } ],
      "organization": [ {
        "reference": "urn:uuid:9cda082a-26bd-4072-ba92-10127efb97a4"
      } ],
      "policyRule": "http://hl7.org/fhir/ConsentPolicy/opt-out",
      "data": [ {
        "meaning": "related",
        "reference": {
          "reference": "urn:uuid:09e7f0c9-40f2-4bb7-b5b6-9df4aff17591"
        }
      } ]
    }
  }, {
    "fullUrl": "urn:uuid:82cdb82f-d8b2-4ddd-bff9-c233cb267210",
    "resource": {
      "resourceType": "Condition",
      "id": "82cdb82f-d8b2-4ddd-bff9-c233cb267210",
      "clinicalStatus": "active",
      "verificationStatus": "unknown",
      "subject": {
        "reference": "urn:uuid:1df07e61-ca7b-49c7-aae4-09080f84301e"
      },
      "context": {
        "reference": "urn:uuid:09e7f0c9-40f2-4bb7-b5b6-9df4aff17591"
      },
      "evidence": [ {
        "detail": [ {
          "reference": "urn:uuid:2cc97b34-4c9a-4176-a7eb-51b92581b2cc"
        } ]
      }, {
        "detail": [ {
          "reference": "urn:uuid:0f06746c-4e37-47dd-b223-6cd29fa45017"
        } ]
      }, {
        "detail": [ {
          "reference": "urn:uuid:f64e750c-d34f-4d7d-9706-97200f04f08e"
        } ]
      }, {
        "detail": [ {
          "reference": "urn:uuid:53ed0426-1204-4edd-a308-d787da2849c1"
        } ]
      }, {
        "detail": [ {
          "reference": "urn:uuid:be74eeeb-0147-4639-a697-d0ce7260730a"
        } ]
      }, {
        "detail": [ {
          "reference": "urn:uuid:acc52c68-f78d-4382-929b-865fead674e7"
        } ]
      }, {
        "detail": [ {
          "reference": "urn:uuid:fab822b0-b638-4860-bb0f-d93030ad0fd6"
        } ]
      }, {
        "detail": [ {
          "reference": "urn:uuid:230d43a8-0161-4b90-917f-294b56e76030"
        } ]
      }, {
        "detail": [ {
          "reference": "urn:uuid:d9903c83-a25f-465e-bd8f-d3c387ecce0f"
        } ]
      }, {
        "detail": [ {
          "reference": "urn:uuid:a1bc9e0c-8d47-4253-b4d2-29c8ce6df556"
        } ]
      }, {
        "detail": [ {
          "reference": "urn:uuid:6cb085b5-2d85-44b2-b2c3-13d5cc7ad010"
        } ]
      }, {
        "detail": [ {
          "reference": "urn:uuid:10b2d9f1-5f20-4c81-acb8-7dbda091fef8"
        } ]
      }, {
        "detail": [ {
          "reference": "urn:uuid:e24dff92-a70f-4b12-9365-d74b5b8cae28"
        } ]
      }, {
        "detail": [ {
          "reference": "urn:uuid:f95150e4-fe78-4449-82f5-f9ecdd927cf6"
        } ]
      }, {
        "detail": [ {
          "reference": "urn:uuid:90e60f01-c66e-4bc7-8df6-8185a6406b32"
        } ]
      }, {
        "detail": [ {
          "reference": "urn:uuid:5c3d7c68-9cdb-49ab-95b3-eeea33695387"
        } ]
      }, {
        "detail": [ {
          "reference": "urn:uuid:a1a13307-1cc1-4092-ab0b-5111e69ddfda"
        } ]
      }, {
        "detail": [ {
          "reference": "urn:uuid:d0cd6ef7-f4c4-4b41-af8b-b5455c527072"
        } ]
      }, {
        "detail": [ {
          "reference": "urn:uuid:467824d6-15aa-47c6-980f-4684ead29da7"
        } ]
      }, {
        "detail": [ {
          "reference": "urn:uuid:31cc1cbc-3b7f-4af1-9e0e-a06a45b87e0a"
        } ]
      }, {
        "detail": [ {
          "reference": "urn:uuid:5ebdb4ad-cf1a-4b7f-a842-7925c7659e4e"
        } ]
      }, {
        "detail": [ {
          "reference": "urn:uuid:6e7a1205-b36a-4ce3-99f3-bfb955b5afed"
        } ]
      }, {
        "detail": [ {
          "reference": "urn:uuid:8a91f1e0-fd92-4f21-aa66-a18447dc936f"
        } ]
      }, {
        "detail": [ {
          "reference": "urn:uuid:5cb6ccc3-710b-4e3c-9dfe-63803b4ba9f6"
        } ]
      }, {
        "detail": [ {
          "reference": "urn:uuid:eafbea8e-5842-4a81-8c3e-698e56d78884"
        } ]
      }, {
        "detail": [ {
          "reference": "urn:uuid:5207b52e-37c9-4fdc-a7a6-87c694ac9e80"
        } ]
      }, {
        "detail": [ {
          "reference": "urn:uuid:37adf475-4a3a-4b21-ba01-0f832d8b9177"
        } ]
      }, {
        "detail": [ {
          "reference": "urn:uuid:b16b0e6a-f68b-490c-a6b6-72d33871fe74"
        } ]
      }, {
        "detail": [ {
          "reference": "urn:uuid:81de01a9-e8b2-4feb-b8fe-f05fe6f49eff"
        } ]
      }, {
        "detail": [ {
          "reference": "urn:uuid:e8234038-8af5-4250-b57b-a7574a267a3b"
        } ]
      }, {
        "detail": [ {
          "reference": "urn:uuid:1fa5f35e-5b9e-4799-b3a1-38f4c9feaec2"
        } ]
      }, {
        "detail": [ {
          "reference": "urn:uuid:5082e1b1-aa8c-4c6e-a500-3f43d933c989"
        } ]
      }, {
        "detail": [ {
          "reference": "urn:uuid:37729514-d357-4647-98b8-97e2d4c9a67a"
        } ]
      }, {
        "detail": [ {
          "reference": "urn:uuid:1f39e32c-ea92-4064-8206-6a8dca2d5c31"
        } ]
      }, {
        "detail": [ {
          "reference": "urn:uuid:251133e2-01ad-4756-909b-b3ab13bd5287"
        } ]
      }, {
        "detail": [ {
          "reference": "urn:uuid:6737fe69-1edd-4215-bd72-0bd63c387630"
        } ]
      }, {
        "detail": [ {
          "reference": "urn:uuid:e530b312-e859-4dc2-a219-21c4e810a32c"
        } ]
      }, {
        "detail": [ {
          "reference": "urn:uuid:8b90ddf6-39a2-4120-97e8-93d9a7871350"
        } ]
      }, {
        "detail": [ {
          "reference": "urn:uuid:a2d2b8ea-80c7-4c92-8917-638d28ebec90"
        } ]
      }, {
        "detail": [ {
          "reference": "urn:uuid:18ef2098-e77a-40ea-942e-bb750dab46b6"
        } ]
      }, {
        "detail": [ {
          "reference": "urn:uuid:8c89beb9-7948-4c1e-9cf1-dd70d2a564d3"
        } ]
      }, {
        "detail": [ {
          "reference": "urn:uuid:8493fb49-c953-4567-9fa5-3ff8a5314807"
        } ]
      }, {
        "detail": [ {
          "reference": "urn:uuid:8a35480a-c869-4e8f-bdd2-07a6b5b3a3cc"
        } ]
      }, {
        "detail": [ {
          "reference": "urn:uuid:7adc5d09-a596-4c15-a8b2-5927d0d90e04"
        } ]
      }, {
        "detail": [ {
          "reference": "urn:uuid:d8b06bc8-8421-4930-a35a-90091dfefba9"
        } ]
      }, {
        "detail": [ {
          "reference": "urn:uuid:b208d6ae-c630-499d-8faf-31ff1ed6c5c0"
        } ]
      }, {
        "detail": [ {
          "reference": "urn:uuid:841cc312-c34c-4dd5-b668-5dd60610b2db"
        } ]
      }, {
        "detail": [ {
          "reference": "urn:uuid:b0ed8c6a-97f8-4c8e-8755-b35829c2a6b6"
        } ]
      }, {
        "detail": [ {
          "reference": "urn:uuid:141b8072-208c-4275-9618-fa02e88dfc3e"
        } ]
      }, {
        "detail": [ {
          "reference": "urn:uuid:d50616f6-3a39-492c-b099-e20db7c0a407"
        } ]
      }, {
        "detail": [ {
          "reference": "urn:uuid:9bbe737c-01c4-4ec4-8ddb-af6177b7175d"
        } ]
      }, {
        "detail": [ {
          "reference": "urn:uuid:93612b46-8fb6-419e-a558-42d0e2a8cadf"
        } ]
      }, {
        "detail": [ {
          "reference": "urn:uuid:fb90b5b4-3a76-4c69-a219-d85b173ddf68"
        } ]
      }, {
        "detail": [ {
          "reference": "urn:uuid:70d6835f-b049-49e9-8471-4b49dd5bfb25"
        } ]
      }, {
        "detail": [ {
          "reference": "urn:uuid:a9217648-4cce-4514-952b-e119c78e9d13"
        } ]
      }, {
        "detail": [ {
          "reference": "urn:uuid:5317fcd2-c929-4201-b98c-f8a208782748"
        } ]
      }, {
        "detail": [ {
          "reference": "urn:uuid:4b275d84-e51c-4fdf-9fb6-0874d4f29d80"
        } ]
      }, {
        "detail": [ {
          "reference": "urn:uuid:253d43c4-896b-4875-b3ea-e9e9258a588a"
        } ]
      }, {
        "detail": [ {
          "reference": "urn:uuid:86f57d26-13b8-4b48-bc34-1bfcdc9721f3"
        } ]
      }, {
        "detail": [ {
          "reference": "urn:uuid:aff688ff-b672-498e-bfd6-9c9e53d6d471"
        } ]
      }, {
        "detail": [ {
          "reference": "urn:uuid:6dfc7821-e8a6-4664-9fa5-905903ef01eb"
        } ]
      }, {
        "detail": [ {
          "reference": "urn:uuid:92a55cc2-5357-468b-94cf-ec8e434a27bc"
        } ]
      }, {
        "detail": [ {
          "reference": "urn:uuid:655a2419-98c1-444f-803d-0221bdc794d0"
        } ]
      }, {
        "detail": [ {
          "reference": "urn:uuid:c878949a-e940-4250-bbef-d1f3ad90196b"
        } ]
      }, {
        "detail": [ {
          "reference": "urn:uuid:8d94aaee-783d-45a2-87b6-e38ed43ce472"
        } ]
      }, {
        "detail": [ {
          "reference": "urn:uuid:186aa4ee-e699-4abf-ad05-fea7eee0a0b1"
        } ]
      }, {
        "detail": [ {
          "reference": "urn:uuid:30686d51-41d7-47f9-9f2c-c4deac647cb6"
        } ]
      }, {
        "detail": [ {
          "reference": "urn:uuid:1f128350-f035-4b45-8380-f79349c610f9"
        } ]
      }, {
        "detail": [ {
          "reference": "urn:uuid:20fa2be5-8ba5-4602-b71a-1286a7734667"
        } ]
      }, {
        "detail": [ {
          "reference": "urn:uuid:82e14a4d-dd1e-4eb7-affa-e1a4b597fe1d"
        } ]
      }, {
        "detail": [ {
          "reference": "urn:uuid:8e608cfd-f8c7-4a0d-9a6c-f3a6eac2c939"
        } ]
      }, {
        "detail": [ {
          "reference": "urn:uuid:1406bd73-178d-40c0-a05c-0370ecf6b4ce"
        } ]
      }, {
        "detail": [ {
          "reference": "urn:uuid:42f6f392-4ba4-4098-9489-7128f57aaf2c"
        } ]
      } ]
    }
  }, {
    "fullUrl": "urn:uuid:2cc97b34-4c9a-4176-a7eb-51b92581b2cc",
    "resource": {
      "resourceType": "QuestionnaireResponse",
      "id": "2cc97b34-4c9a-4176-a7eb-51b92581b2cc",
      "identifier": {
        "value": "59132"
      },
      "questionnaire": {
        "reference": "urn:uuid:8f6cebeb-bf1e-4069-8e3c-53cc1aedbd5b"
      },
      "status": "completed",
      "subject": {
        "reference": "urn:uuid:1df07e61-ca7b-49c7-aae4-09080f84301e"
      },
      "context": {
        "reference": "urn:uuid:09e7f0c9-40f2-4bb7-b5b6-9df4aff17591"
      },
      "authored": "2021-04-06T11:33:34+00:00",
      "item": [ {
        "linkId": "Tx220074",
        "text": "What is the reason for the contact?",
        "answer": [ {
          "valueString": "an injury or other health problem"
        } ]
      } ]
    }
  }, {
    "fullUrl": "urn:uuid:8f6cebeb-bf1e-4069-8e3c-53cc1aedbd5b",
    "resource": {
      "resourceType": "Questionnaire",
      "id": "8f6cebeb-bf1e-4069-8e3c-53cc1aedbd5b",
      "identifier": [ {
        "value": "59132"
      } ],
      "version": "2021-04-06T11:33:34.963Z",
      "status": "active",
      "experimental": false,
      "date": "2021-04-06T11:33:34+00:00",
      "publisher": "User ID: 'MCDONALDD' User name: 'Denzle McDonald' User skill set: 'T3'",
      "lastReviewDate": "2021-04-06",
      "subjectType": [ "Patient" ],
      "item": [ {
        "linkId": "59132",
        "prefix": "5",
        "text": "What is the reason for the contact?",
        "type": "choice",
        "required": true,
        "repeats": false,
        "option": [ {
          "valueString": "an injury or other health problem, Selected: true"
        }, {
          "valueString": "labour or childbirth, Selected: false"
        }, {
          "valueString": "a need to access another healthcare service, Selected: false"
        }, {
          "valueString": "a healthcare professional requesting contact with another clinician, Selected: false"
        }, {
          "valueString": "a report of results or tests, Selected: false"
        }, {
          "valueString": "a possible failure of contraception, Selected: false"
        }, {
          "valueString": "more, Selected: false"
        } ]
      } ]
    }
  }, {
    "fullUrl": "urn:uuid:0f06746c-4e37-47dd-b223-6cd29fa45017",
    "resource": {
      "resourceType": "QuestionnaireResponse",
      "id": "0f06746c-4e37-47dd-b223-6cd29fa45017",
      "identifier": {
        "value": "59132"
      },
      "questionnaire": {
        "reference": "urn:uuid:93881cf9-7c93-44ae-a8cf-09007591c047"
      },
      "status": "completed",
      "subject": {
        "reference": "urn:uuid:1df07e61-ca7b-49c7-aae4-09080f84301e"
      },
      "context": {
        "reference": "urn:uuid:09e7f0c9-40f2-4bb7-b5b6-9df4aff17591"
      },
      "authored": "2021-04-06T11:33:34+00:00",
      "item": [ {
        "linkId": "Tx221807",
        "text": "STRING:to'Immediatethreatstolife(SPA/OOHversion)'-'Majorbloodloss'stem",
        "answer": [ {
          "valueString": "\"present\""
        } ]
      } ]
    }
  }, {
    "fullUrl": "urn:uuid:93881cf9-7c93-44ae-a8cf-09007591c047",
    "resource": {
      "resourceType": "Questionnaire",
      "id": "93881cf9-7c93-44ae-a8cf-09007591c047",
      "identifier": [ {
        "value": "59132"
      } ],
      "version": "2021-04-06T11:33:34.963Z",
      "status": "active",
      "experimental": false,
      "date": "2021-04-06T11:33:34+00:00",
      "publisher": "User ID: 'MCDONALDD' User name: 'Denzle McDonald' User skill set: 'T3'",
      "lastReviewDate": "2021-04-06",
      "subjectType": [ "Patient" ],
      "item": [ {
        "linkId": "59132",
        "prefix": "400",
        "text": "STRING:to'Immediatethreatstolife(SPA/OOHversion)'-'Majorbloodloss'stem",
        "type": "choice",
        "required": true,
        "repeats": false,
        "option": [ {
          "valueString": "\"present\", Selected: true"
        } ]
      } ]
    }
  }, {
    "fullUrl": "urn:uuid:f64e750c-d34f-4d7d-9706-97200f04f08e",
    "resource": {
      "resourceType": "QuestionnaireResponse",
      "id": "f64e750c-d34f-4d7d-9706-97200f04f08e",
      "identifier": {
        "value": "59132"
      },
      "questionnaire": {
        "reference": "urn:uuid:98172dca-cb40-49d4-8d75-e6375f411ded"
      },
      "status": "completed",
      "subject": {
        "reference": "urn:uuid:1df07e61-ca7b-49c7-aae4-09080f84301e"
      },
      "context": {
        "reference": "urn:uuid:09e7f0c9-40f2-4bb7-b5b6-9df4aff17591"
      },
      "authored": "2021-04-06T11:33:34+00:00"
    }
  }, {
    "fullUrl": "urn:uuid:98172dca-cb40-49d4-8d75-e6375f411ded",
    "resource": {
      "resourceType": "Questionnaire",
      "id": "98172dca-cb40-49d4-8d75-e6375f411ded",
      "identifier": [ {
        "value": "59132"
      } ],
      "version": "2021-04-06T11:33:34.963Z",
      "status": "active",
      "experimental": false,
      "date": "2021-04-06T11:33:34+00:00",
      "publisher": "User ID: 'MCDONALDD' User name: 'Denzle McDonald' User skill set: 'T3'",
      "lastReviewDate": "2021-04-06",
      "subjectType": [ "Patient" ]
    }
  }, {
    "fullUrl": "urn:uuid:53ed0426-1204-4edd-a308-d787da2849c1",
    "resource": {
      "resourceType": "QuestionnaireResponse",
      "id": "53ed0426-1204-4edd-a308-d787da2849c1",
      "identifier": {
        "value": "59132"
      },
      "questionnaire": {
        "reference": "urn:uuid:f9941e8b-b0e8-4ec5-99f7-7811264dc02a"
      },
      "status": "completed",
      "subject": {
        "reference": "urn:uuid:1df07e61-ca7b-49c7-aae4-09080f84301e"
      },
      "context": {
        "reference": "urn:uuid:09e7f0c9-40f2-4bb7-b5b6-9df4aff17591"
      },
      "authored": "2021-04-06T11:33:34+00:00",
      "item": [ {
        "linkId": "Tx221799",
        "text": "STRING:injury,illnessorlabourestablishedinEntryFlow",
        "answer": [ {
          "valueString": "\"present\""
        } ]
      } ]
    }
  }, {
    "fullUrl": "urn:uuid:f9941e8b-b0e8-4ec5-99f7-7811264dc02a",
    "resource": {
      "resourceType": "Questionnaire",
      "id": "f9941e8b-b0e8-4ec5-99f7-7811264dc02a",
      "identifier": [ {
        "value": "59132"
      } ],
      "version": "2021-04-06T11:33:34.963Z",
      "status": "active",
      "experimental": false,
      "date": "2021-04-06T11:33:34+00:00",
      "publisher": "User ID: 'MCDONALDD' User name: 'Denzle McDonald' User skill set: 'T3'",
      "lastReviewDate": "2021-04-06",
      "subjectType": [ "Patient" ],
      "item": [ {
        "linkId": "59132",
        "prefix": "0",
        "text": "STRING:injury,illnessorlabourestablishedinEntryFlow",
        "type": "choice",
        "required": true,
        "repeats": false,
        "option": [ {
          "valueString": "\"present\", Selected: true"
        } ]
      } ]
    }
  }, {
    "fullUrl": "urn:uuid:be74eeeb-0147-4639-a697-d0ce7260730a",
    "resource": {
      "resourceType": "QuestionnaireResponse",
      "id": "be74eeeb-0147-4639-a697-d0ce7260730a",
      "identifier": {
        "value": "59132"
      },
      "questionnaire": {
        "reference": "urn:uuid:57ed71a3-30a9-4036-bb1d-f7685a060eca"
      },
      "status": "completed",
      "subject": {
        "reference": "urn:uuid:1df07e61-ca7b-49c7-aae4-09080f84301e"
      },
      "context": {
        "reference": "urn:uuid:09e7f0c9-40f2-4bb7-b5b6-9df4aff17591"
      },
      "authored": "2021-04-06T11:33:34+00:00",
      "item": [ {
        "linkId": "Tx221421",
        "text": "Have you been bleeding RED BLOOD very heavily IN THE LAST 30 MINUTES?",
        "answer": [ {
          "valueString": "no"
        } ]
      } ]
    }
  }, {
    "fullUrl": "urn:uuid:57ed71a3-30a9-4036-bb1d-f7685a060eca",
    "resource": {
      "resourceType": "Questionnaire",
      "id": "57ed71a3-30a9-4036-bb1d-f7685a060eca",
      "identifier": [ {
        "value": "59132"
      } ],
      "version": "2021-04-06T11:33:34.963Z",
      "status": "active",
      "experimental": false,
      "date": "2021-04-06T11:33:34+00:00",
      "publisher": "User ID: 'MCDONALDD' User name: 'Denzle McDonald' User skill set: 'T3'",
      "lastReviewDate": "2021-04-06",
      "subjectType": [ "Patient" ],
      "item": [ {
        "linkId": "59132",
        "prefix": "200",
        "text": "Have you been bleeding RED BLOOD very heavily IN THE LAST 30 MINUTES?",
        "type": "choice",
        "required": true,
        "repeats": false,
        "option": [ {
          "valueString": "yes, Selected: false"
        }, {
          "valueString": "not sure, Selected: false"
        }, {
          "valueString": "no, Selected: true"
        } ]
      } ]
    }
  }, {
    "fullUrl": "urn:uuid:acc52c68-f78d-4382-929b-865fead674e7",
    "resource": {
      "resourceType": "QuestionnaireResponse",
      "id": "acc52c68-f78d-4382-929b-865fead674e7",
      "identifier": {
        "value": "59132"
      },
      "questionnaire": {
        "reference": "urn:uuid:a2fe5848-cb91-4aa0-a85b-d6e38fadea12"
      },
      "status": "completed",
      "subject": {
        "reference": "urn:uuid:1df07e61-ca7b-49c7-aae4-09080f84301e"
      },
      "context": {
        "reference": "urn:uuid:09e7f0c9-40f2-4bb7-b5b6-9df4aff17591"
      },
      "authored": "2021-04-06T11:33:34+00:00",
      "item": [ {
        "linkId": "Tx221343",
        "text": "SocialConcernsExcluded",
        "answer": [ {
          "valueString": "*"
        } ]
      } ]
    }
  }, {
    "fullUrl": "urn:uuid:a2fe5848-cb91-4aa0-a85b-d6e38fadea12",
    "resource": {
      "resourceType": "Questionnaire",
      "id": "a2fe5848-cb91-4aa0-a85b-d6e38fadea12",
      "identifier": [ {
        "value": "59132"
      } ],
      "version": "2021-04-06T11:33:34.963Z",
      "status": "active",
      "experimental": false,
      "date": "2021-04-06T11:33:34+00:00",
      "publisher": "User ID: 'MCDONALDD' User name: 'Denzle McDonald' User skill set: 'T3'",
      "lastReviewDate": "2021-04-06",
      "subjectType": [ "Patient" ],
      "item": [ {
        "linkId": "59132",
        "prefix": "2600",
        "text": "SocialConcernsExcluded",
        "type": "choice",
        "required": true,
        "repeats": false,
        "option": [ {
          "valueString": "==\"present\", Selected: false"
        }, {
          "valueString": "*, Selected: true"
        } ]
      } ]
    }
  }, {
    "fullUrl": "urn:uuid:fab822b0-b638-4860-bb0f-d93030ad0fd6",
    "resource": {
      "resourceType": "QuestionnaireResponse",
      "id": "fab822b0-b638-4860-bb0f-d93030ad0fd6",
      "identifier": {
        "value": "59132"
      },
      "questionnaire": {
        "reference": "urn:uuid:e539f59b-10b9-415b-8d43-147dfa81c915"
      },
      "status": "completed",
      "subject": {
        "reference": "urn:uuid:1df07e61-ca7b-49c7-aae4-09080f84301e"
      },
      "context": {
        "reference": "urn:uuid:09e7f0c9-40f2-4bb7-b5b6-9df4aff17591"
      },
      "authored": "2021-04-06T11:33:34+00:00",
      "item": [ {
        "linkId": "Tx130011",
        "text": "What is the main problem?",
        "answer": [ {
          "valueString": "illness or other health problem (specify)"
        } ]
      } ]
    }
  }, {
    "fullUrl": "urn:uuid:e539f59b-10b9-415b-8d43-147dfa81c915",
    "resource": {
      "resourceType": "Questionnaire",
      "id": "e539f59b-10b9-415b-8d43-147dfa81c915",
      "identifier": [ {
        "value": "59132"
      } ],
      "version": "2021-04-06T11:33:34.963Z",
      "status": "active",
      "experimental": false,
      "date": "2021-04-06T11:33:34+00:00",
      "publisher": "User ID: 'MCDONALDD' User name: 'Denzle McDonald' User skill set: 'T3'",
      "lastReviewDate": "2021-04-06",
      "subjectType": [ "Patient" ],
      "item": [ {
        "linkId": "59132",
        "prefix": "2500",
        "text": "What is the main problem?",
        "type": "choice",
        "required": true,
        "repeats": false,
        "option": [ {
          "valueString": "the individual has been told to follow a particular course of action (specify), Selected: false"
        }, {
          "valueString": "the individual is an identified frequent caller, Selected: false"
        }, {
          "valueString": "injury (specify), Selected: false"
        }, {
          "valueString": "illness or other health problem (specify), Selected: true"
        }, {
          "valueString": "child protection/vulnerable adult concern, Selected: false"
        }, {
          "valueString": "social or domestic emergency, Selected: false"
        }, {
          "valueString": "the environment potentially poses an immediate threat to life (specify), Selected: false"
        } ]
      } ]
    }
  }, {
    "fullUrl": "urn:uuid:230d43a8-0161-4b90-917f-294b56e76030",
    "resource": {
      "resourceType": "QuestionnaireResponse",
      "id": "230d43a8-0161-4b90-917f-294b56e76030",
      "identifier": {
        "value": "59132"
      },
      "questionnaire": {
        "reference": "urn:uuid:00261dbd-a7dc-44c7-a258-bbb5e62644e8"
      },
      "status": "completed",
      "subject": {
        "reference": "urn:uuid:1df07e61-ca7b-49c7-aae4-09080f84301e"
      },
      "context": {
        "reference": "urn:uuid:09e7f0c9-40f2-4bb7-b5b6-9df4aff17591"
      },
      "authored": "2021-04-06T11:33:34+00:00"
    }
  }, {
    "fullUrl": "urn:uuid:00261dbd-a7dc-44c7-a258-bbb5e62644e8",
    "resource": {
      "resourceType": "Questionnaire",
      "id": "00261dbd-a7dc-44c7-a258-bbb5e62644e8",
      "identifier": [ {
        "value": "59132"
      } ],
      "version": "2021-04-06T11:33:34.963Z",
      "status": "active",
      "experimental": false,
      "date": "2021-04-06T11:33:34+00:00",
      "publisher": "User ID: 'MCDONALDD' User name: 'Denzle McDonald' User skill set: 'T3'",
      "lastReviewDate": "2021-04-06",
      "subjectType": [ "Patient" ]
    }
  }, {
    "fullUrl": "urn:uuid:d9903c83-a25f-465e-bd8f-d3c387ecce0f",
    "resource": {
      "resourceType": "QuestionnaireResponse",
      "id": "d9903c83-a25f-465e-bd8f-d3c387ecce0f",
      "identifier": {
        "value": "59132"
      },
      "questionnaire": {
        "reference": "urn:uuid:f975f727-b737-4b11-8ccc-2e5eb67d66ff"
      },
      "status": "completed",
      "subject": {
        "reference": "urn:uuid:1df07e61-ca7b-49c7-aae4-09080f84301e"
      },
      "context": {
        "reference": "urn:uuid:09e7f0c9-40f2-4bb7-b5b6-9df4aff17591"
      },
      "authored": "2021-04-06T11:33:34+00:00",
      "item": [ {
        "linkId": "Tx61025",
        "text": "Are you so breathless that speaking more than a few words is impossible?",
        "answer": [ {
          "valueString": "no"
        } ]
      } ]
    }
  }, {
    "fullUrl": "urn:uuid:f975f727-b737-4b11-8ccc-2e5eb67d66ff",
    "resource": {
      "resourceType": "Questionnaire",
      "id": "f975f727-b737-4b11-8ccc-2e5eb67d66ff",
      "identifier": [ {
        "value": "59132"
      } ],
      "version": "2021-04-06T11:33:34.963Z",
      "status": "active",
      "experimental": false,
      "date": "2021-04-06T11:33:34+00:00",
      "publisher": "User ID: 'MCDONALDD' User name: 'Denzle McDonald' User skill set: 'T3'",
      "lastReviewDate": "2021-04-06",
      "subjectType": [ "Patient" ],
      "item": [ {
        "linkId": "59132",
        "prefix": "0",
        "text": "Are you so breathless that speaking more than a few words is impossible?",
        "type": "choice",
        "required": true,
        "repeats": false,
        "option": [ {
          "valueString": "yes, Selected: false"
        }, {
          "valueString": "not sure, Selected: false"
        }, {
          "valueString": "no, Selected: true"
        } ]
      } ]
    }
  }, {
    "fullUrl": "urn:uuid:a1bc9e0c-8d47-4253-b4d2-29c8ce6df556",
    "resource": {
      "resourceType": "QuestionnaireResponse",
      "id": "a1bc9e0c-8d47-4253-b4d2-29c8ce6df556",
      "identifier": {
        "value": "59132"
      },
      "questionnaire": {
        "reference": "urn:uuid:70620e09-4c7a-4a08-b3f2-887e8f9b00af"
      },
      "status": "completed",
      "subject": {
        "reference": "urn:uuid:1df07e61-ca7b-49c7-aae4-09080f84301e"
      },
      "context": {
        "reference": "urn:uuid:09e7f0c9-40f2-4bb7-b5b6-9df4aff17591"
      },
      "authored": "2021-04-06T11:33:34+00:00",
      "item": [ {
        "linkId": "Tx220845",
        "text": "SYSTEM_FLUPANDEMIC",
        "answer": [ {
          "valueString": "*"
        } ]
      } ]
    }
  }, {
    "fullUrl": "urn:uuid:70620e09-4c7a-4a08-b3f2-887e8f9b00af",
    "resource": {
      "resourceType": "Questionnaire",
      "id": "70620e09-4c7a-4a08-b3f2-887e8f9b00af",
      "identifier": [ {
        "value": "59132"
      } ],
      "version": "2021-04-06T11:33:34.963Z",
      "status": "active",
      "experimental": false,
      "date": "2021-04-06T11:33:34+00:00",
      "publisher": "User ID: 'MCDONALDD' User name: 'Denzle McDonald' User skill set: 'T3'",
      "lastReviewDate": "2021-04-06",
      "subjectType": [ "Patient" ],
      "item": [ {
        "linkId": "59132",
        "prefix": "100",
        "text": "SYSTEM_FLUPANDEMIC",
        "type": "choice",
        "required": true,
        "repeats": false,
        "option": [ {
          "valueString": "==\"pandemic\", Selected: false"
        }, {
          "valueString": "*, Selected: true"
        } ]
      } ]
    }
  }, {
    "fullUrl": "urn:uuid:6cb085b5-2d85-44b2-b2c3-13d5cc7ad010",
    "resource": {
      "resourceType": "QuestionnaireResponse",
      "id": "6cb085b5-2d85-44b2-b2c3-13d5cc7ad010",
      "identifier": {
        "value": "59132"
      },
      "questionnaire": {
        "reference": "urn:uuid:56c36db3-4126-4217-8407-7b113321a73c"
      },
      "status": "completed",
      "subject": {
        "reference": "urn:uuid:1df07e61-ca7b-49c7-aae4-09080f84301e"
      },
      "context": {
        "reference": "urn:uuid:09e7f0c9-40f2-4bb7-b5b6-9df4aff17591"
      },
      "authored": "2021-04-06T11:33:34+00:00",
      "item": [ {
        "linkId": "Tx220044",
        "text": "WHAT IS SAID TO BE THE MAIN REASON FOR THIS CONTACT?",
        "answer": [ {
          "valueString": "more"
        } ]
      } ]
    }
  }, {
    "fullUrl": "urn:uuid:56c36db3-4126-4217-8407-7b113321a73c",
    "resource": {
      "resourceType": "Questionnaire",
      "id": "56c36db3-4126-4217-8407-7b113321a73c",
      "identifier": [ {
        "value": "59132"
      } ],
      "version": "2021-04-06T11:33:34.963Z",
      "status": "active",
      "experimental": false,
      "date": "2021-04-06T11:33:34+00:00",
      "publisher": "User ID: 'MCDONALDD' User name: 'Denzle McDonald' User skill set: 'T3'",
      "lastReviewDate": "2021-04-06",
      "subjectType": [ "Patient" ],
      "item": [ {
        "linkId": "59132",
        "prefix": "5000",
        "text": "WHAT IS SAID TO BE THE MAIN REASON FOR THIS CONTACT?",
        "type": "choice",
        "required": true,
        "repeats": false,
        "option": [ {
          "valueString": "a probable allergic reaction now, Selected: false"
        }, {
          "valueString": "chest or upper back pain, Selected: false"
        }, {
          "valueString": "a probable fit or seizure within the last 12 hours, Selected: false"
        }, {
          "valueString": "a suicide attempt, Selected: false"
        }, {
          "valueString": "new confusion now, Selected: false"
        }, {
          "valueString": "a probable stroke or mini stroke, Selected: false"
        }, {
          "valueString": "more, Selected: true"
        } ]
      } ]
    }
  }, {
    "fullUrl": "urn:uuid:10b2d9f1-5f20-4c81-acb8-7dbda091fef8",
    "resource": {
      "resourceType": "QuestionnaireResponse",
      "id": "10b2d9f1-5f20-4c81-acb8-7dbda091fef8",
      "identifier": {
        "value": "59132"
      },
      "questionnaire": {
        "reference": "urn:uuid:326ca7d0-f043-4a44-aee1-63b4c092a8a9"
      },
      "status": "completed",
      "subject": {
        "reference": "urn:uuid:1df07e61-ca7b-49c7-aae4-09080f84301e"
      },
      "context": {
        "reference": "urn:uuid:09e7f0c9-40f2-4bb7-b5b6-9df4aff17591"
      },
      "authored": "2021-04-06T11:33:34+00:00",
      "item": [ {
        "linkId": "Tx223029",
        "text": "WHAT IS SAID TO BE THE MAIN REASON FOR THIS CONTACT?",
        "answer": [ {
          "valueString": "none of the above"
        } ]
      } ]
    }
  }, {
    "fullUrl": "urn:uuid:326ca7d0-f043-4a44-aee1-63b4c092a8a9",
    "resource": {
      "resourceType": "Questionnaire",
      "id": "326ca7d0-f043-4a44-aee1-63b4c092a8a9",
      "identifier": [ {
        "value": "59132"
      } ],
      "version": "2021-04-06T11:33:34.963Z",
      "status": "active",
      "experimental": false,
      "date": "2021-04-06T11:33:34+00:00",
      "publisher": "User ID: 'MCDONALDD' User name: 'Denzle McDonald' User skill set: 'T3'",
      "lastReviewDate": "2021-04-06",
      "subjectType": [ "Patient" ],
      "item": [ {
        "linkId": "59132",
        "prefix": "4100",
        "text": "WHAT IS SAID TO BE THE MAIN REASON FOR THIS CONTACT?",
        "type": "choice",
        "required": true,
        "repeats": false,
        "option": [ {
          "valueString": "a diabetic hypo (low blood sugar) or a diabetic hyper (high blood sugar), Selected: false"
        }, {
          "valueString": "recovery from an ICD (implanted cardioverter defibrillator) shock, Selected: false"
        }, {
          "valueString": "none of the above, Selected: true"
        } ]
      } ]
    }
  }, {
    "fullUrl": "urn:uuid:e24dff92-a70f-4b12-9365-d74b5b8cae28",
    "resource": {
      "resourceType": "QuestionnaireResponse",
      "id": "e24dff92-a70f-4b12-9365-d74b5b8cae28",
      "identifier": {
        "value": "59132"
      },
      "questionnaire": {
        "reference": "urn:uuid:0a3b70ed-02ce-4f4b-80a5-4e3e0e462d79"
      },
      "status": "completed",
      "subject": {
        "reference": "urn:uuid:1df07e61-ca7b-49c7-aae4-09080f84301e"
      },
      "context": {
        "reference": "urn:uuid:09e7f0c9-40f2-4bb7-b5b6-9df4aff17591"
      },
      "authored": "2021-04-06T11:33:34+00:00",
      "item": [ {
        "linkId": "Tx223142",
        "text": "Does the skin on the chest, back or abdomen feel a normal temperature?",
        "answer": [ {
          "valueString": "yes - normal, warm or hot"
        } ]
      } ]
    }
  }, {
    "fullUrl": "urn:uuid:0a3b70ed-02ce-4f4b-80a5-4e3e0e462d79",
    "resource": {
      "resourceType": "Questionnaire",
      "id": "0a3b70ed-02ce-4f4b-80a5-4e3e0e462d79",
      "identifier": [ {
        "value": "59132"
      } ],
      "version": "2021-04-06T11:33:34.963Z",
      "status": "active",
      "experimental": false,
      "date": "2021-04-06T11:33:34+00:00",
      "publisher": "User ID: 'MCDONALDD' User name: 'Denzle McDonald' User skill set: 'T3'",
      "lastReviewDate": "2021-04-06",
      "subjectType": [ "Patient" ],
      "item": [ {
        "linkId": "59132",
        "prefix": "4400",
        "text": "Does the skin on the chest, back or abdomen feel a normal temperature?",
        "type": "choice",
        "required": true,
        "repeats": false,
        "option": [ {
          "valueString": "yes - normal, warm or hot, Selected: true"
        }, {
          "valueString": "not sure, Selected: false"
        }, {
          "valueString": "no - cool OR cold, Selected: false"
        }, {
          "valueString": "not safe to touch, Selected: false"
        } ]
      } ]
    }
  }, {
    "fullUrl": "urn:uuid:f95150e4-fe78-4449-82f5-f9ecdd927cf6",
    "resource": {
      "resourceType": "QuestionnaireResponse",
      "id": "f95150e4-fe78-4449-82f5-f9ecdd927cf6",
      "identifier": {
        "value": "59132"
      },
      "questionnaire": {
        "reference": "urn:uuid:a19afb5f-7e78-4df3-aa13-ebc5601e8b6c"
      },
      "status": "completed",
      "subject": {
        "reference": "urn:uuid:1df07e61-ca7b-49c7-aae4-09080f84301e"
      },
      "context": {
        "reference": "urn:uuid:09e7f0c9-40f2-4bb7-b5b6-9df4aff17591"
      },
      "authored": "2021-04-06T11:33:34+00:00",
      "item": [ {
        "linkId": "Tx221724",
        "text": "STRING:ShockAsked",
        "answer": [ {
          "valueString": "\"present\""
        } ]
      } ]
    }
  }, {
    "fullUrl": "urn:uuid:a19afb5f-7e78-4df3-aa13-ebc5601e8b6c",
    "resource": {
      "resourceType": "Questionnaire",
      "id": "a19afb5f-7e78-4df3-aa13-ebc5601e8b6c",
      "identifier": [ {
        "value": "59132"
      } ],
      "version": "2021-04-06T11:33:34.963Z",
      "status": "active",
      "experimental": false,
      "date": "2021-04-06T11:33:34+00:00",
      "publisher": "User ID: 'MCDONALDD' User name: 'Denzle McDonald' User skill set: 'T3'",
      "lastReviewDate": "2021-04-06",
      "subjectType": [ "Patient" ],
      "item": [ {
        "linkId": "59132",
        "prefix": "3300",
        "text": "STRING:ShockAsked",
        "type": "choice",
        "required": true,
        "repeats": false,
        "option": [ {
          "valueString": "\"present\", Selected: true"
        } ]
      } ]
    }
  }, {
    "fullUrl": "urn:uuid:90e60f01-c66e-4bc7-8df6-8185a6406b32",
    "resource": {
      "resourceType": "QuestionnaireResponse",
      "id": "90e60f01-c66e-4bc7-8df6-8185a6406b32",
      "identifier": {
        "value": "59132"
      },
      "questionnaire": {
        "reference": "urn:uuid:fc99ecf5-3bab-4ff1-a154-f5b07d0b049b"
      },
      "status": "completed",
      "subject": {
        "reference": "urn:uuid:1df07e61-ca7b-49c7-aae4-09080f84301e"
      },
      "context": {
        "reference": "urn:uuid:09e7f0c9-40f2-4bb7-b5b6-9df4aff17591"
      },
      "authored": "2021-04-06T11:33:34+00:00"
    }
  }, {
    "fullUrl": "urn:uuid:fc99ecf5-3bab-4ff1-a154-f5b07d0b049b",
    "resource": {
      "resourceType": "Questionnaire",
      "id": "fc99ecf5-3bab-4ff1-a154-f5b07d0b049b",
      "identifier": [ {
        "value": "59132"
      } ],
      "version": "2021-04-06T11:33:34.963Z",
      "status": "active",
      "experimental": false,
      "date": "2021-04-06T11:33:34+00:00",
      "publisher": "User ID: 'MCDONALDD' User name: 'Denzle McDonald' User skill set: 'T3'",
      "lastReviewDate": "2021-04-06",
      "subjectType": [ "Patient" ]
    }
  }, {
    "fullUrl": "urn:uuid:5c3d7c68-9cdb-49ab-95b3-eeea33695387",
    "resource": {
      "resourceType": "QuestionnaireResponse",
      "id": "5c3d7c68-9cdb-49ab-95b3-eeea33695387",
      "identifier": {
        "value": "59132"
      },
      "questionnaire": {
        "reference": "urn:uuid:77c05f95-4bdd-4170-8f91-4c354735df60"
      },
      "status": "completed",
      "subject": {
        "reference": "urn:uuid:1df07e61-ca7b-49c7-aae4-09080f84301e"
      },
      "context": {
        "reference": "urn:uuid:09e7f0c9-40f2-4bb7-b5b6-9df4aff17591"
      },
      "authored": "2021-04-06T11:33:34+00:00",
      "item": [ {
        "linkId": "Tx223272",
        "text": "SYSTEM_VHF",
        "answer": [ {
          "valueString": "*"
        } ]
      } ]
    }
  }, {
    "fullUrl": "urn:uuid:77c05f95-4bdd-4170-8f91-4c354735df60",
    "resource": {
      "resourceType": "Questionnaire",
      "id": "77c05f95-4bdd-4170-8f91-4c354735df60",
      "identifier": [ {
        "value": "59132"
      } ],
      "version": "2021-04-06T11:33:34.963Z",
      "status": "active",
      "experimental": false,
      "date": "2021-04-06T11:33:34+00:00",
      "publisher": "User ID: 'MCDONALDD' User name: 'Denzle McDonald' User skill set: 'T3'",
      "lastReviewDate": "2021-04-06",
      "subjectType": [ "Patient" ],
      "item": [ {
        "linkId": "59132",
        "prefix": "0",
        "text": "SYSTEM_VHF",
        "type": "choice",
        "required": true,
        "repeats": false,
        "option": [ {
          "valueString": "==\"vhf\", Selected: false"
        }, {
          "valueString": "*, Selected: true"
        } ]
      } ]
    }
  }, {
    "fullUrl": "urn:uuid:a1a13307-1cc1-4092-ab0b-5111e69ddfda",
    "resource": {
      "resourceType": "QuestionnaireResponse",
      "id": "a1a13307-1cc1-4092-ab0b-5111e69ddfda",
      "identifier": {
        "value": "59132"
      },
      "questionnaire": {
        "reference": "urn:uuid:403b3a6b-e6c5-4e57-b6ac-7f7c7cd5ba6d"
      },
      "status": "completed",
      "subject": {
        "reference": "urn:uuid:1df07e61-ca7b-49c7-aae4-09080f84301e"
      },
      "context": {
        "reference": "urn:uuid:09e7f0c9-40f2-4bb7-b5b6-9df4aff17591"
      },
      "authored": "2021-04-06T11:33:34+00:00",
      "item": [ {
        "linkId": "Tx222416",
        "text": "Have you actually vomited?",
        "answer": [ {
          "valueString": "no"
        } ]
      } ]
    }
  }, {
    "fullUrl": "urn:uuid:403b3a6b-e6c5-4e57-b6ac-7f7c7cd5ba6d",
    "resource": {
      "resourceType": "Questionnaire",
      "id": "403b3a6b-e6c5-4e57-b6ac-7f7c7cd5ba6d",
      "identifier": [ {
        "value": "59132"
      } ],
      "version": "2021-04-06T11:33:34.963Z",
      "status": "active",
      "experimental": false,
      "date": "2021-04-06T11:33:34+00:00",
      "publisher": "User ID: 'MCDONALDD' User name: 'Denzle McDonald' User skill set: 'T3'",
      "lastReviewDate": "2021-04-06",
      "subjectType": [ "Patient" ],
      "item": [ {
        "linkId": "59132",
        "prefix": "30400",
        "text": "Have you actually vomited?",
        "type": "choice",
        "required": true,
        "repeats": false,
        "option": [ {
          "valueString": "yes, Selected: false"
        }, {
          "valueString": "not sure, Selected: false"
        }, {
          "valueString": "no, Selected: true"
        } ]
      } ]
    }
  }, {
    "fullUrl": "urn:uuid:d0cd6ef7-f4c4-4b41-af8b-b5455c527072",
    "resource": {
      "resourceType": "QuestionnaireResponse",
      "id": "d0cd6ef7-f4c4-4b41-af8b-b5455c527072",
      "identifier": {
        "value": "59132"
      },
      "questionnaire": {
        "reference": "urn:uuid:8d2eef95-d42f-43f6-bf60-a377f2cc4427"
      },
      "status": "completed",
      "subject": {
        "reference": "urn:uuid:1df07e61-ca7b-49c7-aae4-09080f84301e"
      },
      "context": {
        "reference": "urn:uuid:09e7f0c9-40f2-4bb7-b5b6-9df4aff17591"
      },
      "authored": "2021-04-06T11:33:34+00:00",
      "item": [ {
        "linkId": "Tx220964",
        "text": "Have you got diarrhoea as well?",
        "answer": [ {
          "valueString": "no"
        } ]
      } ]
    }
  }, {
    "fullUrl": "urn:uuid:8d2eef95-d42f-43f6-bf60-a377f2cc4427",
    "resource": {
      "resourceType": "Questionnaire",
      "id": "8d2eef95-d42f-43f6-bf60-a377f2cc4427",
      "identifier": [ {
        "value": "59132"
      } ],
      "version": "2021-04-06T11:33:34.963Z",
      "status": "active",
      "experimental": false,
      "date": "2021-04-06T11:33:34+00:00",
      "publisher": "User ID: 'MCDONALDD' User name: 'Denzle McDonald' User skill set: 'T3'",
      "lastReviewDate": "2021-04-06",
      "subjectType": [ "Patient" ],
      "item": [ {
        "linkId": "59132",
        "prefix": "100",
        "text": "Have you got diarrhoea as well?",
        "type": "choice",
        "required": true,
        "repeats": false,
        "option": [ {
          "valueString": "yes, Selected: false"
        }, {
          "valueString": "not sure, Selected: false"
        }, {
          "valueString": "no, Selected: true"
        } ]
      } ]
    }
  }, {
    "fullUrl": "urn:uuid:467824d6-15aa-47c6-980f-4684ead29da7",
    "resource": {
      "resourceType": "QuestionnaireResponse",
      "id": "467824d6-15aa-47c6-980f-4684ead29da7",
      "identifier": {
        "value": "59132"
      },
      "questionnaire": {
        "reference": "urn:uuid:3d7724d7-6d30-4272-8673-e916eb2d5cd7"
      },
      "status": "completed",
      "subject": {
        "reference": "urn:uuid:1df07e61-ca7b-49c7-aae4-09080f84301e"
      },
      "context": {
        "reference": "urn:uuid:09e7f0c9-40f2-4bb7-b5b6-9df4aff17591"
      },
      "authored": "2021-04-06T11:33:34+00:00",
      "item": [ {
        "linkId": "Tx221277",
        "text": "Vomiting",
        "answer": [ {
          "valueString": "*"
        } ]
      } ]
    }
  }, {
    "fullUrl": "urn:uuid:3d7724d7-6d30-4272-8673-e916eb2d5cd7",
    "resource": {
      "resourceType": "Questionnaire",
      "id": "3d7724d7-6d30-4272-8673-e916eb2d5cd7",
      "identifier": [ {
        "value": "59132"
      } ],
      "version": "2021-04-06T11:33:34.963Z",
      "status": "active",
      "experimental": false,
      "date": "2021-04-06T11:33:34+00:00",
      "publisher": "User ID: 'MCDONALDD' User name: 'Denzle McDonald' User skill set: 'T3'",
      "lastReviewDate": "2021-04-06",
      "subjectType": [ "Patient" ],
      "item": [ {
        "linkId": "59132",
        "prefix": "400",
        "text": "Vomiting",
        "type": "choice",
        "required": true,
        "repeats": false,
        "option": [ {
          "valueString": "==\"present\", Selected: false"
        }, {
          "valueString": "*, Selected: true"
        } ]
      } ]
    }
  }, {
    "fullUrl": "urn:uuid:31cc1cbc-3b7f-4af1-9e0e-a06a45b87e0a",
    "resource": {
      "resourceType": "QuestionnaireResponse",
      "id": "31cc1cbc-3b7f-4af1-9e0e-a06a45b87e0a",
      "identifier": {
        "value": "59132"
      },
      "questionnaire": {
        "reference": "urn:uuid:cc02913a-634b-4de2-b785-f5b5f6d40fca"
      },
      "status": "completed",
      "subject": {
        "reference": "urn:uuid:1df07e61-ca7b-49c7-aae4-09080f84301e"
      },
      "context": {
        "reference": "urn:uuid:09e7f0c9-40f2-4bb7-b5b6-9df4aff17591"
      },
      "authored": "2021-04-06T11:33:34+00:00",
      "item": [ {
        "linkId": "Tx221183",
        "text": "Did the symptoms come on after drinking alcohol?",
        "answer": [ {
          "valueString": "no"
        } ]
      } ]
    }
  }, {
    "fullUrl": "urn:uuid:cc02913a-634b-4de2-b785-f5b5f6d40fca",
    "resource": {
      "resourceType": "Questionnaire",
      "id": "cc02913a-634b-4de2-b785-f5b5f6d40fca",
      "identifier": [ {
        "value": "59132"
      } ],
      "version": "2021-04-06T11:33:34.963Z",
      "status": "active",
      "experimental": false,
      "date": "2021-04-06T11:33:34+00:00",
      "publisher": "User ID: 'MCDONALDD' User name: 'Denzle McDonald' User skill set: 'T3'",
      "lastReviewDate": "2021-04-06",
      "subjectType": [ "Patient" ],
      "item": [ {
        "linkId": "59132",
        "prefix": "300",
        "text": "Did the symptoms come on after drinking alcohol?",
        "type": "choice",
        "required": true,
        "repeats": false,
        "option": [ {
          "valueString": "yes, Selected: false"
        }, {
          "valueString": "not sure, Selected: false"
        }, {
          "valueString": "no, Selected: true"
        } ]
      } ]
    }
  }, {
    "fullUrl": "urn:uuid:5ebdb4ad-cf1a-4b7f-a842-7925c7659e4e",
    "resource": {
      "resourceType": "QuestionnaireResponse",
      "id": "5ebdb4ad-cf1a-4b7f-a842-7925c7659e4e",
      "identifier": {
        "value": "59132"
      },
      "questionnaire": {
        "reference": "urn:uuid:138f81e3-f2fd-4b84-8097-1ba1218ab7e9"
      },
      "status": "completed",
      "subject": {
        "reference": "urn:uuid:1df07e61-ca7b-49c7-aae4-09080f84301e"
      },
      "context": {
        "reference": "urn:uuid:09e7f0c9-40f2-4bb7-b5b6-9df4aff17591"
      },
      "authored": "2021-04-06T11:33:34+00:00",
      "item": [ {
        "linkId": "Tx221277",
        "text": "Vomiting",
        "answer": [ {
          "valueString": "*"
        } ]
      } ]
    }
  }, {
    "fullUrl": "urn:uuid:138f81e3-f2fd-4b84-8097-1ba1218ab7e9",
    "resource": {
      "resourceType": "Questionnaire",
      "id": "138f81e3-f2fd-4b84-8097-1ba1218ab7e9",
      "identifier": [ {
        "value": "59132"
      } ],
      "version": "2021-04-06T11:33:34.963Z",
      "status": "active",
      "experimental": false,
      "date": "2021-04-06T11:33:34+00:00",
      "publisher": "User ID: 'MCDONALDD' User name: 'Denzle McDonald' User skill set: 'T3'",
      "lastReviewDate": "2021-04-06",
      "subjectType": [ "Patient" ],
      "item": [ {
        "linkId": "59132",
        "prefix": "1000",
        "text": "Vomiting",
        "type": "choice",
        "required": true,
        "repeats": false,
        "option": [ {
          "valueString": "==\"present\", Selected: false"
        }, {
          "valueString": "*, Selected: true"
        } ]
      } ]
    }
  }, {
    "fullUrl": "urn:uuid:6e7a1205-b36a-4ce3-99f3-bfb955b5afed",
    "resource": {
      "resourceType": "QuestionnaireResponse",
      "id": "6e7a1205-b36a-4ce3-99f3-bfb955b5afed",
      "identifier": {
        "value": "59132"
      },
      "questionnaire": {
        "reference": "urn:uuid:dab5d920-5b49-4f98-88e2-c92b29661923"
      },
      "status": "completed",
      "subject": {
        "reference": "urn:uuid:1df07e61-ca7b-49c7-aae4-09080f84301e"
      },
      "context": {
        "reference": "urn:uuid:09e7f0c9-40f2-4bb7-b5b6-9df4aff17591"
      },
      "authored": "2021-04-06T11:33:34+00:00",
      "item": [ {
        "linkId": "Tx220825",
        "text": "Have you also got any pain in the abdomen?",
        "answer": [ {
          "valueString": "yes"
        } ]
      } ]
    }
  }, {
    "fullUrl": "urn:uuid:dab5d920-5b49-4f98-88e2-c92b29661923",
    "resource": {
      "resourceType": "Questionnaire",
      "id": "dab5d920-5b49-4f98-88e2-c92b29661923",
      "identifier": [ {
        "value": "59132"
      } ],
      "version": "2021-04-06T11:33:34.963Z",
      "status": "active",
      "experimental": false,
      "date": "2021-04-06T11:33:34+00:00",
      "publisher": "User ID: 'MCDONALDD' User name: 'Denzle McDonald' User skill set: 'T3'",
      "lastReviewDate": "2021-04-06",
      "subjectType": [ "Patient" ],
      "item": [ {
        "linkId": "59132",
        "prefix": "1500",
        "text": "Have you also got any pain in the abdomen?",
        "type": "choice",
        "required": true,
        "repeats": false,
        "option": [ {
          "valueString": "yes, Selected: true"
        }, {
          "valueString": "not sure, Selected: false"
        }, {
          "valueString": "no, Selected: false"
        } ]
      } ]
    }
  }, {
    "fullUrl": "urn:uuid:8a91f1e0-fd92-4f21-aa66-a18447dc936f",
    "resource": {
      "resourceType": "QuestionnaireResponse",
      "id": "8a91f1e0-fd92-4f21-aa66-a18447dc936f",
      "identifier": {
        "value": "59132"
      },
      "questionnaire": {
        "reference": "urn:uuid:783f4eb2-2bdf-4b7c-82d8-c555299f1554"
      },
      "status": "completed",
      "subject": {
        "reference": "urn:uuid:1df07e61-ca7b-49c7-aae4-09080f84301e"
      },
      "context": {
        "reference": "urn:uuid:09e7f0c9-40f2-4bb7-b5b6-9df4aff17591"
      },
      "authored": "2021-04-06T11:33:34+00:00",
      "item": [ {
        "linkId": "Tx224927",
        "text": "STRING:VomitingAnd/OrNauseaWithAbdominalPainPW",
        "answer": [ {
          "valueString": "\"present\""
        } ]
      } ]
    }
  }, {
    "fullUrl": "urn:uuid:783f4eb2-2bdf-4b7c-82d8-c555299f1554",
    "resource": {
      "resourceType": "Questionnaire",
      "id": "783f4eb2-2bdf-4b7c-82d8-c555299f1554",
      "identifier": [ {
        "value": "59132"
      } ],
      "version": "2021-04-06T11:33:34.963Z",
      "status": "active",
      "experimental": false,
      "date": "2021-04-06T11:33:34+00:00",
      "publisher": "User ID: 'MCDONALDD' User name: 'Denzle McDonald' User skill set: 'T3'",
      "lastReviewDate": "2021-04-06",
      "subjectType": [ "Patient" ],
      "item": [ {
        "linkId": "59132",
        "prefix": "64600",
        "text": "STRING:VomitingAnd/OrNauseaWithAbdominalPainPW",
        "type": "choice",
        "required": true,
        "repeats": false,
        "option": [ {
          "valueString": "\"present\", Selected: true"
        } ]
      } ]
    }
  }, {
    "fullUrl": "urn:uuid:5cb6ccc3-710b-4e3c-9dfe-63803b4ba9f6",
    "resource": {
      "resourceType": "QuestionnaireResponse",
      "id": "5cb6ccc3-710b-4e3c-9dfe-63803b4ba9f6",
      "identifier": {
        "value": "59132"
      },
      "questionnaire": {
        "reference": "urn:uuid:d07225de-e889-45f5-9520-ea2da7081ded"
      },
      "status": "completed",
      "subject": {
        "reference": "urn:uuid:1df07e61-ca7b-49c7-aae4-09080f84301e"
      },
      "context": {
        "reference": "urn:uuid:09e7f0c9-40f2-4bb7-b5b6-9df4aff17591"
      },
      "authored": "2021-04-06T11:33:34+00:00",
      "item": [ {
        "linkId": "Tx224907",
        "text": "STRING:GITSymptomWithAbdominalPain",
        "answer": [ {
          "valueString": "\"present\""
        } ]
      } ]
    }
  }, {
    "fullUrl": "urn:uuid:d07225de-e889-45f5-9520-ea2da7081ded",
    "resource": {
      "resourceType": "Questionnaire",
      "id": "d07225de-e889-45f5-9520-ea2da7081ded",
      "identifier": [ {
        "value": "59132"
      } ],
      "version": "2021-04-06T11:33:34.963Z",
      "status": "active",
      "experimental": false,
      "date": "2021-04-06T11:33:34+00:00",
      "publisher": "User ID: 'MCDONALDD' User name: 'Denzle McDonald' User skill set: 'T3'",
      "lastReviewDate": "2021-04-06",
      "subjectType": [ "Patient" ],
      "item": [ {
        "linkId": "59132",
        "prefix": "64700",
        "text": "STRING:GITSymptomWithAbdominalPain",
        "type": "choice",
        "required": true,
        "repeats": false,
        "option": [ {
          "valueString": "\"present\", Selected: true"
        } ]
      } ]
    }
  }, {
    "fullUrl": "urn:uuid:eafbea8e-5842-4a81-8c3e-698e56d78884",
    "resource": {
      "resourceType": "QuestionnaireResponse",
      "id": "eafbea8e-5842-4a81-8c3e-698e56d78884",
      "identifier": {
        "value": "59132"
      },
      "questionnaire": {
        "reference": "urn:uuid:d68ca7ff-f71c-4986-9f32-9e5c3a06efaa"
      },
      "status": "completed",
      "subject": {
        "reference": "urn:uuid:1df07e61-ca7b-49c7-aae4-09080f84301e"
      },
      "context": {
        "reference": "urn:uuid:09e7f0c9-40f2-4bb7-b5b6-9df4aff17591"
      },
      "authored": "2021-04-06T11:33:34+00:00"
    }
  }, {
    "fullUrl": "urn:uuid:d68ca7ff-f71c-4986-9f32-9e5c3a06efaa",
    "resource": {
      "resourceType": "Questionnaire",
      "id": "d68ca7ff-f71c-4986-9f32-9e5c3a06efaa",
      "identifier": [ {
        "value": "59132"
      } ],
      "version": "2021-04-06T11:33:34.963Z",
      "status": "active",
      "experimental": false,
      "date": "2021-04-06T11:33:34+00:00",
      "publisher": "User ID: 'MCDONALDD' User name: 'Denzle McDonald' User skill set: 'T3'",
      "lastReviewDate": "2021-04-06",
      "subjectType": [ "Patient" ]
    }
  }, {
    "fullUrl": "urn:uuid:5207b52e-37c9-4fdc-a7a6-87c694ac9e80",
    "resource": {
      "resourceType": "QuestionnaireResponse",
      "id": "5207b52e-37c9-4fdc-a7a6-87c694ac9e80",
      "identifier": {
        "value": "59132"
      },
      "questionnaire": {
        "reference": "urn:uuid:bb9477fb-926a-4daa-82ff-7becae5eb2d8"
      },
      "status": "completed",
      "subject": {
        "reference": "urn:uuid:1df07e61-ca7b-49c7-aae4-09080f84301e"
      },
      "context": {
        "reference": "urn:uuid:09e7f0c9-40f2-4bb7-b5b6-9df4aff17591"
      },
      "authored": "2021-04-06T11:33:34+00:00",
      "item": [ {
        "linkId": "Tx221039",
        "text": "PATIENT_AGEGROUP",
        "answer": [ {
          "valueString": "==\"CHILD\""
        } ]
      } ]
    }
  }, {
    "fullUrl": "urn:uuid:bb9477fb-926a-4daa-82ff-7becae5eb2d8",
    "resource": {
      "resourceType": "Questionnaire",
      "id": "bb9477fb-926a-4daa-82ff-7becae5eb2d8",
      "identifier": [ {
        "value": "59132"
      } ],
      "version": "2021-04-06T11:33:34.963Z",
      "status": "active",
      "experimental": false,
      "date": "2021-04-06T11:33:34+00:00",
      "publisher": "User ID: 'MCDONALDD' User name: 'Denzle McDonald' User skill set: 'T3'",
      "lastReviewDate": "2021-04-06",
      "subjectType": [ "Patient" ],
      "item": [ {
        "linkId": "59132",
        "prefix": "0",
        "text": "PATIENT_AGEGROUP",
        "type": "choice",
        "required": true,
        "repeats": false,
        "option": [ {
          "valueString": "==\"ADULT\", Selected: false"
        }, {
          "valueString": "==\"CHILD\", Selected: true"
        }, {
          "valueString": "==\"TODDLER\", Selected: false"
        }, {
          "valueString": "==\"INFANT\", Selected: false"
        }, {
          "valueString": "==\"NEONATE\", Selected: false"
        }, {
          "valueString": "*, Selected: false"
        } ]
      } ]
    }
  }, {
    "fullUrl": "urn:uuid:37adf475-4a3a-4b21-ba01-0f832d8b9177",
    "resource": {
      "resourceType": "QuestionnaireResponse",
      "id": "37adf475-4a3a-4b21-ba01-0f832d8b9177",
      "identifier": {
        "value": "59132"
      },
      "questionnaire": {
        "reference": "urn:uuid:bfabca42-c203-4e92-b7f7-a35ee4d1ab32"
      },
      "status": "completed",
      "subject": {
        "reference": "urn:uuid:1df07e61-ca7b-49c7-aae4-09080f84301e"
      },
      "context": {
        "reference": "urn:uuid:09e7f0c9-40f2-4bb7-b5b6-9df4aff17591"
      },
      "authored": "2021-04-06T11:33:34+00:00",
      "item": [ {
        "linkId": "Tx224919",
        "text": "PATIENT_AGE",
        "answer": [ {
          "valueString": "<11"
        } ]
      } ]
    }
  }, {
    "fullUrl": "urn:uuid:bfabca42-c203-4e92-b7f7-a35ee4d1ab32",
    "resource": {
      "resourceType": "Questionnaire",
      "id": "bfabca42-c203-4e92-b7f7-a35ee4d1ab32",
      "identifier": [ {
        "value": "59132"
      } ],
      "version": "2021-04-06T11:33:34.963Z",
      "status": "active",
      "experimental": false,
      "date": "2021-04-06T11:33:34+00:00",
      "publisher": "User ID: 'MCDONALDD' User name: 'Denzle McDonald' User skill set: 'T3'",
      "lastReviewDate": "2021-04-06",
      "subjectType": [ "Patient" ],
      "item": [ {
        "linkId": "59132",
        "prefix": "15300",
        "text": "PATIENT_AGE",
        "type": "choice",
        "required": true,
        "repeats": false,
        "option": [ {
          "valueString": "<11, Selected: true"
        }, {
          "valueString": "<13, Selected: false"
        }, {
          "valueString": ">=13, Selected: false"
        }, {
          "valueString": "*, Selected: false"
        } ]
      } ]
    }
  }, {
    "fullUrl": "urn:uuid:b16b0e6a-f68b-490c-a6b6-72d33871fe74",
    "resource": {
      "resourceType": "QuestionnaireResponse",
      "id": "b16b0e6a-f68b-490c-a6b6-72d33871fe74",
      "identifier": {
        "value": "59132"
      },
      "questionnaire": {
        "reference": "urn:uuid:d777ec34-a50d-46fd-b78e-5b29a55098c7"
      },
      "status": "completed",
      "subject": {
        "reference": "urn:uuid:1df07e61-ca7b-49c7-aae4-09080f84301e"
      },
      "context": {
        "reference": "urn:uuid:09e7f0c9-40f2-4bb7-b5b6-9df4aff17591"
      },
      "authored": "2021-04-06T11:33:34+00:00",
      "item": [ {
        "linkId": "Tx224498",
        "text": "STRING:Under11",
        "answer": [ {
          "valueString": "\"present\""
        } ]
      } ]
    }
  }, {
    "fullUrl": "urn:uuid:d777ec34-a50d-46fd-b78e-5b29a55098c7",
    "resource": {
      "resourceType": "Questionnaire",
      "id": "d777ec34-a50d-46fd-b78e-5b29a55098c7",
      "identifier": [ {
        "value": "59132"
      } ],
      "version": "2021-04-06T11:33:34.963Z",
      "status": "active",
      "experimental": false,
      "date": "2021-04-06T11:33:34+00:00",
      "publisher": "User ID: 'MCDONALDD' User name: 'Denzle McDonald' User skill set: 'T3'",
      "lastReviewDate": "2021-04-06",
      "subjectType": [ "Patient" ],
      "item": [ {
        "linkId": "59132",
        "prefix": "14800",
        "text": "STRING:Under11",
        "type": "choice",
        "required": true,
        "repeats": false,
        "option": [ {
          "valueString": "\"present\", Selected: true"
        } ]
      } ]
    }
  }, {
    "fullUrl": "urn:uuid:81de01a9-e8b2-4feb-b8fe-f05fe6f49eff",
    "resource": {
      "resourceType": "QuestionnaireResponse",
      "id": "81de01a9-e8b2-4feb-b8fe-f05fe6f49eff",
      "identifier": {
        "value": "59132"
      },
      "questionnaire": {
        "reference": "urn:uuid:430cac45-425c-41ef-8662-d5a216c70266"
      },
      "status": "completed",
      "subject": {
        "reference": "urn:uuid:1df07e61-ca7b-49c7-aae4-09080f84301e"
      },
      "context": {
        "reference": "urn:uuid:09e7f0c9-40f2-4bb7-b5b6-9df4aff17591"
      },
      "authored": "2021-04-06T11:33:34+00:00",
      "item": [ {
        "linkId": "Tx224906",
        "text": "AbdominalPainPW",
        "answer": [ {
          "valueString": "*"
        } ]
      } ]
    }
  }, {
    "fullUrl": "urn:uuid:430cac45-425c-41ef-8662-d5a216c70266",
    "resource": {
      "resourceType": "Questionnaire",
      "id": "430cac45-425c-41ef-8662-d5a216c70266",
      "identifier": [ {
        "value": "59132"
      } ],
      "version": "2021-04-06T11:33:34.963Z",
      "status": "active",
      "experimental": false,
      "date": "2021-04-06T11:33:34+00:00",
      "publisher": "User ID: 'MCDONALDD' User name: 'Denzle McDonald' User skill set: 'T3'",
      "lastReviewDate": "2021-04-06",
      "subjectType": [ "Patient" ],
      "item": [ {
        "linkId": "59132",
        "prefix": "15600",
        "text": "AbdominalPainPW",
        "type": "choice",
        "required": true,
        "repeats": false,
        "option": [ {
          "valueString": "==\"present\", Selected: false"
        }, {
          "valueString": "*, Selected: true"
        } ]
      } ]
    }
  }, {
    "fullUrl": "urn:uuid:e8234038-8af5-4250-b57b-a7574a267a3b",
    "resource": {
      "resourceType": "QuestionnaireResponse",
      "id": "e8234038-8af5-4250-b57b-a7574a267a3b",
      "identifier": {
        "value": "59132"
      },
      "questionnaire": {
        "reference": "urn:uuid:c2a6046b-9f6c-41f4-b490-2a760788bdc3"
      },
      "status": "completed",
      "subject": {
        "reference": "urn:uuid:1df07e61-ca7b-49c7-aae4-09080f84301e"
      },
      "context": {
        "reference": "urn:uuid:09e7f0c9-40f2-4bb7-b5b6-9df4aff17591"
      },
      "authored": "2021-04-06T11:33:34+00:00",
      "item": [ {
        "linkId": "Tx225151",
        "text": "RectalBleedingwithAbdominalPainPW",
        "answer": [ {
          "valueString": "*"
        } ]
      } ]
    }
  }, {
    "fullUrl": "urn:uuid:c2a6046b-9f6c-41f4-b490-2a760788bdc3",
    "resource": {
      "resourceType": "Questionnaire",
      "id": "c2a6046b-9f6c-41f4-b490-2a760788bdc3",
      "identifier": [ {
        "value": "59132"
      } ],
      "version": "2021-04-06T11:33:34.963Z",
      "status": "active",
      "experimental": false,
      "date": "2021-04-06T11:33:34+00:00",
      "publisher": "User ID: 'MCDONALDD' User name: 'Denzle McDonald' User skill set: 'T3'",
      "lastReviewDate": "2021-04-06",
      "subjectType": [ "Patient" ],
      "item": [ {
        "linkId": "59132",
        "prefix": "21300",
        "text": "RectalBleedingwithAbdominalPainPW",
        "type": "choice",
        "required": true,
        "repeats": false,
        "option": [ {
          "valueString": "==\"present\", Selected: false"
        }, {
          "valueString": "*, Selected: true"
        } ]
      } ]
    }
  }, {
    "fullUrl": "urn:uuid:1fa5f35e-5b9e-4799-b3a1-38f4c9feaec2",
    "resource": {
      "resourceType": "QuestionnaireResponse",
      "id": "1fa5f35e-5b9e-4799-b3a1-38f4c9feaec2",
      "identifier": {
        "value": "59132"
      },
      "questionnaire": {
        "reference": "urn:uuid:b327b0a5-8dda-495b-9d03-f4fa0a649e6c"
      },
      "status": "completed",
      "subject": {
        "reference": "urn:uuid:1df07e61-ca7b-49c7-aae4-09080f84301e"
      },
      "context": {
        "reference": "urn:uuid:09e7f0c9-40f2-4bb7-b5b6-9df4aff17591"
      },
      "authored": "2021-04-06T11:33:34+00:00",
      "item": [ {
        "linkId": "Tx224908",
        "text": "GITSymptomWithAbdominalPain",
        "answer": [ {
          "valueString": "==\"present\""
        } ]
      } ]
    }
  }, {
    "fullUrl": "urn:uuid:b327b0a5-8dda-495b-9d03-f4fa0a649e6c",
    "resource": {
      "resourceType": "Questionnaire",
      "id": "b327b0a5-8dda-495b-9d03-f4fa0a649e6c",
      "identifier": [ {
        "value": "59132"
      } ],
      "version": "2021-04-06T11:33:34.963Z",
      "status": "active",
      "experimental": false,
      "date": "2021-04-06T11:33:34+00:00",
      "publisher": "User ID: 'MCDONALDD' User name: 'Denzle McDonald' User skill set: 'T3'",
      "lastReviewDate": "2021-04-06",
      "subjectType": [ "Patient" ],
      "item": [ {
        "linkId": "59132",
        "prefix": "15700",
        "text": "GITSymptomWithAbdominalPain",
        "type": "choice",
        "required": true,
        "repeats": false,
        "option": [ {
          "valueString": "==\"present\", Selected: true"
        }, {
          "valueString": "*, Selected: false"
        } ]
      } ]
    }
  }, {
    "fullUrl": "urn:uuid:5082e1b1-aa8c-4c6e-a500-3f43d933c989",
    "resource": {
      "resourceType": "QuestionnaireResponse",
      "id": "5082e1b1-aa8c-4c6e-a500-3f43d933c989",
      "identifier": {
        "value": "59132"
      },
      "questionnaire": {
        "reference": "urn:uuid:52833eef-d97d-4c39-a9b3-cecef87ee1db"
      },
      "status": "completed",
      "subject": {
        "reference": "urn:uuid:1df07e61-ca7b-49c7-aae4-09080f84301e"
      },
      "context": {
        "reference": "urn:uuid:09e7f0c9-40f2-4bb7-b5b6-9df4aff17591"
      },
      "authored": "2021-04-06T11:33:34+00:00"
    }
  }, {
    "fullUrl": "urn:uuid:52833eef-d97d-4c39-a9b3-cecef87ee1db",
    "resource": {
      "resourceType": "Questionnaire",
      "id": "52833eef-d97d-4c39-a9b3-cecef87ee1db",
      "identifier": [ {
        "value": "59132"
      } ],
      "version": "2021-04-06T11:33:34.963Z",
      "status": "active",
      "experimental": false,
      "date": "2021-04-06T11:33:34+00:00",
      "publisher": "User ID: 'MCDONALDD' User name: 'Denzle McDonald' User skill set: 'T3'",
      "lastReviewDate": "2021-04-06",
      "subjectType": [ "Patient" ]
    }
  }, {
    "fullUrl": "urn:uuid:37729514-d357-4647-98b8-97e2d4c9a67a",
    "resource": {
      "resourceType": "QuestionnaireResponse",
      "id": "37729514-d357-4647-98b8-97e2d4c9a67a",
      "identifier": {
        "value": "59132"
      },
      "questionnaire": {
        "reference": "urn:uuid:b5f8c7cb-0c65-4e19-831b-d452c53a39f9"
      },
      "status": "completed",
      "subject": {
        "reference": "urn:uuid:1df07e61-ca7b-49c7-aae4-09080f84301e"
      },
      "context": {
        "reference": "urn:uuid:09e7f0c9-40f2-4bb7-b5b6-9df4aff17591"
      },
      "authored": "2021-04-06T11:33:34+00:00",
      "item": [ {
        "linkId": "Tx221039",
        "text": "PATIENT_AGEGROUP",
        "answer": [ {
          "valueString": "==\"CHILD\""
        } ]
      } ]
    }
  }, {
    "fullUrl": "urn:uuid:b5f8c7cb-0c65-4e19-831b-d452c53a39f9",
    "resource": {
      "resourceType": "Questionnaire",
      "id": "b5f8c7cb-0c65-4e19-831b-d452c53a39f9",
      "identifier": [ {
        "value": "59132"
      } ],
      "version": "2021-04-06T11:33:34.963Z",
      "status": "active",
      "experimental": false,
      "date": "2021-04-06T11:33:34+00:00",
      "publisher": "User ID: 'MCDONALDD' User name: 'Denzle McDonald' User skill set: 'T3'",
      "lastReviewDate": "2021-04-06",
      "subjectType": [ "Patient" ],
      "item": [ {
        "linkId": "59132",
        "prefix": "0",
        "text": "PATIENT_AGEGROUP",
        "type": "choice",
        "required": true,
        "repeats": false,
        "option": [ {
          "valueString": "==\"ADULT\", Selected: false"
        }, {
          "valueString": "==\"CHILD\", Selected: true"
        }, {
          "valueString": "==\"TODDLER\", Selected: false"
        }, {
          "valueString": "==\"INFANT\", Selected: false"
        }, {
          "valueString": "==\"NEONATE\", Selected: false"
        }, {
          "valueString": "*, Selected: false"
        } ]
      } ]
    }
  }, {
    "fullUrl": "urn:uuid:1f39e32c-ea92-4064-8206-6a8dca2d5c31",
    "resource": {
      "resourceType": "QuestionnaireResponse",
      "id": "1f39e32c-ea92-4064-8206-6a8dca2d5c31",
      "identifier": {
        "value": "59132"
      },
      "questionnaire": {
        "reference": "urn:uuid:e4561d48-c202-41c8-b256-b4e5b34fdf41"
      },
      "status": "completed",
      "subject": {
        "reference": "urn:uuid:1df07e61-ca7b-49c7-aae4-09080f84301e"
      },
      "context": {
        "reference": "urn:uuid:09e7f0c9-40f2-4bb7-b5b6-9df4aff17591"
      },
      "authored": "2021-04-06T11:33:34+00:00",
      "item": [ {
        "linkId": "Tx220156",
        "text": "How bad is the pain?",
        "answer": [ {
          "valueString": "bad enough to interfere with normal activity"
        } ]
      } ]
    }
  }, {
    "fullUrl": "urn:uuid:e4561d48-c202-41c8-b256-b4e5b34fdf41",
    "resource": {
      "resourceType": "Questionnaire",
      "id": "e4561d48-c202-41c8-b256-b4e5b34fdf41",
      "identifier": [ {
        "value": "59132"
      } ],
      "version": "2021-04-06T11:33:34.963Z",
      "status": "active",
      "experimental": false,
      "date": "2021-04-06T11:33:34+00:00",
      "publisher": "User ID: 'MCDONALDD' User name: 'Denzle McDonald' User skill set: 'T3'",
      "lastReviewDate": "2021-04-06",
      "subjectType": [ "Patient" ],
      "item": [ {
        "linkId": "59132",
        "prefix": "6500",
        "text": "How bad is the pain?",
        "type": "choice",
        "required": true,
        "repeats": false,
        "option": [ {
          "valueString": "so bad that doing anything is impossible, Selected: false"
        }, {
          "valueString": "bad enough to interfere with normal activity, Selected: true"
        }, {
          "valueString": "neither of the above, Selected: false"
        } ]
      } ]
    }
  }, {
    "fullUrl": "urn:uuid:251133e2-01ad-4756-909b-b3ab13bd5287",
    "resource": {
      "resourceType": "QuestionnaireResponse",
      "id": "251133e2-01ad-4756-909b-b3ab13bd5287",
      "identifier": {
        "value": "59132"
      },
      "questionnaire": {
        "reference": "urn:uuid:e38fb875-0cb0-44df-bb1b-54790a6ab95c"
      },
      "status": "completed",
      "subject": {
        "reference": "urn:uuid:1df07e61-ca7b-49c7-aae4-09080f84301e"
      },
      "context": {
        "reference": "urn:uuid:09e7f0c9-40f2-4bb7-b5b6-9df4aff17591"
      },
      "authored": "2021-04-06T11:33:34+00:00",
      "item": [ {
        "linkId": "Tx224664",
        "text": "STRING:ModeratePain",
        "answer": [ {
          "valueString": "\"present\""
        } ]
      } ]
    }
  }, {
    "fullUrl": "urn:uuid:e38fb875-0cb0-44df-bb1b-54790a6ab95c",
    "resource": {
      "resourceType": "Questionnaire",
      "id": "e38fb875-0cb0-44df-bb1b-54790a6ab95c",
      "identifier": [ {
        "value": "59132"
      } ],
      "version": "2021-04-06T11:33:34.963Z",
      "status": "active",
      "experimental": false,
      "date": "2021-04-06T11:33:34+00:00",
      "publisher": "User ID: 'MCDONALDD' User name: 'Denzle McDonald' User skill set: 'T3'",
      "lastReviewDate": "2021-04-06",
      "subjectType": [ "Patient" ],
      "item": [ {
        "linkId": "59132",
        "prefix": "6600",
        "text": "STRING:ModeratePain",
        "type": "choice",
        "required": true,
        "repeats": false,
        "option": [ {
          "valueString": "\"present\", Selected: true"
        } ]
      } ]
    }
  }, {
    "fullUrl": "urn:uuid:6737fe69-1edd-4215-bd72-0bd63c387630",
    "resource": {
      "resourceType": "QuestionnaireResponse",
      "id": "6737fe69-1edd-4215-bd72-0bd63c387630",
      "identifier": {
        "value": "59132"
      },
      "questionnaire": {
        "reference": "urn:uuid:e0bb212f-c3ed-48bd-a239-17aa1273d02f"
      },
      "status": "completed",
      "subject": {
        "reference": "urn:uuid:1df07e61-ca7b-49c7-aae4-09080f84301e"
      },
      "context": {
        "reference": "urn:uuid:09e7f0c9-40f2-4bb7-b5b6-9df4aff17591"
      },
      "authored": "2021-04-06T11:33:34+00:00",
      "item": [ {
        "linkId": "Tx170003",
        "text": "PATIENT_PARTY",
        "answer": [ {
          "valueString": "==1"
        } ]
      } ]
    }
  }, {
    "fullUrl": "urn:uuid:e0bb212f-c3ed-48bd-a239-17aa1273d02f",
    "resource": {
      "resourceType": "Questionnaire",
      "id": "e0bb212f-c3ed-48bd-a239-17aa1273d02f",
      "identifier": [ {
        "value": "59132"
      } ],
      "version": "2021-04-06T11:33:34.963Z",
      "status": "active",
      "experimental": false,
      "date": "2021-04-06T11:33:34+00:00",
      "publisher": "User ID: 'MCDONALDD' User name: 'Denzle McDonald' User skill set: 'T3'",
      "lastReviewDate": "2021-04-06",
      "subjectType": [ "Patient" ],
      "item": [ {
        "linkId": "59132",
        "prefix": "6800",
        "text": "PATIENT_PARTY",
        "type": "choice",
        "required": true,
        "repeats": false,
        "option": [ {
          "valueString": "==1, Selected: true"
        }, {
          "valueString": "==3, Selected: false"
        }, {
          "valueString": "*, Selected: false"
        } ]
      } ]
    }
  }, {
    "fullUrl": "urn:uuid:e530b312-e859-4dc2-a219-21c4e810a32c",
    "resource": {
      "resourceType": "QuestionnaireResponse",
      "id": "e530b312-e859-4dc2-a219-21c4e810a32c",
      "identifier": {
        "value": "59132"
      },
      "questionnaire": {
        "reference": "urn:uuid:d37f23a3-579f-4d4f-90da-a5590f8c75ea"
      },
      "status": "completed",
      "subject": {
        "reference": "urn:uuid:1df07e61-ca7b-49c7-aae4-09080f84301e"
      },
      "context": {
        "reference": "urn:uuid:09e7f0c9-40f2-4bb7-b5b6-9df4aff17591"
      },
      "authored": "2021-04-06T11:33:34+00:00",
      "item": [ {
        "linkId": "Tx224190",
        "text": "Are you so ill that you have stopped doing ALL of your usual activities?",
        "answer": [ {
          "valueString": "no - well enough to do MOST or all activities"
        } ]
      } ]
    }
  }, {
    "fullUrl": "urn:uuid:d37f23a3-579f-4d4f-90da-a5590f8c75ea",
    "resource": {
      "resourceType": "Questionnaire",
      "id": "d37f23a3-579f-4d4f-90da-a5590f8c75ea",
      "identifier": [ {
        "value": "59132"
      } ],
      "version": "2021-04-06T11:33:34.963Z",
      "status": "active",
      "experimental": false,
      "date": "2021-04-06T11:33:34+00:00",
      "publisher": "User ID: 'MCDONALDD' User name: 'Denzle McDonald' User skill set: 'T3'",
      "lastReviewDate": "2021-04-06",
      "subjectType": [ "Patient" ],
      "item": [ {
        "linkId": "59132",
        "prefix": "6900",
        "text": "Are you so ill that you have stopped doing ALL of your usual activities?",
        "type": "choice",
        "required": true,
        "repeats": false,
        "option": [ {
          "valueString": "yes - so ill they have stopped doing ALL normal activities, Selected: false"
        }, {
          "valueString": "no - unwell but able to do SOME normal activities, Selected: false"
        }, {
          "valueString": "no - well enough to do MOST or all activities, Selected: true"
        } ]
      } ]
    }
  }, {
    "fullUrl": "urn:uuid:8b90ddf6-39a2-4120-97e8-93d9a7871350",
    "resource": {
      "resourceType": "QuestionnaireResponse",
      "id": "8b90ddf6-39a2-4120-97e8-93d9a7871350",
      "identifier": {
        "value": "59132"
      },
      "questionnaire": {
        "reference": "urn:uuid:8ddb2315-1a22-4929-a85d-ec9926dc2b09"
      },
      "status": "completed",
      "subject": {
        "reference": "urn:uuid:1df07e61-ca7b-49c7-aae4-09080f84301e"
      },
      "context": {
        "reference": "urn:uuid:09e7f0c9-40f2-4bb7-b5b6-9df4aff17591"
      },
      "authored": "2021-04-06T11:33:34+00:00",
      "item": [ {
        "linkId": "Tx224916",
        "text": "FlankPainPW",
        "answer": [ {
          "valueString": "*"
        } ]
      } ]
    }
  }, {
    "fullUrl": "urn:uuid:8ddb2315-1a22-4929-a85d-ec9926dc2b09",
    "resource": {
      "resourceType": "Questionnaire",
      "id": "8ddb2315-1a22-4929-a85d-ec9926dc2b09",
      "identifier": [ {
        "value": "59132"
      } ],
      "version": "2021-04-06T11:33:34.963Z",
      "status": "active",
      "experimental": false,
      "date": "2021-04-06T11:33:34+00:00",
      "publisher": "User ID: 'MCDONALDD' User name: 'Denzle McDonald' User skill set: 'T3'",
      "lastReviewDate": "2021-04-06",
      "subjectType": [ "Patient" ],
      "item": [ {
        "linkId": "59132",
        "prefix": "26500",
        "text": "FlankPainPW",
        "type": "choice",
        "required": true,
        "repeats": false,
        "option": [ {
          "valueString": "==\"present\", Selected: false"
        }, {
          "valueString": "*, Selected: true"
        } ]
      } ]
    }
  }, {
    "fullUrl": "urn:uuid:a2d2b8ea-80c7-4c92-8917-638d28ebec90",
    "resource": {
      "resourceType": "QuestionnaireResponse",
      "id": "a2d2b8ea-80c7-4c92-8917-638d28ebec90",
      "identifier": {
        "value": "59132"
      },
      "questionnaire": {
        "reference": "urn:uuid:55dca9d8-b6ed-4113-bf07-f2f18addc605"
      },
      "status": "completed",
      "subject": {
        "reference": "urn:uuid:1df07e61-ca7b-49c7-aae4-09080f84301e"
      },
      "context": {
        "reference": "urn:uuid:09e7f0c9-40f2-4bb7-b5b6-9df4aff17591"
      },
      "authored": "2021-04-06T11:33:34+00:00",
      "item": [ {
        "linkId": "Tx222766",
        "text": "PregnancyOver20Weeks",
        "answer": [ {
          "valueString": "*"
        } ]
      } ]
    }
  }, {
    "fullUrl": "urn:uuid:55dca9d8-b6ed-4113-bf07-f2f18addc605",
    "resource": {
      "resourceType": "Questionnaire",
      "id": "55dca9d8-b6ed-4113-bf07-f2f18addc605",
      "identifier": [ {
        "value": "59132"
      } ],
      "version": "2021-04-06T11:33:34.963Z",
      "status": "active",
      "experimental": false,
      "date": "2021-04-06T11:33:34+00:00",
      "publisher": "User ID: 'MCDONALDD' User name: 'Denzle McDonald' User skill set: 'T3'",
      "lastReviewDate": "2021-04-06",
      "subjectType": [ "Patient" ],
      "item": [ {
        "linkId": "59132",
        "prefix": "16100",
        "text": "PregnancyOver20Weeks",
        "type": "choice",
        "required": true,
        "repeats": false,
        "option": [ {
          "valueString": "==\"present\", Selected: false"
        }, {
          "valueString": "*, Selected: true"
        } ]
      } ]
    }
  }, {
    "fullUrl": "urn:uuid:18ef2098-e77a-40ea-942e-bb750dab46b6",
    "resource": {
      "resourceType": "QuestionnaireResponse",
      "id": "18ef2098-e77a-40ea-942e-bb750dab46b6",
      "identifier": {
        "value": "59132"
      },
      "questionnaire": {
        "reference": "urn:uuid:46db9c01-83a9-4f1a-91a9-5e432335518a"
      },
      "status": "completed",
      "subject": {
        "reference": "urn:uuid:1df07e61-ca7b-49c7-aae4-09080f84301e"
      },
      "context": {
        "reference": "urn:uuid:09e7f0c9-40f2-4bb7-b5b6-9df4aff17591"
      },
      "authored": "2021-04-06T11:33:34+00:00",
      "item": [ {
        "linkId": "Tx225151",
        "text": "RectalBleedingwithAbdominalPainPW",
        "answer": [ {
          "valueString": "*"
        } ]
      } ]
    }
  }, {
    "fullUrl": "urn:uuid:46db9c01-83a9-4f1a-91a9-5e432335518a",
    "resource": {
      "resourceType": "Questionnaire",
      "id": "46db9c01-83a9-4f1a-91a9-5e432335518a",
      "identifier": [ {
        "value": "59132"
      } ],
      "version": "2021-04-06T11:33:34.963Z",
      "status": "active",
      "experimental": false,
      "date": "2021-04-06T11:33:34+00:00",
      "publisher": "User ID: 'MCDONALDD' User name: 'Denzle McDonald' User skill set: 'T3'",
      "lastReviewDate": "2021-04-06",
      "subjectType": [ "Patient" ],
      "item": [ {
        "linkId": "59132",
        "prefix": "26200",
        "text": "RectalBleedingwithAbdominalPainPW",
        "type": "choice",
        "required": true,
        "repeats": false,
        "option": [ {
          "valueString": "==\"present\", Selected: false"
        }, {
          "valueString": "*, Selected: true"
        } ]
      } ]
    }
  }, {
    "fullUrl": "urn:uuid:8c89beb9-7948-4c1e-9cf1-dd70d2a564d3",
    "resource": {
      "resourceType": "QuestionnaireResponse",
      "id": "8c89beb9-7948-4c1e-9cf1-dd70d2a564d3",
      "identifier": {
        "value": "59132"
      },
      "questionnaire": {
        "reference": "urn:uuid:9b7281b1-8ffe-4ca1-979b-7eda40cf80ac"
      },
      "status": "completed",
      "subject": {
        "reference": "urn:uuid:1df07e61-ca7b-49c7-aae4-09080f84301e"
      },
      "context": {
        "reference": "urn:uuid:09e7f0c9-40f2-4bb7-b5b6-9df4aff17591"
      },
      "authored": "2021-04-06T11:33:34+00:00",
      "item": [ {
        "linkId": "Tx221119",
        "text": "SeverelyIll",
        "answer": [ {
          "valueString": "*"
        } ]
      } ]
    }
  }, {
    "fullUrl": "urn:uuid:9b7281b1-8ffe-4ca1-979b-7eda40cf80ac",
    "resource": {
      "resourceType": "Questionnaire",
      "id": "9b7281b1-8ffe-4ca1-979b-7eda40cf80ac",
      "identifier": [ {
        "value": "59132"
      } ],
      "version": "2021-04-06T11:33:34.963Z",
      "status": "active",
      "experimental": false,
      "date": "2021-04-06T11:33:34+00:00",
      "publisher": "User ID: 'MCDONALDD' User name: 'Denzle McDonald' User skill set: 'T3'",
      "lastReviewDate": "2021-04-06",
      "subjectType": [ "Patient" ],
      "item": [ {
        "linkId": "59132",
        "prefix": "7500",
        "text": "SeverelyIll",
        "type": "choice",
        "required": true,
        "repeats": false,
        "option": [ {
          "valueString": "==\"present\", Selected: false"
        }, {
          "valueString": "*, Selected: true"
        } ]
      } ]
    }
  }, {
    "fullUrl": "urn:uuid:8493fb49-c953-4567-9fa5-3ff8a5314807",
    "resource": {
      "resourceType": "QuestionnaireResponse",
      "id": "8493fb49-c953-4567-9fa5-3ff8a5314807",
      "identifier": {
        "value": "59132"
      },
      "questionnaire": {
        "reference": "urn:uuid:e4afde8a-f82b-41c8-ba66-2723fda6d294"
      },
      "status": "completed",
      "subject": {
        "reference": "urn:uuid:1df07e61-ca7b-49c7-aae4-09080f84301e"
      },
      "context": {
        "reference": "urn:uuid:09e7f0c9-40f2-4bb7-b5b6-9df4aff17591"
      },
      "authored": "2021-04-06T11:33:34+00:00",
      "item": [ {
        "linkId": "Tx224934",
        "text": "GroinPainOrSwellingPWAbdominalPainPW",
        "answer": [ {
          "valueString": "*"
        } ]
      } ]
    }
  }, {
    "fullUrl": "urn:uuid:e4afde8a-f82b-41c8-ba66-2723fda6d294",
    "resource": {
      "resourceType": "Questionnaire",
      "id": "e4afde8a-f82b-41c8-ba66-2723fda6d294",
      "identifier": [ {
        "value": "59132"
      } ],
      "version": "2021-04-06T11:33:34.963Z",
      "status": "active",
      "experimental": false,
      "date": "2021-04-06T11:33:34+00:00",
      "publisher": "User ID: 'MCDONALDD' User name: 'Denzle McDonald' User skill set: 'T3'",
      "lastReviewDate": "2021-04-06",
      "subjectType": [ "Patient" ],
      "item": [ {
        "linkId": "59132",
        "prefix": "23300",
        "text": "GroinPainOrSwellingPWAbdominalPainPW",
        "type": "choice",
        "required": true,
        "repeats": false,
        "option": [ {
          "valueString": "==\"present\", Selected: false"
        }, {
          "valueString": "*, Selected: true"
        } ]
      } ]
    }
  }, {
    "fullUrl": "urn:uuid:8a35480a-c869-4e8f-bdd2-07a6b5b3a3cc",
    "resource": {
      "resourceType": "QuestionnaireResponse",
      "id": "8a35480a-c869-4e8f-bdd2-07a6b5b3a3cc",
      "identifier": {
        "value": "59132"
      },
      "questionnaire": {
        "reference": "urn:uuid:fa6be22a-e7e2-43b3-8b1c-b641810e0419"
      },
      "status": "completed",
      "subject": {
        "reference": "urn:uuid:1df07e61-ca7b-49c7-aae4-09080f84301e"
      },
      "context": {
        "reference": "urn:uuid:09e7f0c9-40f2-4bb7-b5b6-9df4aff17591"
      },
      "authored": "2021-04-06T11:33:34+00:00",
      "item": [ {
        "linkId": "Tx224906",
        "text": "AbdominalPainPW",
        "answer": [ {
          "valueString": "*"
        } ]
      } ]
    }
  }, {
    "fullUrl": "urn:uuid:fa6be22a-e7e2-43b3-8b1c-b641810e0419",
    "resource": {
      "resourceType": "Questionnaire",
      "id": "fa6be22a-e7e2-43b3-8b1c-b641810e0419",
      "identifier": [ {
        "value": "59132"
      } ],
      "version": "2021-04-06T11:33:34.963Z",
      "status": "active",
      "experimental": false,
      "date": "2021-04-06T11:33:34+00:00",
      "publisher": "User ID: 'MCDONALDD' User name: 'Denzle McDonald' User skill set: 'T3'",
      "lastReviewDate": "2021-04-06",
      "subjectType": [ "Patient" ],
      "item": [ {
        "linkId": "59132",
        "prefix": "23400",
        "text": "AbdominalPainPW",
        "type": "choice",
        "required": true,
        "repeats": false,
        "option": [ {
          "valueString": "==\"present\", Selected: false"
        }, {
          "valueString": "*, Selected: true"
        } ]
      } ]
    }
  }, {
    "fullUrl": "urn:uuid:7adc5d09-a596-4c15-a8b2-5927d0d90e04",
    "resource": {
      "resourceType": "QuestionnaireResponse",
      "id": "7adc5d09-a596-4c15-a8b2-5927d0d90e04",
      "identifier": {
        "value": "59132"
      },
      "questionnaire": {
        "reference": "urn:uuid:88e16081-2738-4ec6-bec2-3592eab6e4d1"
      },
      "status": "completed",
      "subject": {
        "reference": "urn:uuid:1df07e61-ca7b-49c7-aae4-09080f84301e"
      },
      "context": {
        "reference": "urn:uuid:09e7f0c9-40f2-4bb7-b5b6-9df4aff17591"
      },
      "authored": "2021-04-06T11:33:34+00:00",
      "item": [ {
        "linkId": "Tx224928",
        "text": "VomitingAnd/OrNauseaWithAbdominalPainPW",
        "answer": [ {
          "valueString": "==\"present\""
        } ]
      } ]
    }
  }, {
    "fullUrl": "urn:uuid:88e16081-2738-4ec6-bec2-3592eab6e4d1",
    "resource": {
      "resourceType": "Questionnaire",
      "id": "88e16081-2738-4ec6-bec2-3592eab6e4d1",
      "identifier": [ {
        "value": "59132"
      } ],
      "version": "2021-04-06T11:33:34.963Z",
      "status": "active",
      "experimental": false,
      "date": "2021-04-06T11:33:34+00:00",
      "publisher": "User ID: 'MCDONALDD' User name: 'Denzle McDonald' User skill set: 'T3'",
      "lastReviewDate": "2021-04-06",
      "subjectType": [ "Patient" ],
      "item": [ {
        "linkId": "59132",
        "prefix": "23500",
        "text": "VomitingAnd/OrNauseaWithAbdominalPainPW",
        "type": "choice",
        "required": true,
        "repeats": false,
        "option": [ {
          "valueString": "==\"present\", Selected: true"
        }, {
          "valueString": "*, Selected: false"
        } ]
      } ]
    }
  }, {
    "fullUrl": "urn:uuid:d8b06bc8-8421-4930-a35a-90091dfefba9",
    "resource": {
      "resourceType": "QuestionnaireResponse",
      "id": "d8b06bc8-8421-4930-a35a-90091dfefba9",
      "identifier": {
        "value": "59132"
      },
      "questionnaire": {
        "reference": "urn:uuid:dcd9062f-abf6-4a97-9f02-e3bfd6c06429"
      },
      "status": "completed",
      "subject": {
        "reference": "urn:uuid:1df07e61-ca7b-49c7-aae4-09080f84301e"
      },
      "context": {
        "reference": "urn:uuid:09e7f0c9-40f2-4bb7-b5b6-9df4aff17591"
      },
      "authored": "2021-04-06T11:33:34+00:00",
      "item": [ {
        "linkId": "Tx221017",
        "text": "PATIENT_GENDER",
        "answer": [ {
          "valueString": "==\"F\""
        } ]
      } ]
    }
  }, {
    "fullUrl": "urn:uuid:dcd9062f-abf6-4a97-9f02-e3bfd6c06429",
    "resource": {
      "resourceType": "Questionnaire",
      "id": "dcd9062f-abf6-4a97-9f02-e3bfd6c06429",
      "identifier": [ {
        "value": "59132"
      } ],
      "version": "2021-04-06T11:33:34.963Z",
      "status": "active",
      "experimental": false,
      "date": "2021-04-06T11:33:34+00:00",
      "publisher": "User ID: 'MCDONALDD' User name: 'Denzle McDonald' User skill set: 'T3'",
      "lastReviewDate": "2021-04-06",
      "subjectType": [ "Patient" ],
      "item": [ {
        "linkId": "59132",
        "prefix": "9000",
        "text": "PATIENT_GENDER",
        "type": "choice",
        "required": true,
        "repeats": false,
        "option": [ {
          "valueString": "==\"M\", Selected: false"
        }, {
          "valueString": "==\"F\", Selected: true"
        }, {
          "valueString": "==\"U\", Selected: false"
        }, {
          "valueString": "*, Selected: false"
        } ]
      } ]
    }
  }, {
    "fullUrl": "urn:uuid:b208d6ae-c630-499d-8faf-31ff1ed6c5c0",
    "resource": {
      "resourceType": "QuestionnaireResponse",
      "id": "b208d6ae-c630-499d-8faf-31ff1ed6c5c0",
      "identifier": {
        "value": "59132"
      },
      "questionnaire": {
        "reference": "urn:uuid:3ac8de1d-7f08-4295-968d-a01432171c6f"
      },
      "status": "completed",
      "subject": {
        "reference": "urn:uuid:1df07e61-ca7b-49c7-aae4-09080f84301e"
      },
      "context": {
        "reference": "urn:uuid:09e7f0c9-40f2-4bb7-b5b6-9df4aff17591"
      },
      "authored": "2021-04-06T11:33:34+00:00"
    }
  }, {
    "fullUrl": "urn:uuid:3ac8de1d-7f08-4295-968d-a01432171c6f",
    "resource": {
      "resourceType": "Questionnaire",
      "id": "3ac8de1d-7f08-4295-968d-a01432171c6f",
      "identifier": [ {
        "value": "59132"
      } ],
      "version": "2021-04-06T11:33:34.963Z",
      "status": "active",
      "experimental": false,
      "date": "2021-04-06T11:33:34+00:00",
      "publisher": "User ID: 'MCDONALDD' User name: 'Denzle McDonald' User skill set: 'T3'",
      "lastReviewDate": "2021-04-06",
      "subjectType": [ "Patient" ]
    }
  }, {
    "fullUrl": "urn:uuid:841cc312-c34c-4dd5-b668-5dd60610b2db",
    "resource": {
      "resourceType": "QuestionnaireResponse",
      "id": "841cc312-c34c-4dd5-b668-5dd60610b2db",
      "identifier": {
        "value": "59132"
      },
      "questionnaire": {
        "reference": "urn:uuid:0cbe9662-0eb6-48e5-8340-48b5b35d4cd8"
      },
      "status": "completed",
      "subject": {
        "reference": "urn:uuid:1df07e61-ca7b-49c7-aae4-09080f84301e"
      },
      "context": {
        "reference": "urn:uuid:09e7f0c9-40f2-4bb7-b5b6-9df4aff17591"
      },
      "authored": "2021-04-06T11:33:34+00:00",
      "item": [ {
        "linkId": "Tx221114",
        "text": "Pregnancy",
        "answer": [ {
          "valueString": "*"
        } ]
      } ]
    }
  }, {
    "fullUrl": "urn:uuid:0cbe9662-0eb6-48e5-8340-48b5b35d4cd8",
    "resource": {
      "resourceType": "Questionnaire",
      "id": "0cbe9662-0eb6-48e5-8340-48b5b35d4cd8",
      "identifier": [ {
        "value": "59132"
      } ],
      "version": "2021-04-06T11:33:34.963Z",
      "status": "active",
      "experimental": false,
      "date": "2021-04-06T11:33:34+00:00",
      "publisher": "User ID: 'MCDONALDD' User name: 'Denzle McDonald' User skill set: 'T3'",
      "lastReviewDate": "2021-04-06",
      "subjectType": [ "Patient" ],
      "item": [ {
        "linkId": "59132",
        "prefix": "64500",
        "text": "Pregnancy",
        "type": "choice",
        "required": true,
        "repeats": false,
        "option": [ {
          "valueString": "==\"present\", Selected: false"
        }, {
          "valueString": "*, Selected: true"
        } ]
      } ]
    }
  }, {
    "fullUrl": "urn:uuid:b0ed8c6a-97f8-4c8e-8755-b35829c2a6b6",
    "resource": {
      "resourceType": "QuestionnaireResponse",
      "id": "b0ed8c6a-97f8-4c8e-8755-b35829c2a6b6",
      "identifier": {
        "value": "59132"
      },
      "questionnaire": {
        "reference": "urn:uuid:bb82cd99-a8c3-4206-b4ed-02441790ae55"
      },
      "status": "completed",
      "subject": {
        "reference": "urn:uuid:1df07e61-ca7b-49c7-aae4-09080f84301e"
      },
      "context": {
        "reference": "urn:uuid:09e7f0c9-40f2-4bb7-b5b6-9df4aff17591"
      },
      "authored": "2021-04-06T11:33:34+00:00",
      "item": [ {
        "linkId": "Tx221338",
        "text": ">=11yearsConfirmed",
        "answer": [ {
          "valueString": "*"
        } ]
      } ]
    }
  }, {
    "fullUrl": "urn:uuid:bb82cd99-a8c3-4206-b4ed-02441790ae55",
    "resource": {
      "resourceType": "Questionnaire",
      "id": "bb82cd99-a8c3-4206-b4ed-02441790ae55",
      "identifier": [ {
        "value": "59132"
      } ],
      "version": "2021-04-06T11:33:34.963Z",
      "status": "active",
      "experimental": false,
      "date": "2021-04-06T11:33:34+00:00",
      "publisher": "User ID: 'MCDONALDD' User name: 'Denzle McDonald' User skill set: 'T3'",
      "lastReviewDate": "2021-04-06",
      "subjectType": [ "Patient" ],
      "item": [ {
        "linkId": "59132",
        "prefix": "65600",
        "text": ">=11yearsConfirmed",
        "type": "choice",
        "required": true,
        "repeats": false,
        "option": [ {
          "valueString": "==\"present\", Selected: false"
        }, {
          "valueString": "*, Selected: true"
        } ]
      } ]
    }
  }, {
    "fullUrl": "urn:uuid:141b8072-208c-4275-9618-fa02e88dfc3e",
    "resource": {
      "resourceType": "QuestionnaireResponse",
      "id": "141b8072-208c-4275-9618-fa02e88dfc3e",
      "identifier": {
        "value": "59132"
      },
      "questionnaire": {
        "reference": "urn:uuid:e706ff7d-72ef-4ecd-bd5e-db150f8fa8f2"
      },
      "status": "completed",
      "subject": {
        "reference": "urn:uuid:1df07e61-ca7b-49c7-aae4-09080f84301e"
      },
      "context": {
        "reference": "urn:uuid:09e7f0c9-40f2-4bb7-b5b6-9df4aff17591"
      },
      "authored": "2021-04-06T11:33:34+00:00",
      "item": [ {
        "linkId": "Tx221119",
        "text": "SeverelyIll",
        "answer": [ {
          "valueString": "*"
        } ]
      } ]
    }
  }, {
    "fullUrl": "urn:uuid:e706ff7d-72ef-4ecd-bd5e-db150f8fa8f2",
    "resource": {
      "resourceType": "Questionnaire",
      "id": "e706ff7d-72ef-4ecd-bd5e-db150f8fa8f2",
      "identifier": [ {
        "value": "59132"
      } ],
      "version": "2021-04-06T11:33:34.963Z",
      "status": "active",
      "experimental": false,
      "date": "2021-04-06T11:33:34+00:00",
      "publisher": "User ID: 'MCDONALDD' User name: 'Denzle McDonald' User skill set: 'T3'",
      "lastReviewDate": "2021-04-06",
      "subjectType": [ "Patient" ],
      "item": [ {
        "linkId": "59132",
        "prefix": "46200",
        "text": "SeverelyIll",
        "type": "choice",
        "required": true,
        "repeats": false,
        "option": [ {
          "valueString": "==\"present\", Selected: false"
        }, {
          "valueString": "*, Selected: true"
        } ]
      } ]
    }
  }, {
    "fullUrl": "urn:uuid:d50616f6-3a39-492c-b099-e20db7c0a407",
    "resource": {
      "resourceType": "QuestionnaireResponse",
      "id": "d50616f6-3a39-492c-b099-e20db7c0a407",
      "identifier": {
        "value": "59132"
      },
      "questionnaire": {
        "reference": "urn:uuid:1ba87af6-c7b2-4bdc-a5d9-42473e9546c9"
      },
      "status": "completed",
      "subject": {
        "reference": "urn:uuid:1df07e61-ca7b-49c7-aae4-09080f84301e"
      },
      "context": {
        "reference": "urn:uuid:09e7f0c9-40f2-4bb7-b5b6-9df4aff17591"
      },
      "authored": "2021-04-06T11:33:34+00:00",
      "item": [ {
        "linkId": "Tx220947",
        "text": "SeverePain",
        "answer": [ {
          "valueString": "*"
        } ]
      } ]
    }
  }, {
    "fullUrl": "urn:uuid:1ba87af6-c7b2-4bdc-a5d9-42473e9546c9",
    "resource": {
      "resourceType": "Questionnaire",
      "id": "1ba87af6-c7b2-4bdc-a5d9-42473e9546c9",
      "identifier": [ {
        "value": "59132"
      } ],
      "version": "2021-04-06T11:33:34.963Z",
      "status": "active",
      "experimental": false,
      "date": "2021-04-06T11:33:34+00:00",
      "publisher": "User ID: 'MCDONALDD' User name: 'Denzle McDonald' User skill set: 'T3'",
      "lastReviewDate": "2021-04-06",
      "subjectType": [ "Patient" ],
      "item": [ {
        "linkId": "59132",
        "prefix": "64600",
        "text": "SeverePain",
        "type": "choice",
        "required": true,
        "repeats": false,
        "option": [ {
          "valueString": "==\"present\", Selected: false"
        }, {
          "valueString": "*, Selected: true"
        } ]
      } ]
    }
  }, {
    "fullUrl": "urn:uuid:9bbe737c-01c4-4ec4-8ddb-af6177b7175d",
    "resource": {
      "resourceType": "QuestionnaireResponse",
      "id": "9bbe737c-01c4-4ec4-8ddb-af6177b7175d",
      "identifier": {
        "value": "59132"
      },
      "questionnaire": {
        "reference": "urn:uuid:9808245b-2135-4606-8ae4-3434da568d0c"
      },
      "status": "completed",
      "subject": {
        "reference": "urn:uuid:1df07e61-ca7b-49c7-aae4-09080f84301e"
      },
      "context": {
        "reference": "urn:uuid:09e7f0c9-40f2-4bb7-b5b6-9df4aff17591"
      },
      "authored": "2021-04-06T11:33:34+00:00",
      "item": [ {
        "linkId": "Tx220114",
        "text": "Have you taken anything that might be harmful or poisonous?",
        "answer": [ {
          "valueString": "no"
        } ]
      } ]
    }
  }, {
    "fullUrl": "urn:uuid:9808245b-2135-4606-8ae4-3434da568d0c",
    "resource": {
      "resourceType": "Questionnaire",
      "id": "9808245b-2135-4606-8ae4-3434da568d0c",
      "identifier": [ {
        "value": "59132"
      } ],
      "version": "2021-04-06T11:33:34.963Z",
      "status": "active",
      "experimental": false,
      "date": "2021-04-06T11:33:34+00:00",
      "publisher": "User ID: 'MCDONALDD' User name: 'Denzle McDonald' User skill set: 'T3'",
      "lastReviewDate": "2021-04-06",
      "subjectType": [ "Patient" ],
      "item": [ {
        "linkId": "59132",
        "prefix": "30300",
        "text": "Have you taken anything that might be harmful or poisonous?",
        "type": "choice",
        "required": true,
        "repeats": false,
        "option": [ {
          "valueString": "yes (specify substance if known), Selected: false"
        }, {
          "valueString": "not sure, Selected: false"
        }, {
          "valueString": "no, Selected: true"
        } ]
      } ]
    }
  }, {
    "fullUrl": "urn:uuid:93612b46-8fb6-419e-a558-42d0e2a8cadf",
    "resource": {
      "resourceType": "QuestionnaireResponse",
      "id": "93612b46-8fb6-419e-a558-42d0e2a8cadf",
      "identifier": {
        "value": "59132"
      },
      "questionnaire": {
        "reference": "urn:uuid:b41b2504-26aa-4740-a279-a069d4b380f0"
      },
      "status": "completed",
      "subject": {
        "reference": "urn:uuid:1df07e61-ca7b-49c7-aae4-09080f84301e"
      },
      "context": {
        "reference": "urn:uuid:09e7f0c9-40f2-4bb7-b5b6-9df4aff17591"
      },
      "authored": "2021-04-06T11:33:34+00:00",
      "item": [ {
        "linkId": "Tx221176",
        "text": "PregnancyUnder20Weeks",
        "answer": [ {
          "valueString": "*"
        } ]
      } ]
    }
  }, {
    "fullUrl": "urn:uuid:b41b2504-26aa-4740-a279-a069d4b380f0",
    "resource": {
      "resourceType": "Questionnaire",
      "id": "b41b2504-26aa-4740-a279-a069d4b380f0",
      "identifier": [ {
        "value": "59132"
      } ],
      "version": "2021-04-06T11:33:34.963Z",
      "status": "active",
      "experimental": false,
      "date": "2021-04-06T11:33:34+00:00",
      "publisher": "User ID: 'MCDONALDD' User name: 'Denzle McDonald' User skill set: 'T3'",
      "lastReviewDate": "2021-04-06",
      "subjectType": [ "Patient" ],
      "item": [ {
        "linkId": "59132",
        "prefix": "7700",
        "text": "PregnancyUnder20Weeks",
        "type": "choice",
        "required": true,
        "repeats": false,
        "option": [ {
          "valueString": "==\"present\", Selected: false"
        }, {
          "valueString": "*, Selected: true"
        } ]
      } ]
    }
  }, {
    "fullUrl": "urn:uuid:fb90b5b4-3a76-4c69-a219-d85b173ddf68",
    "resource": {
      "resourceType": "QuestionnaireResponse",
      "id": "fb90b5b4-3a76-4c69-a219-d85b173ddf68",
      "identifier": {
        "value": "59132"
      },
      "questionnaire": {
        "reference": "urn:uuid:3a98eddc-7338-4bea-9289-ad40474583c4"
      },
      "status": "completed",
      "subject": {
        "reference": "urn:uuid:1df07e61-ca7b-49c7-aae4-09080f84301e"
      },
      "context": {
        "reference": "urn:uuid:09e7f0c9-40f2-4bb7-b5b6-9df4aff17591"
      },
      "authored": "2021-04-06T11:33:34+00:00",
      "item": [ {
        "linkId": "Tx221338",
        "text": ">=11yearsConfirmed",
        "answer": [ {
          "valueString": "*"
        } ]
      } ]
    }
  }, {
    "fullUrl": "urn:uuid:3a98eddc-7338-4bea-9289-ad40474583c4",
    "resource": {
      "resourceType": "Questionnaire",
      "id": "3a98eddc-7338-4bea-9289-ad40474583c4",
      "identifier": [ {
        "value": "59132"
      } ],
      "version": "2021-04-06T11:33:34.963Z",
      "status": "active",
      "experimental": false,
      "date": "2021-04-06T11:33:34+00:00",
      "publisher": "User ID: 'MCDONALDD' User name: 'Denzle McDonald' User skill set: 'T3'",
      "lastReviewDate": "2021-04-06",
      "subjectType": [ "Patient" ],
      "item": [ {
        "linkId": "59132",
        "prefix": "8200",
        "text": ">=11yearsConfirmed",
        "type": "choice",
        "required": true,
        "repeats": false,
        "option": [ {
          "valueString": "==\"present\", Selected: false"
        }, {
          "valueString": "*, Selected: true"
        } ]
      } ]
    }
  }, {
    "fullUrl": "urn:uuid:70d6835f-b049-49e9-8471-4b49dd5bfb25",
    "resource": {
      "resourceType": "QuestionnaireResponse",
      "id": "70d6835f-b049-49e9-8471-4b49dd5bfb25",
      "identifier": {
        "value": "59132"
      },
      "questionnaire": {
        "reference": "urn:uuid:17cf340a-24ff-42af-bbcd-4e5eca98b1ee"
      },
      "status": "completed",
      "subject": {
        "reference": "urn:uuid:1df07e61-ca7b-49c7-aae4-09080f84301e"
      },
      "context": {
        "reference": "urn:uuid:09e7f0c9-40f2-4bb7-b5b6-9df4aff17591"
      },
      "authored": "2021-04-06T11:33:34+00:00",
      "item": [ {
        "linkId": "Tx1033",
        "text": "Have you passed a bowel motion that looks like either of the following?",
        "answer": [ {
          "valueString": "no"
        } ]
      } ]
    }
  }, {
    "fullUrl": "urn:uuid:17cf340a-24ff-42af-bbcd-4e5eca98b1ee",
    "resource": {
      "resourceType": "Questionnaire",
      "id": "17cf340a-24ff-42af-bbcd-4e5eca98b1ee",
      "identifier": [ {
        "value": "59132"
      } ],
      "version": "2021-04-06T11:33:34.963Z",
      "status": "active",
      "experimental": false,
      "date": "2021-04-06T11:33:34+00:00",
      "publisher": "User ID: 'MCDONALDD' User name: 'Denzle McDonald' User skill set: 'T3'",
      "lastReviewDate": "2021-04-06",
      "subjectType": [ "Patient" ],
      "item": [ {
        "linkId": "59132",
        "prefix": "65200",
        "text": "Have you passed a bowel motion that looks like either of the following?",
        "type": "choice",
        "required": true,
        "repeats": false,
        "option": [ {
          "valueString": "black and tarry, Selected: false"
        }, {
          "valueString": "red or maroon, Selected: false"
        }, {
          "valueString": "not sure, Selected: false"
        }, {
          "valueString": "no, Selected: true"
        } ]
      } ]
    }
  }, {
    "fullUrl": "urn:uuid:a9217648-4cce-4514-952b-e119c78e9d13",
    "resource": {
      "resourceType": "QuestionnaireResponse",
      "id": "a9217648-4cce-4514-952b-e119c78e9d13",
      "identifier": {
        "value": "59132"
      },
      "questionnaire": {
        "reference": "urn:uuid:b5cb55e7-f77e-4f97-a2ce-bb117451a5a7"
      },
      "status": "completed",
      "subject": {
        "reference": "urn:uuid:1df07e61-ca7b-49c7-aae4-09080f84301e"
      },
      "context": {
        "reference": "urn:uuid:09e7f0c9-40f2-4bb7-b5b6-9df4aff17591"
      },
      "authored": "2021-04-06T11:33:34+00:00",
      "item": [ {
        "linkId": "Tx223274",
        "text": "VHFSymptom",
        "answer": [ {
          "valueString": "*"
        } ]
      } ]
    }
  }, {
    "fullUrl": "urn:uuid:b5cb55e7-f77e-4f97-a2ce-bb117451a5a7",
    "resource": {
      "resourceType": "Questionnaire",
      "id": "b5cb55e7-f77e-4f97-a2ce-bb117451a5a7",
      "identifier": [ {
        "value": "59132"
      } ],
      "version": "2021-04-06T11:33:34.963Z",
      "status": "active",
      "experimental": false,
      "date": "2021-04-06T11:33:34+00:00",
      "publisher": "User ID: 'MCDONALDD' User name: 'Denzle McDonald' User skill set: 'T3'",
      "lastReviewDate": "2021-04-06",
      "subjectType": [ "Patient" ],
      "item": [ {
        "linkId": "59132",
        "prefix": "34000",
        "text": "VHFSymptom",
        "type": "choice",
        "required": true,
        "repeats": false,
        "option": [ {
          "valueString": "==\"present\", Selected: false"
        }, {
          "valueString": "*, Selected: true"
        } ]
      } ]
    }
  }, {
    "fullUrl": "urn:uuid:5317fcd2-c929-4201-b98c-f8a208782748",
    "resource": {
      "resourceType": "QuestionnaireResponse",
      "id": "5317fcd2-c929-4201-b98c-f8a208782748",
      "identifier": {
        "value": "59132"
      },
      "questionnaire": {
        "reference": "urn:uuid:65d10b26-2a9e-417e-b918-68664a2084e6"
      },
      "status": "completed",
      "subject": {
        "reference": "urn:uuid:1df07e61-ca7b-49c7-aae4-09080f84301e"
      },
      "context": {
        "reference": "urn:uuid:09e7f0c9-40f2-4bb7-b5b6-9df4aff17591"
      },
      "authored": "2021-04-06T11:33:34+00:00",
      "item": [ {
        "linkId": "Tx224075",
        "text": "SeverelyIllandConfused",
        "answer": [ {
          "valueString": "*"
        } ]
      } ]
    }
  }, {
    "fullUrl": "urn:uuid:65d10b26-2a9e-417e-b918-68664a2084e6",
    "resource": {
      "resourceType": "Questionnaire",
      "id": "65d10b26-2a9e-417e-b918-68664a2084e6",
      "identifier": [ {
        "value": "59132"
      } ],
      "version": "2021-04-06T11:33:34.963Z",
      "status": "active",
      "experimental": false,
      "date": "2021-04-06T11:33:34+00:00",
      "publisher": "User ID: 'MCDONALDD' User name: 'Denzle McDonald' User skill set: 'T3'",
      "lastReviewDate": "2021-04-06",
      "subjectType": [ "Patient" ],
      "item": [ {
        "linkId": "59132",
        "prefix": "47300",
        "text": "SeverelyIllandConfused",
        "type": "choice",
        "required": true,
        "repeats": false,
        "option": [ {
          "valueString": "==\"present\", Selected: false"
        }, {
          "valueString": "*, Selected: true"
        } ]
      } ]
    }
  }, {
    "fullUrl": "urn:uuid:4b275d84-e51c-4fdf-9fb6-0874d4f29d80",
    "resource": {
      "resourceType": "QuestionnaireResponse",
      "id": "4b275d84-e51c-4fdf-9fb6-0874d4f29d80",
      "identifier": {
        "value": "59132"
      },
      "questionnaire": {
        "reference": "urn:uuid:35f31105-a21f-4441-9a93-da38b0af09b2"
      },
      "status": "completed",
      "subject": {
        "reference": "urn:uuid:1df07e61-ca7b-49c7-aae4-09080f84301e"
      },
      "context": {
        "reference": "urn:uuid:09e7f0c9-40f2-4bb7-b5b6-9df4aff17591"
      },
      "authored": "2021-04-06T11:33:34+00:00",
      "item": [ {
        "linkId": "Tx221119",
        "text": "SeverelyIll",
        "answer": [ {
          "valueString": "*"
        } ]
      } ]
    }
  }, {
    "fullUrl": "urn:uuid:35f31105-a21f-4441-9a93-da38b0af09b2",
    "resource": {
      "resourceType": "Questionnaire",
      "id": "35f31105-a21f-4441-9a93-da38b0af09b2",
      "identifier": [ {
        "value": "59132"
      } ],
      "version": "2021-04-06T11:33:34.963Z",
      "status": "active",
      "experimental": false,
      "date": "2021-04-06T11:33:34+00:00",
      "publisher": "User ID: 'MCDONALDD' User name: 'Denzle McDonald' User skill set: 'T3'",
      "lastReviewDate": "2021-04-06",
      "subjectType": [ "Patient" ],
      "item": [ {
        "linkId": "59132",
        "prefix": "55200",
        "text": "SeverelyIll",
        "type": "choice",
        "required": true,
        "repeats": false,
        "option": [ {
          "valueString": "==\"present\", Selected: false"
        }, {
          "valueString": "*, Selected: true"
        } ]
      } ]
    }
  }, {
    "fullUrl": "urn:uuid:253d43c4-896b-4875-b3ea-e9e9258a588a",
    "resource": {
      "resourceType": "QuestionnaireResponse",
      "id": "253d43c4-896b-4875-b3ea-e9e9258a588a",
      "identifier": {
        "value": "59132"
      },
      "questionnaire": {
        "reference": "urn:uuid:ef36af49-32f7-4060-8444-086eed5fc1d6"
      },
      "status": "completed",
      "subject": {
        "reference": "urn:uuid:1df07e61-ca7b-49c7-aae4-09080f84301e"
      },
      "context": {
        "reference": "urn:uuid:09e7f0c9-40f2-4bb7-b5b6-9df4aff17591"
      },
      "authored": "2021-04-06T11:33:34+00:00",
      "item": [ {
        "linkId": "Tx223485",
        "text": "ConfusionDeclared",
        "answer": [ {
          "valueString": "*"
        } ]
      } ]
    }
  }, {
    "fullUrl": "urn:uuid:ef36af49-32f7-4060-8444-086eed5fc1d6",
    "resource": {
      "resourceType": "Questionnaire",
      "id": "ef36af49-32f7-4060-8444-086eed5fc1d6",
      "identifier": [ {
        "value": "59132"
      } ],
      "version": "2021-04-06T11:33:34.963Z",
      "status": "active",
      "experimental": false,
      "date": "2021-04-06T11:33:34+00:00",
      "publisher": "User ID: 'MCDONALDD' User name: 'Denzle McDonald' User skill set: 'T3'",
      "lastReviewDate": "2021-04-06",
      "subjectType": [ "Patient" ],
      "item": [ {
        "linkId": "59132",
        "prefix": "55600",
        "text": "ConfusionDeclared",
        "type": "choice",
        "required": true,
        "repeats": false,
        "option": [ {
          "valueString": "==\"present\", Selected: false"
        }, {
          "valueString": "*, Selected: true"
        } ]
      } ]
    }
  }, {
    "fullUrl": "urn:uuid:86f57d26-13b8-4b48-bc34-1bfcdc9721f3",
    "resource": {
      "resourceType": "QuestionnaireResponse",
      "id": "86f57d26-13b8-4b48-bc34-1bfcdc9721f3",
      "identifier": {
        "value": "59132"
      },
      "questionnaire": {
        "reference": "urn:uuid:9b936fdb-d5c0-46f9-86d1-868d0c14d9c1"
      },
      "status": "completed",
      "subject": {
        "reference": "urn:uuid:1df07e61-ca7b-49c7-aae4-09080f84301e"
      },
      "context": {
        "reference": "urn:uuid:09e7f0c9-40f2-4bb7-b5b6-9df4aff17591"
      },
      "authored": "2021-04-06T11:33:34+00:00",
      "item": [ {
        "linkId": "Tx1213",
        "text": "Have you suddenly become confused OR more confused than usual?",
        "answer": [ {
          "valueString": "no"
        } ]
      } ]
    }
  }, {
    "fullUrl": "urn:uuid:9b936fdb-d5c0-46f9-86d1-868d0c14d9c1",
    "resource": {
      "resourceType": "Questionnaire",
      "id": "9b936fdb-d5c0-46f9-86d1-868d0c14d9c1",
      "identifier": [ {
        "value": "59132"
      } ],
      "version": "2021-04-06T11:33:34.963Z",
      "status": "active",
      "experimental": false,
      "date": "2021-04-06T11:33:34+00:00",
      "publisher": "User ID: 'MCDONALDD' User name: 'Denzle McDonald' User skill set: 'T3'",
      "lastReviewDate": "2021-04-06",
      "subjectType": [ "Patient" ],
      "item": [ {
        "linkId": "59132",
        "prefix": "55500",
        "text": "Have you suddenly become confused OR more confused than usual?",
        "type": "choice",
        "required": true,
        "repeats": false,
        "option": [ {
          "valueString": "yes, Selected: false"
        }, {
          "valueString": "not sure, Selected: false"
        }, {
          "valueString": "no, Selected: true"
        } ]
      } ]
    }
  }, {
    "fullUrl": "urn:uuid:aff688ff-b672-498e-bfd6-9c9e53d6d471",
    "resource": {
      "resourceType": "QuestionnaireResponse",
      "id": "aff688ff-b672-498e-bfd6-9c9e53d6d471",
      "identifier": {
        "value": "59132"
      },
      "questionnaire": {
        "reference": "urn:uuid:ff9d7ea5-7cb5-43ed-b4b7-9dcbcce80b7a"
      },
      "status": "completed",
      "subject": {
        "reference": "urn:uuid:1df07e61-ca7b-49c7-aae4-09080f84301e"
      },
      "context": {
        "reference": "urn:uuid:09e7f0c9-40f2-4bb7-b5b6-9df4aff17591"
      },
      "authored": "2021-04-06T11:33:34+00:00",
      "item": [ {
        "linkId": "Tx220164",
        "text": "Are you breathing faster or harder when doing nothing at all?",
        "answer": [ {
          "valueString": "no"
        } ]
      } ]
    }
  }, {
    "fullUrl": "urn:uuid:ff9d7ea5-7cb5-43ed-b4b7-9dcbcce80b7a",
    "resource": {
      "resourceType": "Questionnaire",
      "id": "ff9d7ea5-7cb5-43ed-b4b7-9dcbcce80b7a",
      "identifier": [ {
        "value": "59132"
      } ],
      "version": "2021-04-06T11:33:34.963Z",
      "status": "active",
      "experimental": false,
      "date": "2021-04-06T11:33:34+00:00",
      "publisher": "User ID: 'MCDONALDD' User name: 'Denzle McDonald' User skill set: 'T3'",
      "lastReviewDate": "2021-04-06",
      "subjectType": [ "Patient" ],
      "item": [ {
        "linkId": "59132",
        "prefix": "55400",
        "text": "Are you breathing faster or harder when doing nothing at all?",
        "type": "choice",
        "required": true,
        "repeats": false,
        "option": [ {
          "valueString": "yes, Selected: false"
        }, {
          "valueString": "not sure, Selected: false"
        }, {
          "valueString": "no, Selected: true"
        } ]
      } ]
    }
  }, {
    "fullUrl": "urn:uuid:6dfc7821-e8a6-4664-9fa5-905903ef01eb",
    "resource": {
      "resourceType": "QuestionnaireResponse",
      "id": "6dfc7821-e8a6-4664-9fa5-905903ef01eb",
      "identifier": {
        "value": "59132"
      },
      "questionnaire": {
        "reference": "urn:uuid:6b4e20f4-d337-48cb-aa2b-4ab5e58f4a34"
      },
      "status": "completed",
      "subject": {
        "reference": "urn:uuid:1df07e61-ca7b-49c7-aae4-09080f84301e"
      },
      "context": {
        "reference": "urn:uuid:09e7f0c9-40f2-4bb7-b5b6-9df4aff17591"
      },
      "authored": "2021-04-06T11:33:34+00:00",
      "item": [ {
        "linkId": "Tx224697",
        "text": "ShoulderTipPainAsked",
        "answer": [ {
          "valueString": "*"
        } ]
      } ]
    }
  }, {
    "fullUrl": "urn:uuid:6b4e20f4-d337-48cb-aa2b-4ab5e58f4a34",
    "resource": {
      "resourceType": "Questionnaire",
      "id": "6b4e20f4-d337-48cb-aa2b-4ab5e58f4a34",
      "identifier": [ {
        "value": "59132"
      } ],
      "version": "2021-04-06T11:33:34.963Z",
      "status": "active",
      "experimental": false,
      "date": "2021-04-06T11:33:34+00:00",
      "publisher": "User ID: 'MCDONALDD' User name: 'Denzle McDonald' User skill set: 'T3'",
      "lastReviewDate": "2021-04-06",
      "subjectType": [ "Patient" ],
      "item": [ {
        "linkId": "59132",
        "prefix": "59300",
        "text": "ShoulderTipPainAsked",
        "type": "choice",
        "required": true,
        "repeats": false,
        "option": [ {
          "valueString": "==\"present\", Selected: false"
        }, {
          "valueString": "*, Selected: true"
        } ]
      } ]
    }
  }, {
    "fullUrl": "urn:uuid:92a55cc2-5357-468b-94cf-ec8e434a27bc",
    "resource": {
      "resourceType": "QuestionnaireResponse",
      "id": "92a55cc2-5357-468b-94cf-ec8e434a27bc",
      "identifier": {
        "value": "59132"
      },
      "questionnaire": {
        "reference": "urn:uuid:370bbff1-4d98-4491-8044-dd1000c2e346"
      },
      "status": "completed",
      "subject": {
        "reference": "urn:uuid:1df07e61-ca7b-49c7-aae4-09080f84301e"
      },
      "context": {
        "reference": "urn:uuid:09e7f0c9-40f2-4bb7-b5b6-9df4aff17591"
      },
      "authored": "2021-04-06T11:33:34+00:00",
      "item": [ {
        "linkId": "Tx1513",
        "text": "Have you got either of the following problems?",
        "answer": [ {
          "valueString": "no"
        } ]
      } ]
    }
  }, {
    "fullUrl": "urn:uuid:370bbff1-4d98-4491-8044-dd1000c2e346",
    "resource": {
      "resourceType": "Questionnaire",
      "id": "370bbff1-4d98-4491-8044-dd1000c2e346",
      "identifier": [ {
        "value": "59132"
      } ],
      "version": "2021-04-06T11:33:34.963Z",
      "status": "active",
      "experimental": false,
      "date": "2021-04-06T11:33:34+00:00",
      "publisher": "User ID: 'MCDONALDD' User name: 'Denzle McDonald' User skill set: 'T3'",
      "lastReviewDate": "2021-04-06",
      "subjectType": [ "Patient" ],
      "item": [ {
        "linkId": "59132",
        "prefix": "11000",
        "text": "Have you got either of the following problems?",
        "type": "choice",
        "required": true,
        "repeats": false,
        "option": [ {
          "valueString": "new pain in the TIP of a shoulder as well, Selected: false"
        }, {
          "valueString": "pain in the lower right side of the abdomen, Selected: false"
        }, {
          "valueString": "not sure, Selected: false"
        }, {
          "valueString": "no, Selected: true"
        } ]
      } ]
    }
  }, {
    "fullUrl": "urn:uuid:655a2419-98c1-444f-803d-0221bdc794d0",
    "resource": {
      "resourceType": "QuestionnaireResponse",
      "id": "655a2419-98c1-444f-803d-0221bdc794d0",
      "identifier": {
        "value": "59132"
      },
      "questionnaire": {
        "reference": "urn:uuid:f461a108-74c1-45e3-a8bf-460563ed1803"
      },
      "status": "completed",
      "subject": {
        "reference": "urn:uuid:1df07e61-ca7b-49c7-aae4-09080f84301e"
      },
      "context": {
        "reference": "urn:uuid:09e7f0c9-40f2-4bb7-b5b6-9df4aff17591"
      },
      "authored": "2021-04-06T11:33:34+00:00",
      "item": [ {
        "linkId": "Tx3481",
        "text": "Has the pain been there ALL THE TIME for MORE THAN 4 HOURS?",
        "answer": [ {
          "valueString": "no (LESS THAN 4 hours)"
        } ]
      } ]
    }
  }, {
    "fullUrl": "urn:uuid:f461a108-74c1-45e3-a8bf-460563ed1803",
    "resource": {
      "resourceType": "Questionnaire",
      "id": "f461a108-74c1-45e3-a8bf-460563ed1803",
      "identifier": [ {
        "value": "59132"
      } ],
      "version": "2021-04-06T11:33:34.963Z",
      "status": "active",
      "experimental": false,
      "date": "2021-04-06T11:33:34+00:00",
      "publisher": "User ID: 'MCDONALDD' User name: 'Denzle McDonald' User skill set: 'T3'",
      "lastReviewDate": "2021-04-06",
      "subjectType": [ "Patient" ],
      "item": [ {
        "linkId": "59132",
        "prefix": "13000",
        "text": "Has the pain been there ALL THE TIME for MORE THAN 4 HOURS?",
        "type": "choice",
        "required": true,
        "repeats": false,
        "option": [ {
          "valueString": "yes (4 hours or MORE), Selected: false"
        }, {
          "valueString": "not sure, Selected: false"
        }, {
          "valueString": "no (LESS THAN 4 hours), Selected: true"
        } ]
      } ]
    }
  }, {
    "fullUrl": "urn:uuid:c878949a-e940-4250-bbef-d1f3ad90196b",
    "resource": {
      "resourceType": "QuestionnaireResponse",
      "id": "c878949a-e940-4250-bbef-d1f3ad90196b",
      "identifier": {
        "value": "59132"
      },
      "questionnaire": {
        "reference": "urn:uuid:661da75f-38a2-412d-8c55-ee74a84f1868"
      },
      "status": "completed",
      "subject": {
        "reference": "urn:uuid:1df07e61-ca7b-49c7-aae4-09080f84301e"
      },
      "context": {
        "reference": "urn:uuid:09e7f0c9-40f2-4bb7-b5b6-9df4aff17591"
      },
      "authored": "2021-04-06T11:33:34+00:00",
      "item": [ {
        "linkId": "Tx1178",
        "text": "Have you been diagnosed with diabetes?",
        "answer": [ {
          "valueString": "no"
        } ]
      } ]
    }
  }, {
    "fullUrl": "urn:uuid:661da75f-38a2-412d-8c55-ee74a84f1868",
    "resource": {
      "resourceType": "Questionnaire",
      "id": "661da75f-38a2-412d-8c55-ee74a84f1868",
      "identifier": [ {
        "value": "59132"
      } ],
      "version": "2021-04-06T11:33:34.963Z",
      "status": "active",
      "experimental": false,
      "date": "2021-04-06T11:33:34+00:00",
      "publisher": "User ID: 'MCDONALDD' User name: 'Denzle McDonald' User skill set: 'T3'",
      "lastReviewDate": "2021-04-06",
      "subjectType": [ "Patient" ],
      "item": [ {
        "linkId": "59132",
        "prefix": "13700",
        "text": "Have you been diagnosed with diabetes?",
        "type": "choice",
        "required": true,
        "repeats": false,
        "option": [ {
          "valueString": "yes, Selected: false"
        }, {
          "valueString": "not sure, Selected: false"
        }, {
          "valueString": "no, Selected: true"
        } ]
      } ]
    }
  }, {
    "fullUrl": "urn:uuid:8d94aaee-783d-45a2-87b6-e38ed43ce472",
    "resource": {
      "resourceType": "QuestionnaireResponse",
      "id": "8d94aaee-783d-45a2-87b6-e38ed43ce472",
      "identifier": {
        "value": "59132"
      },
      "questionnaire": {
        "reference": "urn:uuid:79dc04cf-2ffa-4dd4-bcdf-315e44b2279f"
      },
      "status": "completed",
      "subject": {
        "reference": "urn:uuid:1df07e61-ca7b-49c7-aae4-09080f84301e"
      },
      "context": {
        "reference": "urn:uuid:09e7f0c9-40f2-4bb7-b5b6-9df4aff17591"
      },
      "authored": "2021-04-06T11:33:34+00:00",
      "item": [ {
        "linkId": "Tx220906",
        "text": "Have you got pain in the back or side between the ribs and hips?",
        "answer": [ {
          "valueString": "yes"
        } ]
      } ]
    }
  }, {
    "fullUrl": "urn:uuid:79dc04cf-2ffa-4dd4-bcdf-315e44b2279f",
    "resource": {
      "resourceType": "Questionnaire",
      "id": "79dc04cf-2ffa-4dd4-bcdf-315e44b2279f",
      "identifier": [ {
        "value": "59132"
      } ],
      "version": "2021-04-06T11:33:34.963Z",
      "status": "active",
      "experimental": false,
      "date": "2021-04-06T11:33:34+00:00",
      "publisher": "User ID: 'MCDONALDD' User name: 'Denzle McDonald' User skill set: 'T3'",
      "lastReviewDate": "2021-04-06",
      "subjectType": [ "Patient" ],
      "item": [ {
        "linkId": "59132",
        "prefix": "14400",
        "text": "Have you got pain in the back or side between the ribs and hips?",
        "type": "choice",
        "required": true,
        "repeats": false,
        "option": [ {
          "valueString": "yes, Selected: true"
        }, {
          "valueString": "not sure, Selected: false"
        }, {
          "valueString": "no, Selected: false"
        } ]
      } ]
    }
  }, {
    "fullUrl": "urn:uuid:186aa4ee-e699-4abf-ad05-fea7eee0a0b1",
    "resource": {
      "resourceType": "QuestionnaireResponse",
      "id": "186aa4ee-e699-4abf-ad05-fea7eee0a0b1",
      "identifier": {
        "value": "59132"
      },
      "questionnaire": {
        "reference": "urn:uuid:f409518b-931a-44ce-b094-f2730e22375f"
      },
      "status": "completed",
      "subject": {
        "reference": "urn:uuid:1df07e61-ca7b-49c7-aae4-09080f84301e"
      },
      "context": {
        "reference": "urn:uuid:09e7f0c9-40f2-4bb7-b5b6-9df4aff17591"
      },
      "authored": "2021-04-06T11:33:34+00:00",
      "item": [ {
        "linkId": "Tx1122",
        "text": "Have you felt hot or feverish at any time in the last 12 hours?",
        "answer": [ {
          "valueString": "yes - temperature not taken"
        } ]
      } ]
    }
  }, {
    "fullUrl": "urn:uuid:f409518b-931a-44ce-b094-f2730e22375f",
    "resource": {
      "resourceType": "Questionnaire",
      "id": "f409518b-931a-44ce-b094-f2730e22375f",
      "identifier": [ {
        "value": "59132"
      } ],
      "version": "2021-04-06T11:33:34.963Z",
      "status": "active",
      "experimental": false,
      "date": "2021-04-06T11:33:34+00:00",
      "publisher": "User ID: 'MCDONALDD' User name: 'Denzle McDonald' User skill set: 'T3'",
      "lastReviewDate": "2021-04-06",
      "subjectType": [ "Patient" ],
      "item": [ {
        "linkId": "59132",
        "prefix": "14700",
        "text": "Have you felt hot or feverish at any time in the last 12 hours?",
        "type": "choice",
        "required": true,
        "repeats": false,
        "option": [ {
          "valueString": "yes - temperature not taken, Selected: true"
        }, {
          "valueString": "yes - temperature taken (specify), Selected: false"
        }, {
          "valueString": "not sure, Selected: false"
        }, {
          "valueString": "no, Selected: false"
        } ]
      } ]
    }
  }, {
    "fullUrl": "urn:uuid:30686d51-41d7-47f9-9f2c-c4deac647cb6",
    "resource": {
      "resourceType": "QuestionnaireResponse",
      "id": "30686d51-41d7-47f9-9f2c-c4deac647cb6",
      "identifier": {
        "value": "59132"
      },
      "questionnaire": {
        "reference": "urn:uuid:4ff6efb7-b0c5-4814-8c31-e203b99bcf34"
      },
      "status": "completed",
      "subject": {
        "reference": "urn:uuid:1df07e61-ca7b-49c7-aae4-09080f84301e"
      },
      "context": {
        "reference": "urn:uuid:09e7f0c9-40f2-4bb7-b5b6-9df4aff17591"
      },
      "authored": "2021-04-06T11:33:34+00:00",
      "item": [ {
        "linkId": "Tx1320",
        "text": "Have you got a new red rash all over, like sunburn?",
        "answer": [ {
          "valueString": "no"
        } ]
      } ]
    }
  }, {
    "fullUrl": "urn:uuid:4ff6efb7-b0c5-4814-8c31-e203b99bcf34",
    "resource": {
      "resourceType": "Questionnaire",
      "id": "4ff6efb7-b0c5-4814-8c31-e203b99bcf34",
      "identifier": [ {
        "value": "59132"
      } ],
      "version": "2021-04-06T11:33:34.963Z",
      "status": "active",
      "experimental": false,
      "date": "2021-04-06T11:33:34+00:00",
      "publisher": "User ID: 'MCDONALDD' User name: 'Denzle McDonald' User skill set: 'T3'",
      "lastReviewDate": "2021-04-06",
      "subjectType": [ "Patient" ],
      "item": [ {
        "linkId": "59132",
        "prefix": "14800",
        "text": "Have you got a new red rash all over, like sunburn?",
        "type": "choice",
        "required": true,
        "repeats": false,
        "option": [ {
          "valueString": "yes, Selected: false"
        }, {
          "valueString": "not sure, Selected: false"
        }, {
          "valueString": "no, Selected: true"
        } ]
      } ]
    }
  }, {
    "fullUrl": "urn:uuid:1f128350-f035-4b45-8380-f79349c610f9",
    "resource": {
      "resourceType": "QuestionnaireResponse",
      "id": "1f128350-f035-4b45-8380-f79349c610f9",
      "identifier": {
        "value": "59132"
      },
      "questionnaire": {
        "reference": "urn:uuid:63e720e0-c476-46b4-8fa6-1ae44a93e2ce"
      },
      "status": "completed",
      "subject": {
        "reference": "urn:uuid:1df07e61-ca7b-49c7-aae4-09080f84301e"
      },
      "context": {
        "reference": "urn:uuid:09e7f0c9-40f2-4bb7-b5b6-9df4aff17591"
      },
      "authored": "2021-04-06T11:33:34+00:00",
      "item": [ {
        "linkId": "Tx221449",
        "text": "STRING:SDPCFullPrimaryCareassessmentandprescribingcapability",
        "answer": [ {
          "valueString": "\"PC full Primary Care assessment and prescribing capability\""
        } ]
      } ]
    }
  }, {
    "fullUrl": "urn:uuid:63e720e0-c476-46b4-8fa6-1ae44a93e2ce",
    "resource": {
      "resourceType": "Questionnaire",
      "id": "63e720e0-c476-46b4-8fa6-1ae44a93e2ce",
      "identifier": [ {
        "value": "59132"
      } ],
      "version": "2021-04-06T11:33:34.963Z",
      "status": "active",
      "experimental": false,
      "date": "2021-04-06T11:33:34+00:00",
      "publisher": "User ID: 'MCDONALDD' User name: 'Denzle McDonald' User skill set: 'T3'",
      "lastReviewDate": "2021-04-06",
      "subjectType": [ "Patient" ],
      "item": [ {
        "linkId": "59132",
        "prefix": "14900",
        "text": "STRING:SDPCFullPrimaryCareassessmentandprescribingcapability",
        "type": "choice",
        "required": true,
        "repeats": false,
        "option": [ {
          "valueString": "\"PC full Primary Care assessment and prescribing capability\", Selected: true"
        } ]
      } ]
    }
  }, {
    "fullUrl": "urn:uuid:20fa2be5-8ba5-4602-b71a-1286a7734667",
    "resource": {
      "resourceType": "QuestionnaireResponse",
      "id": "20fa2be5-8ba5-4602-b71a-1286a7734667",
      "identifier": {
        "value": "59132"
      },
      "questionnaire": {
        "reference": "urn:uuid:050ec39c-5c52-4024-a671-1385eaa5dcd0"
      },
      "status": "completed",
      "subject": {
        "reference": "urn:uuid:1df07e61-ca7b-49c7-aae4-09080f84301e"
      },
      "context": {
        "reference": "urn:uuid:09e7f0c9-40f2-4bb7-b5b6-9df4aff17591"
      },
      "authored": "2021-04-06T11:33:34+00:00"
    }
  }, {
    "fullUrl": "urn:uuid:050ec39c-5c52-4024-a671-1385eaa5dcd0",
    "resource": {
      "resourceType": "Questionnaire",
      "id": "050ec39c-5c52-4024-a671-1385eaa5dcd0",
      "identifier": [ {
        "value": "59132"
      } ],
      "version": "2021-04-06T11:33:34.963Z",
      "status": "active",
      "experimental": false,
      "date": "2021-04-06T11:33:34+00:00",
      "publisher": "User ID: 'MCDONALDD' User name: 'Denzle McDonald' User skill set: 'T3'",
      "lastReviewDate": "2021-04-06",
      "subjectType": [ "Patient" ]
    }
  }, {
    "fullUrl": "urn:uuid:82e14a4d-dd1e-4eb7-affa-e1a4b597fe1d",
    "resource": {
      "resourceType": "QuestionnaireResponse",
      "id": "82e14a4d-dd1e-4eb7-affa-e1a4b597fe1d",
      "identifier": {
        "value": "59132"
      },
      "questionnaire": {
        "reference": "urn:uuid:71762f9e-e7ec-40a8-a25c-2eb30399d4ff"
      },
      "status": "completed",
      "subject": {
        "reference": "urn:uuid:1df07e61-ca7b-49c7-aae4-09080f84301e"
      },
      "context": {
        "reference": "urn:uuid:09e7f0c9-40f2-4bb7-b5b6-9df4aff17591"
      },
      "authored": "2021-04-06T11:33:34+00:00"
    }
  }, {
    "fullUrl": "urn:uuid:71762f9e-e7ec-40a8-a25c-2eb30399d4ff",
    "resource": {
      "resourceType": "Questionnaire",
      "id": "71762f9e-e7ec-40a8-a25c-2eb30399d4ff",
      "identifier": [ {
        "value": "59132"
      } ],
      "version": "2021-04-06T11:33:34.963Z",
      "status": "active",
      "experimental": false,
      "date": "2021-04-06T11:33:34+00:00",
      "publisher": "User ID: 'MCDONALDD' User name: 'Denzle McDonald' User skill set: 'T3'",
      "lastReviewDate": "2021-04-06",
      "subjectType": [ "Patient" ]
    }
  }, {
    "fullUrl": "urn:uuid:8e608cfd-f8c7-4a0d-9a6c-f3a6eac2c939",
    "resource": {
      "resourceType": "QuestionnaireResponse",
      "id": "8e608cfd-f8c7-4a0d-9a6c-f3a6eac2c939",
      "identifier": {
        "value": "59132"
      },
      "questionnaire": {
        "reference": "urn:uuid:4a4aba77-888f-4fea-8f95-709275b0a369"
      },
      "status": "completed",
      "subject": {
        "reference": "urn:uuid:1df07e61-ca7b-49c7-aae4-09080f84301e"
      },
      "context": {
        "reference": "urn:uuid:09e7f0c9-40f2-4bb7-b5b6-9df4aff17591"
      },
      "authored": "2021-04-06T11:33:34+00:00"
    }
  }, {
    "fullUrl": "urn:uuid:4a4aba77-888f-4fea-8f95-709275b0a369",
    "resource": {
      "resourceType": "Questionnaire",
      "id": "4a4aba77-888f-4fea-8f95-709275b0a369",
      "identifier": [ {
        "value": "59132"
      } ],
      "version": "2021-04-06T11:33:34.963Z",
      "status": "active",
      "experimental": false,
      "date": "2021-04-06T11:33:34+00:00",
      "publisher": "User ID: 'MCDONALDD' User name: 'Denzle McDonald' User skill set: 'T3'",
      "lastReviewDate": "2021-04-06",
      "subjectType": [ "Patient" ]
    }
  }, {
    "fullUrl": "urn:uuid:1406bd73-178d-40c0-a05c-0370ecf6b4ce",
    "resource": {
      "resourceType": "QuestionnaireResponse",
      "id": "1406bd73-178d-40c0-a05c-0370ecf6b4ce",
      "identifier": {
        "value": "59132"
      },
      "questionnaire": {
        "reference": "urn:uuid:e173f12c-4f97-469d-a20f-0c19a70035be"
      },
      "status": "completed",
      "subject": {
        "reference": "urn:uuid:1df07e61-ca7b-49c7-aae4-09080f84301e"
      },
      "context": {
        "reference": "urn:uuid:09e7f0c9-40f2-4bb7-b5b6-9df4aff17591"
      },
      "authored": "2021-04-06T11:33:34+00:00"
    }
  }, {
    "fullUrl": "urn:uuid:e173f12c-4f97-469d-a20f-0c19a70035be",
    "resource": {
      "resourceType": "Questionnaire",
      "id": "e173f12c-4f97-469d-a20f-0c19a70035be",
      "identifier": [ {
        "value": "59132"
      } ],
      "version": "2021-04-06T11:33:34.963Z",
      "status": "active",
      "experimental": false,
      "date": "2021-04-06T11:33:34+00:00",
      "publisher": "User ID: 'MCDONALDD' User name: 'Denzle McDonald' User skill set: 'T3'",
      "lastReviewDate": "2021-04-06",
      "subjectType": [ "Patient" ]
    }
  }, {
    "fullUrl": "urn:uuid:42f6f392-4ba4-4098-9489-7128f57aaf2c",
    "resource": {
      "resourceType": "QuestionnaireResponse",
      "id": "42f6f392-4ba4-4098-9489-7128f57aaf2c",
      "identifier": {
        "value": "59132"
      },
      "questionnaire": {
        "reference": "urn:uuid:87695582-d61b-4fee-8854-90045a291b4e"
      },
      "status": "completed",
      "subject": {
        "reference": "urn:uuid:1df07e61-ca7b-49c7-aae4-09080f84301e"
      },
      "context": {
        "reference": "urn:uuid:09e7f0c9-40f2-4bb7-b5b6-9df4aff17591"
      },
      "authored": "2021-04-06T11:33:34+00:00"
    }
  }, {
    "fullUrl": "urn:uuid:87695582-d61b-4fee-8854-90045a291b4e",
    "resource": {
      "resourceType": "Questionnaire",
      "id": "87695582-d61b-4fee-8854-90045a291b4e",
      "identifier": [ {
        "value": "59132"
      } ],
      "version": "2021-04-06T11:33:34.963Z",
      "status": "active",
      "experimental": false,
      "date": "2021-04-06T11:33:34+00:00",
      "publisher": "User ID: 'MCDONALDD' User name: 'Denzle McDonald' User skill set: 'T3'",
      "lastReviewDate": "2021-04-06",
      "subjectType": [ "Patient" ]
    }
  }, {
    "fullUrl": "urn:uuid:32aae1b3-a6e1-47be-8a58-8dbfe68c314e",
    "resource": {
      "resourceType": "Observation",
      "id": "32aae1b3-a6e1-47be-8a58-8dbfe68c314e",
      "status": "final",
      "code": {
        "coding": [ {
          "system": "http://snomed.info/sct",
          "code": "33962009",
          "display": "Presenting complaint"
        } ]
      },
      "subject": {
        "reference": "urn:uuid:1df07e61-ca7b-49c7-aae4-09080f84301e"
      },
      "context": {
        "reference": "urn:uuid:09e7f0c9-40f2-4bb7-b5b6-9df4aff17591"
      },
      "valueString": "Pharmacy ITK Testing"
    }
  }, {
    "fullUrl": "urn:uuid:a22a70bd-527e-4381-9487-a862add07425",
    "resource": {
      "resourceType": "PractitionerRole",
      "id": "a22a70bd-527e-4381-9487-a862add07425",
      "practitioner": {
        "reference": "urn:uuid:f5c35009-60bf-441a-9947-bf8536b1c1fb"
      },
      "organization": {
        "reference": "urn:uuid:b97d7380-8c65-4df5-80bd-59c440b9daee"
      },
      "code": [ {
        "coding": [ {
          "system": "2.16.840.1.113883.2.1.3.2.4.17.339",
          "code": "DOCTOR",
          "display": "Doctor"
        } ]
      } ]
    }
  }, {
    "fullUrl": "urn:uuid:b97d7380-8c65-4df5-80bd-59c440b9daee",
    "resource": {
      "resourceType": "Organization",
      "id": "b97d7380-8c65-4df5-80bd-59c440b9daee",
      "identifier": [ {
        "value": "RYE"
      } ],
      "name": "1.SCAS Administrator (SCAS111)"
    }
  }, {
    "fullUrl": "urn:uuid:abb9ad72-78c7-4d93-84d9-582f7ba04731",
    "resource": {
      "resourceType": "PractitionerRole",
      "id": "abb9ad72-78c7-4d93-84d9-582f7ba04731",
      "practitioner": {
        "reference": "urn:uuid:6e8f7705-1259-4f62-94be-fd7c80a06efd"
      },
      "organization": {
        "reference": "urn:uuid:cb350c5e-c1f8-4497-9515-386bfc850cda"
      },
      "code": [ {
        "coding": [ {
          "system": "2.16.840.1.113883.2.1.3.2.4.17.196",
          "code": "R0010",
          "display": "Medical Director"
        } ]
      } ]
    }
  }, {
    "fullUrl": "urn:uuid:cb350c5e-c1f8-4497-9515-386bfc850cda",
    "resource": {
      "resourceType": "Organization",
      "id": "cb350c5e-c1f8-4497-9515-386bfc850cda",
      "identifier": [ {
        "value": "RYE"
      } ],
      "name": "SCAS111"
    }
  }, {
    "fullUrl": "urn:uuid:f769a21a-015e-45c8-8ed4-18b21ed05aca",
    "resource": {
      "resourceType": "RelatedPerson",
      "id": "f769a21a-015e-45c8-8ed4-18b21ed05aca",
      "patient": {
        "reference": "urn:uuid:1df07e61-ca7b-49c7-aae4-09080f84301e"
      },
      "relationship": {
        "coding": [ {
          "system": "http://hl7.org/fhir/v2/0131",
          "code": "C",
          "display": "Emergency Contact"
        } ]
      },
      "telecom": [ {
        "system": "phone",
        "value": "tel:07948625625"
      } ]
    }
  }, {
    "fullUrl": "urn:uuid:85bae361-0f5a-43e1-80d9-b2e49fedbb9c",
    "resource": {
      "resourceType": "Device",
      "id": "85bae361-0f5a-43e1-80d9-b2e49fedbb9c",
      "model": "111 Adaptor",
      "version": "0.8.0"
    }
  }, {
    "fullUrl": "urn:uuid:d1316953-f820-4eea-a0aa-fd119b9e4a5e",
    "resource": {
      "resourceType": "List",
      "id": "d1316953-f820-4eea-a0aa-fd119b9e4a5e",
      "status": "current",
      "mode": "working",
      "title": "111 Report List",
      "code": {
        "coding": [ {
          "system": "http://snomed.info/sct",
          "code": "225390008",
          "display": "Triage"
        } ]
      },
      "subject": {
        "reference": "urn:uuid:1df07e61-ca7b-49c7-aae4-09080f84301e"
      },
      "encounter": {
        "reference": "urn:uuid:09e7f0c9-40f2-4bb7-b5b6-9df4aff17591"
      },
      "date": "2021-09-14T09:23:24+00:00",
      "source": {
        "reference": "urn:uuid:85bae361-0f5a-43e1-80d9-b2e49fedbb9c"
      },
      "orderedBy": {
        "coding": [ {
          "system": "http://hl7.org/fhir/list-order",
          "code": "event-date",
          "display": "Sorted by Event Date"
        } ]
      },
      "entry": [ {
        "item": {
          "reference": "urn:uuid:0d289a85-a274-4aeb-af2b-9994409c5700"
        }
      }, {
        "item": {
          "reference": "urn:uuid:f769a21a-015e-45c8-8ed4-18b21ed05aca"
        }
      }, {
        "item": {
          "reference": "urn:uuid:32aae1b3-a6e1-47be-8a58-8dbfe68c314e"
        }
      }, {
        "item": {
          "reference": "urn:uuid:b97d7380-8c65-4df5-80bd-59c440b9daee"
        }
      }, {
        "item": {
          "reference": "urn:uuid:6e8f7705-1259-4f62-94be-fd7c80a06efd"
        }
      }, {
        "item": {
          "reference": "urn:uuid:cb350c5e-c1f8-4497-9515-386bfc850cda"
        }
      }, {
        "item": {
          "reference": "urn:uuid:0e289b2a-76c5-4334-a721-95e0f78ab8cb"
        }
      }, {
        "item": {
          "reference": "urn:uuid:f5c35009-60bf-441a-9947-bf8536b1c1fb"
        }
      }, {
        "item": {
          "reference": "urn:uuid:9cda082a-26bd-4072-ba92-10127efb97a4"
        }
      }, {
        "item": {
          "reference": "urn:uuid:82cdb82f-d8b2-4ddd-bff9-c233cb267210"
        }
      }, {
        "item": {
          "reference": "urn:uuid:35ed4033-dfa2-4bc0-81c4-7edf8fd1860c"
        }
      }, {
        "item": {
          "reference": "urn:uuid:841cc312-c34c-4dd5-b668-5dd60610b2db"
        }
      }, {
        "item": {
          "reference": "urn:uuid:31cc1cbc-3b7f-4af1-9e0e-a06a45b87e0a"
        }
      }, {
        "item": {
          "reference": "urn:uuid:10b2d9f1-5f20-4c81-acb8-7dbda091fef8"
        }
      }, {
        "item": {
          "reference": "urn:uuid:d8b06bc8-8421-4930-a35a-90091dfefba9"
        }
      }, {
        "item": {
          "reference": "urn:uuid:a9217648-4cce-4514-952b-e119c78e9d13"
        }
      }, {
        "item": {
          "reference": "urn:uuid:56c36db3-4126-4217-8407-7b113321a73c"
        }
      }, {
        "item": {
          "reference": "urn:uuid:acc52c68-f78d-4382-929b-865fead674e7"
        }
      }, {
        "item": {
          "reference": "urn:uuid:326ca7d0-f043-4a44-aee1-63b4c092a8a9"
        }
      }, {
        "item": {
          "reference": "urn:uuid:6737fe69-1edd-4215-bd72-0bd63c387630"
        }
      }, {
        "item": {
          "reference": "urn:uuid:d37f23a3-579f-4d4f-90da-a5590f8c75ea"
        }
      }, {
        "item": {
          "reference": "urn:uuid:b327b0a5-8dda-495b-9d03-f4fa0a649e6c"
        }
      }, {
        "item": {
          "reference": "urn:uuid:370bbff1-4d98-4491-8044-dd1000c2e346"
        }
      }, {
        "item": {
          "reference": "urn:uuid:52833eef-d97d-4c39-a9b3-cecef87ee1db"
        }
      }, {
        "item": {
          "reference": "urn:uuid:141b8072-208c-4275-9618-fa02e88dfc3e"
        }
      }, {
        "item": {
          "reference": "urn:uuid:467824d6-15aa-47c6-980f-4684ead29da7"
        }
      }, {
        "item": {
          "reference": "urn:uuid:8493fb49-c953-4567-9fa5-3ff8a5314807"
        }
      }, {
        "item": {
          "reference": "urn:uuid:ff9d7ea5-7cb5-43ed-b4b7-9dcbcce80b7a"
        }
      }, {
        "item": {
          "reference": "urn:uuid:92a55cc2-5357-468b-94cf-ec8e434a27bc"
        }
      }, {
        "item": {
          "reference": "urn:uuid:c878949a-e940-4250-bbef-d1f3ad90196b"
        }
      }, {
        "item": {
          "reference": "urn:uuid:9808245b-2135-4606-8ae4-3434da568d0c"
        }
      }, {
        "item": {
          "reference": "urn:uuid:1406bd73-178d-40c0-a05c-0370ecf6b4ce"
        }
      }, {
        "item": {
          "reference": "urn:uuid:fc99ecf5-3bab-4ff1-a154-f5b07d0b049b"
        }
      }, {
        "item": {
          "reference": "urn:uuid:8e608cfd-f8c7-4a0d-9a6c-f3a6eac2c939"
        }
      }, {
        "item": {
          "reference": "urn:uuid:a1a13307-1cc1-4092-ab0b-5111e69ddfda"
        }
      }, {
        "item": {
          "reference": "urn:uuid:57ed71a3-30a9-4036-bb1d-f7685a060eca"
        }
      }, {
        "item": {
          "reference": "urn:uuid:8ddb2315-1a22-4929-a85d-ec9926dc2b09"
        }
      }, {
        "item": {
          "reference": "urn:uuid:18ef2098-e77a-40ea-942e-bb750dab46b6"
        }
      }, {
        "item": {
          "reference": "urn:uuid:65d10b26-2a9e-417e-b918-68664a2084e6"
        }
      }, {
        "item": {
          "reference": "urn:uuid:37adf475-4a3a-4b21-ba01-0f832d8b9177"
        }
      }, {
        "item": {
          "reference": "urn:uuid:86f57d26-13b8-4b48-bc34-1bfcdc9721f3"
        }
      }, {
        "item": {
          "reference": "urn:uuid:5082e1b1-aa8c-4c6e-a500-3f43d933c989"
        }
      }, {
        "item": {
          "reference": "urn:uuid:7adc5d09-a596-4c15-a8b2-5927d0d90e04"
        }
      }, {
        "item": {
          "reference": "urn:uuid:46db9c01-83a9-4f1a-91a9-5e432335518a"
        }
      }, {
        "item": {
          "reference": "urn:uuid:a2fe5848-cb91-4aa0-a85b-d6e38fadea12"
        }
      }, {
        "item": {
          "reference": "urn:uuid:93881cf9-7c93-44ae-a8cf-09007591c047"
        }
      }, {
        "item": {
          "reference": "urn:uuid:77c05f95-4bdd-4170-8f91-4c354735df60"
        }
      }, {
        "item": {
          "reference": "urn:uuid:e0bb212f-c3ed-48bd-a239-17aa1273d02f"
        }
      }, {
        "item": {
          "reference": "urn:uuid:35f31105-a21f-4441-9a93-da38b0af09b2"
        }
      }, {
        "item": {
          "reference": "urn:uuid:f95150e4-fe78-4449-82f5-f9ecdd927cf6"
        }
      }, {
        "item": {
          "reference": "urn:uuid:5ebdb4ad-cf1a-4b7f-a842-7925c7659e4e"
        }
      }, {
        "item": {
          "reference": "urn:uuid:5207b52e-37c9-4fdc-a7a6-87c694ac9e80"
        }
      }, {
        "item": {
          "reference": "urn:uuid:98172dca-cb40-49d4-8d75-e6375f411ded"
        }
      }, {
        "item": {
          "reference": "urn:uuid:8b90ddf6-39a2-4120-97e8-93d9a7871350"
        }
      }, {
        "item": {
          "reference": "urn:uuid:42f6f392-4ba4-4098-9489-7128f57aaf2c"
        }
      }, {
        "item": {
          "reference": "urn:uuid:c2a6046b-9f6c-41f4-b490-2a760788bdc3"
        }
      }, {
        "item": {
          "reference": "urn:uuid:050ec39c-5c52-4024-a671-1385eaa5dcd0"
        }
      }, {
        "item": {
          "reference": "urn:uuid:a19afb5f-7e78-4df3-aa13-ebc5601e8b6c"
        }
      }, {
        "item": {
          "reference": "urn:uuid:6b4e20f4-d337-48cb-aa2b-4ab5e58f4a34"
        }
      }, {
        "item": {
          "reference": "urn:uuid:79dc04cf-2ffa-4dd4-bcdf-315e44b2279f"
        }
      }, {
        "item": {
          "reference": "urn:uuid:81de01a9-e8b2-4feb-b8fe-f05fe6f49eff"
        }
      }, {
        "item": {
          "reference": "urn:uuid:d68ca7ff-f71c-4986-9f32-9e5c3a06efaa"
        }
      }, {
        "item": {
          "reference": "urn:uuid:9b7281b1-8ffe-4ca1-979b-7eda40cf80ac"
        }
      }, {
        "item": {
          "reference": "urn:uuid:20fa2be5-8ba5-4602-b71a-1286a7734667"
        }
      }, {
        "item": {
          "reference": "urn:uuid:b41b2504-26aa-4740-a279-a069d4b380f0"
        }
      }, {
        "item": {
          "reference": "urn:uuid:f461a108-74c1-45e3-a8bf-460563ed1803"
        }
      }, {
        "item": {
          "reference": "urn:uuid:70d6835f-b049-49e9-8471-4b49dd5bfb25"
        }
      }, {
        "item": {
          "reference": "urn:uuid:9b936fdb-d5c0-46f9-86d1-868d0c14d9c1"
        }
      }, {
        "item": {
          "reference": "urn:uuid:e38fb875-0cb0-44df-bb1b-54790a6ab95c"
        }
      }, {
        "item": {
          "reference": "urn:uuid:fa6be22a-e7e2-43b3-8b1c-b641810e0419"
        }
      }, {
        "item": {
          "reference": "urn:uuid:f64e750c-d34f-4d7d-9706-97200f04f08e"
        }
      }, {
        "item": {
          "reference": "urn:uuid:8c89beb9-7948-4c1e-9cf1-dd70d2a564d3"
        }
      }, {
        "item": {
          "reference": "urn:uuid:6e7a1205-b36a-4ce3-99f3-bfb955b5afed"
        }
      }, {
        "item": {
          "reference": "urn:uuid:251133e2-01ad-4756-909b-b3ab13bd5287"
        }
      }, {
        "item": {
          "reference": "urn:uuid:6cb085b5-2d85-44b2-b2c3-13d5cc7ad010"
        }
      }, {
        "item": {
          "reference": "urn:uuid:a1bc9e0c-8d47-4253-b4d2-29c8ce6df556"
        }
      }, {
        "item": {
          "reference": "urn:uuid:403b3a6b-e6c5-4e57-b6ac-7f7c7cd5ba6d"
        }
      }, {
        "item": {
          "reference": "urn:uuid:1f39e32c-ea92-4064-8206-6a8dca2d5c31"
        }
      }, {
        "item": {
          "reference": "urn:uuid:661da75f-38a2-412d-8c55-ee74a84f1868"
        }
      }, {
        "item": {
          "reference": "urn:uuid:2cc97b34-4c9a-4176-a7eb-51b92581b2cc"
        }
      }, {
        "item": {
          "reference": "urn:uuid:0f06746c-4e37-47dd-b223-6cd29fa45017"
        }
      }, {
        "item": {
          "reference": "urn:uuid:d07225de-e889-45f5-9520-ea2da7081ded"
        }
      }, {
        "item": {
          "reference": "urn:uuid:9bbe737c-01c4-4ec4-8ddb-af6177b7175d"
        }
      }, {
        "item": {
          "reference": "urn:uuid:230d43a8-0161-4b90-917f-294b56e76030"
        }
      }, {
        "item": {
          "reference": "urn:uuid:b5f8c7cb-0c65-4e19-831b-d452c53a39f9"
        }
      }, {
        "item": {
          "reference": "urn:uuid:3d7724d7-6d30-4272-8673-e916eb2d5cd7"
        }
      }, {
        "item": {
          "reference": "urn:uuid:55dca9d8-b6ed-4113-bf07-f2f18addc605"
        }
      }, {
        "item": {
          "reference": "urn:uuid:b5cb55e7-f77e-4f97-a2ce-bb117451a5a7"
        }
      }, {
        "item": {
          "reference": "urn:uuid:bb9477fb-926a-4daa-82ff-7becae5eb2d8"
        }
      }, {
        "item": {
          "reference": "urn:uuid:bfabca42-c203-4e92-b7f7-a35ee4d1ab32"
        }
      }, {
        "item": {
          "reference": "urn:uuid:fb90b5b4-3a76-4c69-a219-d85b173ddf68"
        }
      }, {
        "item": {
          "reference": "urn:uuid:37729514-d357-4647-98b8-97e2d4c9a67a"
        }
      }, {
        "item": {
          "reference": "urn:uuid:fab822b0-b638-4860-bb0f-d93030ad0fd6"
        }
      }, {
        "item": {
          "reference": "urn:uuid:6dfc7821-e8a6-4664-9fa5-905903ef01eb"
        }
      }, {
        "item": {
          "reference": "urn:uuid:30686d51-41d7-47f9-9f2c-c4deac647cb6"
        }
      }, {
        "item": {
          "reference": "urn:uuid:a2d2b8ea-80c7-4c92-8917-638d28ebec90"
        }
      }, {
        "item": {
          "reference": "urn:uuid:8f6cebeb-bf1e-4069-8e3c-53cc1aedbd5b"
        }
      }, {
        "item": {
          "reference": "urn:uuid:90e60f01-c66e-4bc7-8df6-8185a6406b32"
        }
      }, {
        "item": {
          "reference": "urn:uuid:d0cd6ef7-f4c4-4b41-af8b-b5455c527072"
        }
      }, {
        "item": {
          "reference": "urn:uuid:17cf340a-24ff-42af-bbcd-4e5eca98b1ee"
        }
      }, {
        "item": {
          "reference": "urn:uuid:8d2eef95-d42f-43f6-bf60-a377f2cc4427"
        }
      }, {
        "item": {
          "reference": "urn:uuid:253d43c4-896b-4875-b3ea-e9e9258a588a"
        }
      }, {
        "item": {
          "reference": "urn:uuid:00261dbd-a7dc-44c7-a258-bbb5e62644e8"
        }
      }, {
        "item": {
          "reference": "urn:uuid:82e14a4d-dd1e-4eb7-affa-e1a4b597fe1d"
        }
      }, {
        "item": {
          "reference": "urn:uuid:dcd9062f-abf6-4a97-9f02-e3bfd6c06429"
        }
      }, {
        "item": {
          "reference": "urn:uuid:4b275d84-e51c-4fdf-9fb6-0874d4f29d80"
        }
      }, {
        "item": {
          "reference": "urn:uuid:53ed0426-1204-4edd-a308-d787da2849c1"
        }
      }, {
        "item": {
          "reference": "urn:uuid:655a2419-98c1-444f-803d-0221bdc794d0"
        }
      }, {
        "item": {
          "reference": "urn:uuid:8d94aaee-783d-45a2-87b6-e38ed43ce472"
        }
      }, {
        "item": {
          "reference": "urn:uuid:5cb6ccc3-710b-4e3c-9dfe-63803b4ba9f6"
        }
      }, {
        "item": {
          "reference": "urn:uuid:0a3b70ed-02ce-4f4b-80a5-4e3e0e462d79"
        }
      }, {
        "item": {
          "reference": "urn:uuid:783f4eb2-2bdf-4b7c-82d8-c555299f1554"
        }
      }, {
        "item": {
          "reference": "urn:uuid:88e16081-2738-4ec6-bec2-3592eab6e4d1"
        }
      }, {
        "item": {
          "reference": "urn:uuid:63e720e0-c476-46b4-8fa6-1ae44a93e2ce"
        }
      }, {
        "item": {
          "reference": "urn:uuid:71762f9e-e7ec-40a8-a25c-2eb30399d4ff"
        }
      }, {
        "item": {
          "reference": "urn:uuid:d50616f6-3a39-492c-b099-e20db7c0a407"
        }
      }, {
        "item": {
          "reference": "urn:uuid:4ff6efb7-b0c5-4814-8c31-e203b99bcf34"
        }
      }, {
        "item": {
          "reference": "urn:uuid:1f128350-f035-4b45-8380-f79349c610f9"
        }
      }, {
        "item": {
          "reference": "urn:uuid:5c3d7c68-9cdb-49ab-95b3-eeea33695387"
        }
      }, {
        "item": {
          "reference": "urn:uuid:1ba87af6-c7b2-4bdc-a5d9-42473e9546c9"
        }
      }, {
        "item": {
          "reference": "urn:uuid:e4561d48-c202-41c8-b256-b4e5b34fdf41"
        }
      }, {
        "item": {
          "reference": "urn:uuid:f975f727-b737-4b11-8ccc-2e5eb67d66ff"
        }
      }, {
        "item": {
          "reference": "urn:uuid:8a35480a-c869-4e8f-bdd2-07a6b5b3a3cc"
        }
      }, {
        "item": {
          "reference": "urn:uuid:bb82cd99-a8c3-4206-b4ed-02441790ae55"
        }
      }, {
        "item": {
          "reference": "urn:uuid:1fa5f35e-5b9e-4799-b3a1-38f4c9feaec2"
        }
      }, {
        "item": {
          "reference": "urn:uuid:e539f59b-10b9-415b-8d43-147dfa81c915"
        }
      }, {
        "item": {
          "reference": "urn:uuid:e706ff7d-72ef-4ecd-bd5e-db150f8fa8f2"
        }
      }, {
        "item": {
          "reference": "urn:uuid:4a4aba77-888f-4fea-8f95-709275b0a369"
        }
      }, {
        "item": {
          "reference": "urn:uuid:b208d6ae-c630-499d-8faf-31ff1ed6c5c0"
        }
      }, {
        "item": {
          "reference": "urn:uuid:87695582-d61b-4fee-8854-90045a291b4e"
        }
      }, {
        "item": {
          "reference": "urn:uuid:dab5d920-5b49-4f98-88e2-c92b29661923"
        }
      }, {
        "item": {
          "reference": "urn:uuid:0cbe9662-0eb6-48e5-8340-48b5b35d4cd8"
        }
      }, {
        "item": {
          "reference": "urn:uuid:b0ed8c6a-97f8-4c8e-8755-b35829c2a6b6"
        }
      }, {
        "item": {
          "reference": "urn:uuid:3a98eddc-7338-4bea-9289-ad40474583c4"
        }
      }, {
        "item": {
          "reference": "urn:uuid:d777ec34-a50d-46fd-b78e-5b29a55098c7"
        }
      }, {
        "item": {
          "reference": "urn:uuid:e173f12c-4f97-469d-a20f-0c19a70035be"
        }
      }, {
        "item": {
          "reference": "urn:uuid:70620e09-4c7a-4a08-b3f2-887e8f9b00af"
        }
      }, {
        "item": {
          "reference": "urn:uuid:3ac8de1d-7f08-4295-968d-a01432171c6f"
        }
      }, {
        "item": {
          "reference": "urn:uuid:5317fcd2-c929-4201-b98c-f8a208782748"
        }
      }, {
        "item": {
          "reference": "urn:uuid:186aa4ee-e699-4abf-ad05-fea7eee0a0b1"
        }
      }, {
        "item": {
          "reference": "urn:uuid:e530b312-e859-4dc2-a219-21c4e810a32c"
        }
      }, {
        "item": {
          "reference": "urn:uuid:ef36af49-32f7-4060-8444-086eed5fc1d6"
        }
      }, {
        "item": {
          "reference": "urn:uuid:e24dff92-a70f-4b12-9365-d74b5b8cae28"
        }
      }, {
        "item": {
          "reference": "urn:uuid:f9941e8b-b0e8-4ec5-99f7-7811264dc02a"
        }
      }, {
        "item": {
          "reference": "urn:uuid:d9903c83-a25f-465e-bd8f-d3c387ecce0f"
        }
      }, {
        "item": {
          "reference": "urn:uuid:be74eeeb-0147-4639-a697-d0ce7260730a"
        }
      }, {
        "item": {
          "reference": "urn:uuid:93612b46-8fb6-419e-a558-42d0e2a8cadf"
        }
      }, {
        "item": {
          "reference": "urn:uuid:b16b0e6a-f68b-490c-a6b6-72d33871fe74"
        }
      }, {
        "item": {
          "reference": "urn:uuid:8a91f1e0-fd92-4f21-aa66-a18447dc936f"
        }
      }, {
        "item": {
          "reference": "urn:uuid:eafbea8e-5842-4a81-8c3e-698e56d78884"
        }
      }, {
        "item": {
          "reference": "urn:uuid:e4afde8a-f82b-41c8-ba66-2723fda6d294"
        }
      }, {
        "item": {
          "reference": "urn:uuid:f409518b-931a-44ce-b094-f2730e22375f"
        }
      }, {
        "item": {
          "reference": "urn:uuid:138f81e3-f2fd-4b84-8097-1ba1218ab7e9"
        }
      }, {
        "item": {
          "reference": "urn:uuid:430cac45-425c-41ef-8662-d5a216c70266"
        }
      }, {
        "item": {
          "reference": "urn:uuid:aff688ff-b672-498e-bfd6-9c9e53d6d471"
        }
      }, {
        "item": {
          "reference": "urn:uuid:cc02913a-634b-4de2-b785-f5b5f6d40fca"
        }
      }, {
        "item": {
          "reference": "urn:uuid:e8234038-8af5-4250-b57b-a7574a267a3b"
        }
      }, {
        "item": {
          "reference": "urn:uuid:a637a8f7-17b3-4db5-85c3-c5c12a49b7ea"
        }
      } ]
    }
  } ]
}