{
  "resourceType": "Bundle",
  "identifier": {
    "type": {
      "text": "ClinicalDocument VersionNumber"
    },
    "value": "1"
  },
  "type": "message",
  "entry": [ {
    "fullUrl": "urn:uuid:2F182787-CA39-46F8-9B1C-8E77F3050067",
    "resource": {
      "resourceType": "MessageHeader",
      "id": "2F182787-CA39-46F8-9B1C-8E77F3050067",
      "event": {
        "system": "https://fhir.nhs.uk/STU3/CodeSystem/EventType-1",
        "code": "referral-1",
        "display": "Referral"
      },
      "destination": [ {
        "endpoint": "urn:nhs-uk:addressing:ods:FDH68RPX:DOSServiceID:2000038407"
      } ],
      "timestamp": "2021-04-06T11:29:27.000+00:00",
      "source": {
        "name": "NHS 111 Adaptor",
        "endpoint": "http://localhost:8080/report"
      },
      "reason": {
        "coding": [ {
          "system": "urn:nhs-itk:ns:201005:interaction",
          "code": "urn:nhs-itk:interaction:primaryOutofHourRecipientNHS111CDADocument-v2-0"
        } ]
      }
    }
  }, {
    "fullUrl": "urn:uuid:0dde3687-b3af-4b3c-a941-eb28f6148755",
    "resource": {
      "resourceType": "Encounter",
      "id": "0dde3687-b3af-4b3c-a941-eb28f6148755",
      "identifier": [ {
        "system": "2.16.840.1.113883.2.1.3.2.4.18.34",
        "value": "CAC4BF79-AF64-47E2-8162-53438279E2F9"
      }, {
        "system": "2.16.840.1.113883.2.1.3.2.4.18.35",
        "value": "59263"
      }, {
        "system": "2.16.840.1.113883.2.1.3.2.4.18.49",
        "value": "CAC4BF79-AF64-47E2-8162-53438279E2F9"
      } ],
      "status": "finished",
      "type": [ {
        "text": "111 Encounter Referral"
      } ],
      "subject": {
        "reference": "urn:uuid:de51c35d-1c96-44cd-90fd-2d79e9522955"
      },
      "participant": [ {
        "type": [ {
          "coding": [ {
            "system": "http://hl7.org/fhir/ValueSet/encounter-participant-type",
            "code": "PPRF",
            "display": "Author"
          } ]
        } ],
        "individual": {
          "reference": "urn:uuid:a734abe1-beec-4e55-a6dd-9b1cbbda6f63"
        }
      }, {
        "type": [ {
          "text": "Informant"
        } ],
        "individual": {
          "reference": "urn:uuid:968f47e4-029d-4567-b0b3-a7e74a408bc6"
        }
      }, {
        "type": [ {
          "coding": [ {
            "system": "http://hl7.org/fhir/ValueSet/encounter-participant-type",
            "code": "ATND",
            "display": "Responsible Party"
          } ]
        } ],
        "individual": {
          "reference": "urn:uuid:1b8e4491-53ed-40e2-bf8c-37eb4b68ac42"
        }
      } ],
      "period": {
        "start": "2021-04-06T11:29:27+00:00"
      },
      "location": [ {
        "location": {
          "reference": "urn:uuid:1ea9b5e3-f11d-46a4-af4d-20555f5226ad"
        },
        "status": "completed"
      } ],
      "serviceProvider": {
        "reference": "urn:uuid:fb62b585-acd9-43e5-9030-f3d1d50e26e6"
      }
    }
  }, {
    "fullUrl": "urn:uuid:fb62b585-acd9-43e5-9030-f3d1d50e26e6",
    "resource": {
      "resourceType": "Organization",
      "id": "fb62b585-acd9-43e5-9030-f3d1d50e26e6",
      "active": true,
      "type": [ {
        "text": "CST"
      } ],
      "name": "SCAS111"
    }
  }, {
    "fullUrl": "urn:uuid:a734abe1-beec-4e55-a6dd-9b1cbbda6f63",
    "resource": {
      "resourceType": "Practitioner",
      "id": "a734abe1-beec-4e55-a6dd-9b1cbbda6f63",
      "active": true,
      "name": [ {
        "use": "official",
        "family": "Hadfield",
        "given": [ "Ryan" ]
      } ]
    }
  }, {
    "fullUrl": "urn:uuid:968f47e4-029d-4567-b0b3-a7e74a408bc6",
    "resource": {
      "resourceType": "RelatedPerson",
      "id": "968f47e4-029d-4567-b0b3-a7e74a408bc6",
      "active": true,
      "patient": {
        "reference": "urn:uuid:de51c35d-1c96-44cd-90fd-2d79e9522955"
      },
      "relationship": {
        "coding": [ {
          "system": "2.16.840.1.113883.2.1.3.2.4.16.45",
          "code": "99",
          "display": "Not specified"
        } ]
      },
      "name": [ {
        "text": "Test Caller (Carer - Home)"
      } ],
      "telecom": [ {
        "system": "phone",
        "value": "tel:07777888888",
        "use": "home"
      } ],
      "gender": "unknown"
    }
  }, {
    "fullUrl": "urn:uuid:1b8e4491-53ed-40e2-bf8c-37eb4b68ac42",
    "resource": {
      "resourceType": "Practitioner",
      "id": "1b8e4491-53ed-40e2-bf8c-37eb4b68ac42",
      "active": true,
      "name": [ {
        "use": "official",
        "family": "Black",
        "given": [ "John" ]
      } ]
    }
  }, {
    "fullUrl": "urn:uuid:1ea9b5e3-f11d-46a4-af4d-20555f5226ad",
    "resource": {
      "resourceType": "Location",
      "id": "1ea9b5e3-f11d-46a4-af4d-20555f5226ad",
      "name": "Incident Location",
      "address": {
        "type": "physical",
        "line": [ "12A", "Otter Close", "Bishopstoke", "Eastleigh", "Hampshire" ],
        "postalCode": "SO50 8NF"
      }
    }
  }, {
    "fullUrl": "urn:uuid:de51c35d-1c96-44cd-90fd-2d79e9522955",
    "resource": {
      "resourceType": "Patient",
      "id": "de51c35d-1c96-44cd-90fd-2d79e9522955",
      "identifier": [ {
        "extension": [ {
          "url": "https://fhir.hl7.org.uk/STU3/StructureDefinition/Extension-CareConnect-NHSNumberVerificationStatus-1",
          "valueCodeableConcept": {
            "coding": [ {
              "system": "https://fhir.hl7.org.uk/STU3/StructureDefinition/Extension-CareConnect-NHSNumberVerificationStatus-1",
              "code": "02"
            } ]
          }
        } ],
        "system": "https://fhir.nhs.uk/Id/nhs-number",
        "value": "0000000000"
      } ],
      "active": true,
      "name": [ {
        "use": "official",
        "family": "Testone",
        "given": [ "Test" ]
      } ],
      "telecom": [ {
        "system": "phone",
        "value": "tel:000000000000",
        "use": "home"
      }, {
        "system": "phone",
        "value": "tel:01111111111",
        "use": "mobile"
      }, {
        "system": "phone",
        "value": "tel:000000000000"
      } ],
      "gender": "female",
      "birthDate": "1980-01-01",
      "address": [ {
        "use": "home",
        "line": [ "Southern House", "Sparrowgrove", "Otterbourne", "Winchester", "Hampshire" ],
        "postalCode": "SO21 2RU"
      }, {
        "type": "physical",
        "line": [ "12A", "Otter Close", "Bishopstoke", "Eastleigh", "Hampshire" ],
        "postalCode": "SO50 8NF"
      } ]
    }
  }, {
    "fullUrl": "urn:uuid:51dd558e-9a24-4806-b670-84b446acdb62",
    "resource": {
      "resourceType": "HealthcareService",
      "id": "51dd558e-9a24-4806-b670-84b446acdb62",
      "active": true,
      "providedBy": {
        "reference": "urn:uuid:df972d49-fbaa-4c74-9638-70fa0c2e0d1b"
      },
      "location": [ {
        "reference": "urn:uuid:9ad4dc26-fac2-421a-8a17-b6f21c29fba3"
      } ],
      "name": "Lloyds Pharmacy, Stokewood Close, Fair Oak, Eastleigh"
    }
  }, {
    "fullUrl": "urn:uuid:9ad4dc26-fac2-421a-8a17-b6f21c29fba3",
    "resource": {
      "resourceType": "Location",
      "id": "9ad4dc26-fac2-421a-8a17-b6f21c29fba3",
      "managingOrganization": {
        "reference": "urn:uuid:df972d49-fbaa-4c74-9638-70fa0c2e0d1b"
      }
    }
  }, {
    "fullUrl": "urn:uuid:df972d49-fbaa-4c74-9638-70fa0c2e0d1b",
    "resource": {
      "resourceType": "Organization",
      "id": "df972d49-fbaa-4c74-9638-70fa0c2e0d1b",
      "identifier": [ {
        "value": "FDH68RPX"
      } ],
      "type": [ {
        "coding": [ {
          "code": "PRCP",
          "display": "Lloyds Pharmacy, Stokewood Close, Fair Oak, Eastleigh"
        } ]
      } ],
      "name": "Lloyds Pharmacy, Stokewood Close, Fair Oak, Eastleigh"
    }
  }, {
    "fullUrl": "urn:uuid:b7d91b4a-ed91-46b3-b276-eb84f8dbe46d",
    "resource": {
      "resourceType": "ReferralRequest",
      "id": "b7d91b4a-ed91-46b3-b276-eb84f8dbe46d",
      "status": "active",
      "intent": "plan",
      "priority": "routine",
      "subject": {
        "reference": "urn:uuid:de51c35d-1c96-44cd-90fd-2d79e9522955"
      },
      "context": {
        "reference": "urn:uuid:0dde3687-b3af-4b3c-a941-eb28f6148755"
      },
      "occurrencePeriod": {
        "start": "2022-05-05T07:31:35+00:00",
        "end": "2022-05-05T08:31:35+00:00"
      },
      "authoredOn": "2021-04-06T11:29:25+00:00",
      "requester": {
        "agent": {
          "reference": "urn:uuid:80dce93c-fb0c-492e-8d14-d15f44ea8c07"
        },
        "onBehalfOf": {
          "reference": "urn:uuid:fb62b585-acd9-43e5-9030-f3d1d50e26e6"
        }
      },
      "recipient": [ {
        "reference": "urn:uuid:51dd558e-9a24-4806-b670-84b446acdb62"
      } ],
      "reasonReference": [ {
        "reference": "urn:uuid:2d0dc798-8668-47c5-aa12-7b1c1cf6ba24"
      } ],
      "supportingInfo": [ {
        "reference": "urn:uuid:02b5dd29-0ab0-45eb-a995-9a2d6c885c26"
      } ]
    }
  }, {
    "fullUrl": "urn:uuid:02b5dd29-0ab0-45eb-a995-9a2d6c885c26",
    "resource": {
      "resourceType": "ProcedureRequest",
      "id": "02b5dd29-0ab0-45eb-a995-9a2d6c885c26",
      "status": "active",
      "intent": "plan",
      "priority": "routine",
      "doNotPerform": false,
      "code": {
        "coding": [ {
          "system": "2.16.840.1.113883.2.1.3.2.4.17.325",
          "code": "Dx86",
          "display": "Repeat Prescription required within 12 hours"
        } ]
      },
      "subject": {
        "reference": "urn:uuid:de51c35d-1c96-44cd-90fd-2d79e9522955"
      },
      "occurrencePeriod": {
        "start": "2022-05-05T07:31:35+00:00",
        "end": "2022-05-05T08:31:35+00:00"
      },
      "reasonReference": [ {
        "reference": "urn:uuid:2d0dc798-8668-47c5-aa12-7b1c1cf6ba24"
      } ]
    }
  }, {
    "fullUrl": "urn:uuid:6d0a5fcc-2616-47f4-8601-7981ca87dd84",
    "resource": {
      "resourceType": "Composition",
      "id": "6d0a5fcc-2616-47f4-8601-7981ca87dd84",
      "identifier": {
        "use": "usual",
        "value": "B66502CD-A9B4-4F3E-83EB-981F572C2C91"
      },
      "status": "final",
      "type": {
        "coding": [ {
          "system": "http://snomed.info/sct",
          "code": "371531000",
          "display": "Report of clinical encounter (record artifact)"
        } ]
      },
      "subject": {
        "reference": "urn:uuid:de51c35d-1c96-44cd-90fd-2d79e9522955"
      },
      "encounter": {
        "reference": "urn:uuid:0dde3687-b3af-4b3c-a941-eb28f6148755"
      },
      "date": "2021-04-06T11:29:27+00:00",
      "author": [ {
        "reference": "urn:uuid:a734abe1-beec-4e55-a6dd-9b1cbbda6f63"
      } ],
      "title": "111 Report",
      "confidentiality": "N",
      "section": [ {
        "section": [ {
          "title": "Patient's Reported Condition",
          "text": {
            "status": "generated",
            "div": "<div xmlns=\"http://www.w3.org/1999/xhtml\">&lt;content&gt;test&lt;/content&gt;\n                                                    &lt;br/&gt;</div>"
          }
        }, {
          "title": "Pathways Disposition",
          "text": {
            "status": "generated",
            "div": "<div xmlns=\"http://www.w3.org/1999/xhtml\">Repeat Prescription required within 12 hours (Dx86)                                         &lt;br/&gt;\n                                                    &lt;br/&gt;                                         Selected service: Lloyds Pharmacy, Stokewood Close, Fair Oak, Eastle&lt;br/&gt;</div>"
          }
        }, {
          "title": "Consultation Summary",
          "text": {
            "status": "generated",
            "div": "<div xmlns=\"http://www.w3.org/1999/xhtml\">Prescription request&lt;br/&gt;Not enough medication until surgery opens&lt;br/&gt;No medication available&lt;br/&gt;Next dose due within next 12 hours&lt;br/&gt;</div>"
          }
        }, {
          "title": "Pathways Assessment",
          "text": {
            "status": "generated",
            "div": "<div xmlns=\"http://www.w3.org/1999/xhtml\">Reason for call menu - continued to next list.&lt;br/&gt;A prescription request was the main reason for the contact.&lt;br/&gt;The main reason for the contact was not a new or worsening illness.&lt;br/&gt;The individual did not have enough medication to last until the surgery next opened.&lt;br/&gt;The medication was suitable for repeat prescribing without further consultation.&lt;br/&gt;The individual had no medication available.&lt;br/&gt;The next dose was due within 12 hours.&lt;br/&gt;Instructions given were: The individual needs a repeat prescription.&lt;br/&gt;Directory of Services referral: Lloyds Pharmacy, Stokewood Close, Fair Oak, Eastleigh&lt;br/&gt;</div>"
          }
        }, {
          "title": "Advice Given",
          "text": {
            "status": "generated",
            "div": "<div xmlns=\"http://www.w3.org/1999/xhtml\">IF THE RECOMMENDED TIMEFRAME FALLS OUTSIDE OPENING HOURS: I will arrange for a clinician to speak to the individual.&lt;br/&gt;\n                                                    &lt;br/&gt;</div>"
          }
        }, {
          "title": "Information And Advice Given"
        }, {
          "title": "Disposition",
          "text": {
            "status": "generated",
            "div": "<div xmlns=\"http://www.w3.org/1999/xhtml\">&lt;content&gt;Repeat Prescription required within 12 hours&lt;br/&gt;\n                                                    &lt;/content&gt;\n                                                    &lt;br/&gt;\n                                                    &lt;br/&gt;</div>"
          }
        } ]
      }, {
        "title": "CarePlan",
        "entry": [ {
          "reference": "urn:uuid:bdb4def9-0333-4719-930c-0c68496d7800"
        } ]
      }, {
        "title": "ReferralRequest",
        "entry": [ {
          "reference": "urn:uuid:b7d91b4a-ed91-46b3-b276-eb84f8dbe46d"
        } ]
      }, {
        "title": "QuestionnaireResponse",
        "entry": [ {
          "reference": "urn:uuid:4d3e97a5-ad04-47c5-978b-80cd10befbe4"
        } ]
      }, {
        "title": "QuestionnaireResponse",
        "entry": [ {
          "reference": "urn:uuid:d72fe845-fc18-4ce5-95cf-287957a1ac91"
        } ]
      }, {
        "title": "QuestionnaireResponse",
        "entry": [ {
          "reference": "urn:uuid:4bdba4e4-48df-40a7-af96-c4081b079b8e"
        } ]
      }, {
        "title": "QuestionnaireResponse",
        "entry": [ {
          "reference": "urn:uuid:4327a09f-c92a-49b5-a02f-0d3205d0ca17"
        } ]
      }, {
        "title": "QuestionnaireResponse",
        "entry": [ {
          "reference": "urn:uuid:6b320d36-81fb-4e42-b159-36a007b80115"
        } ]
      }, {
        "title": "QuestionnaireResponse",
        "entry": [ {
          "reference": "urn:uuid:3304c30b-0455-4931-9081-fdf2c4445cf7"
        } ]
      }, {
        "title": "QuestionnaireResponse",
        "entry": [ {
          "reference": "urn:uuid:144acec6-664e-4efd-a803-b07ce6a78c0a"
        } ]
      }, {
        "title": "QuestionnaireResponse",
        "entry": [ {
          "reference": "urn:uuid:f18a0223-5722-441d-80bd-66e3ec80e396"
        } ]
      }, {
        "title": "QuestionnaireResponse",
        "entry": [ {
          "reference": "urn:uuid:beb67548-7aec-446c-aac5-24d519f17f95"
        } ]
      }, {
        "title": "QuestionnaireResponse",
        "entry": [ {
          "reference": "urn:uuid:001414c6-d1cb-413c-81e6-e14bd107b720"
        } ]
      }, {
        "title": "QuestionnaireResponse",
        "entry": [ {
          "reference": "urn:uuid:1bc2d947-4a83-4766-a995-e5631e88e436"
        } ]
      }, {
        "title": "QuestionnaireResponse",
        "entry": [ {
          "reference": "urn:uuid:8cac2282-a467-4bc0-ab93-8b68f4b90860"
        } ]
      }, {
        "title": "QuestionnaireResponse",
        "entry": [ {
          "reference": "urn:uuid:437ea2d0-e286-4887-91ed-685d152d1f95"
        } ]
      }, {
        "title": "QuestionnaireResponse",
        "entry": [ {
          "reference": "urn:uuid:76ce61cd-bc01-4d4b-ac12-670c0de00950"
        } ]
      }, {
        "title": "QuestionnaireResponse",
        "entry": [ {
          "reference": "urn:uuid:ea72de75-af34-40d9-a57a-663d4c2f44f6"
        } ]
      }, {
        "title": "QuestionnaireResponse",
        "entry": [ {
          "reference": "urn:uuid:52a6e4e8-ebe3-498c-bf6a-e19bbf489825"
        } ]
      }, {
        "title": "QuestionnaireResponse",
        "entry": [ {
          "reference": "urn:uuid:de1bc78c-6600-441c-a853-1563543d2383"
        } ]
      }, {
        "title": "QuestionnaireResponse",
        "entry": [ {
          "reference": "urn:uuid:387755c3-ac65-47bc-a3cc-60c7c0d55518"
        } ]
      }, {
        "title": "QuestionnaireResponse",
        "entry": [ {
          "reference": "urn:uuid:bd64641d-2210-456f-8329-ef8a6b5b4e4f"
        } ]
      }, {
        "title": "QuestionnaireResponse",
        "entry": [ {
          "reference": "urn:uuid:d6e8d82a-ab69-4c18-b54d-d88b710797a4"
        } ]
      }, {
        "title": "QuestionnaireResponse",
        "entry": [ {
          "reference": "urn:uuid:097f91bb-9e63-4195-bec4-a51e28bb2245"
        } ]
      }, {
        "title": "QuestionnaireResponse",
        "entry": [ {
          "reference": "urn:uuid:c2766212-622a-45df-b77d-41e0c85dee16"
        } ]
      }, {
        "title": "QuestionnaireResponse",
        "entry": [ {
          "reference": "urn:uuid:0c5dc9fe-dbd6-4351-956a-108bde248524"
        } ]
      }, {
        "title": "QuestionnaireResponse",
        "entry": [ {
          "reference": "urn:uuid:35bb456a-6387-48dd-9e44-a6d704eb9924"
        } ]
      }, {
        "title": "QuestionnaireResponse",
        "entry": [ {
          "reference": "urn:uuid:533ec447-e067-4442-b609-502134032dd8"
        } ]
      }, {
        "title": "QuestionnaireResponse",
        "entry": [ {
          "reference": "urn:uuid:27cc8169-513d-4aff-a673-06e9563dcdf0"
        } ]
      }, {
        "title": "QuestionnaireResponse",
        "entry": [ {
          "reference": "urn:uuid:4dc414bf-4bbb-4ca7-ac01-6afa1fecae0a"
        } ]
      }, {
        "title": "QuestionnaireResponse",
        "entry": [ {
          "reference": "urn:uuid:fc6eb536-105e-4bf7-b4ad-03f5548781d3"
        } ]
      }, {
        "title": "QuestionnaireResponse",
        "entry": [ {
          "reference": "urn:uuid:03f3112a-4187-4e5c-ae0d-4b56fdb781ef"
        } ]
      }, {
        "title": "QuestionnaireResponse",
        "entry": [ {
          "reference": "urn:uuid:f4f60c21-9e75-425d-8fab-e2d4a4c49838"
        } ]
      }, {
        "title": "QuestionnaireResponse",
        "entry": [ {
          "reference": "urn:uuid:9727c7ea-99f7-42e6-acb9-1dc05ec14c48"
        } ]
      }, {
        "title": "QuestionnaireResponse",
        "entry": [ {
          "reference": "urn:uuid:dc9f517f-dfb7-49fd-8f75-756aed060db6"
        } ]
      }, {
        "title": "QuestionnaireResponse",
        "entry": [ {
          "reference": "urn:uuid:6e4e93b8-ec65-4341-80e3-9bb832d9ad61"
        } ]
      }, {
        "title": "QuestionnaireResponse",
        "entry": [ {
          "reference": "urn:uuid:846f1601-f13a-443f-b284-240191c7a703"
        } ]
      }, {
        "title": "QuestionnaireResponse",
        "entry": [ {
          "reference": "urn:uuid:ebb66753-2612-4e14-8c0a-056c4696bd1d"
        } ]
      }, {
        "title": "QuestionnaireResponse",
        "entry": [ {
          "reference": "urn:uuid:914dea27-d838-426b-b5bd-11ce526544b0"
        } ]
      }, {
        "title": "QuestionnaireResponse",
        "entry": [ {
          "reference": "urn:uuid:71eb48f2-1bef-4a3a-bc5f-1f6701c7339b"
        } ]
      }, {
        "title": "QuestionnaireResponse",
        "entry": [ {
          "reference": "urn:uuid:609bbdf4-54c9-43d2-98a8-485af6d4d4a5"
        } ]
      }, {
        "title": "QuestionnaireResponse",
        "entry": [ {
          "reference": "urn:uuid:9d88c1f3-a17e-45fb-93af-5f8127adf9e2"
        } ]
      }, {
        "title": "QuestionnaireResponse",
        "entry": [ {
          "reference": "urn:uuid:e1adb1e2-8246-4c88-856c-193bb51d3996"
        } ]
      }, {
        "title": "QuestionnaireResponse",
        "entry": [ {
          "reference": "urn:uuid:aea14b5e-66a3-44c6-82f6-d8858aace17f"
        } ]
      }, {
        "title": "QuestionnaireResponse",
        "entry": [ {
          "reference": "urn:uuid:ce821950-febe-42d5-af67-ecf646693efe"
        } ]
      }, {
        "title": "QuestionnaireResponse",
        "entry": [ {
          "reference": "urn:uuid:0224fac7-5757-49b1-8abd-6cee915f695b"
        } ]
      }, {
        "title": "QuestionnaireResponse",
        "entry": [ {
          "reference": "urn:uuid:abb5ddff-9c19-478a-8b66-3c89f9800c51"
        } ]
      }, {
        "title": "QuestionnaireResponse",
        "entry": [ {
          "reference": "urn:uuid:5baafaa9-b725-4a2d-8c24-b271c324e8fd"
        } ]
      }, {
        "title": "QuestionnaireResponse",
        "entry": [ {
          "reference": "urn:uuid:fa3ddd4d-171d-42fc-b586-01e4fcb9fc32"
        } ]
      }, {
        "title": "QuestionnaireResponse",
        "entry": [ {
          "reference": "urn:uuid:8bf6dcf0-c0bb-4b85-a2f0-0d3330289195"
        } ]
      }, {
        "title": "QuestionnaireResponse",
        "entry": [ {
          "reference": "urn:uuid:6169c260-60b7-456d-864c-cd2e57eb147f"
        } ]
      }, {
        "title": "QuestionnaireResponse",
        "entry": [ {
          "reference": "urn:uuid:389eb8e5-97cd-4e26-bd06-9d9c495d6b53"
        } ]
      }, {
        "title": "QuestionnaireResponse",
        "entry": [ {
          "reference": "urn:uuid:d5512387-e8b4-4d7e-8b2a-590639656528"
        } ]
      }, {
        "title": "QuestionnaireResponse",
        "entry": [ {
          "reference": "urn:uuid:38da3fd0-9f3b-4ece-83cb-232184798cba"
        } ]
      }, {
        "title": "QuestionnaireResponse",
        "entry": [ {
          "reference": "urn:uuid:c58cce4e-1113-4d1e-bbae-fb0e56415bb5"
        } ]
      }, {
        "title": "QuestionnaireResponse",
        "entry": [ {
          "reference": "urn:uuid:3c61966b-7a9d-4f82-8422-83e5b5843fa7"
        } ]
      }, {
        "title": "QuestionnaireResponse",
        "entry": [ {
          "reference": "urn:uuid:75e7d6a9-1d06-41b4-954d-fae858fe81f2"
        } ]
      }, {
        "title": "QuestionnaireResponse",
        "entry": [ {
          "reference": "urn:uuid:36d5bd56-caff-46a9-82f8-2c02aa3e1019"
        } ]
      }, {
        "title": "QuestionnaireResponse",
        "entry": [ {
          "reference": "urn:uuid:7c799a90-4748-46ca-b2f1-59a563275e6f"
        } ]
      }, {
        "title": "QuestionnaireResponse",
        "entry": [ {
          "reference": "urn:uuid:f17660fb-039f-4b82-9bab-32835d52daf2"
        } ]
      }, {
        "title": "QuestionnaireResponse",
        "entry": [ {
          "reference": "urn:uuid:9c9adc55-0296-4a1b-89ee-d13408c1afa8"
        } ]
      }, {
        "title": "QuestionnaireResponse",
        "entry": [ {
          "reference": "urn:uuid:496002d7-d590-4a61-a6fa-aa9901f705c1"
        } ]
      }, {
        "title": "QuestionnaireResponse",
        "entry": [ {
          "reference": "urn:uuid:607eff35-efa3-4f36-82e5-7ee0427ca752"
        } ]
      }, {
        "title": "QuestionnaireResponse",
        "entry": [ {
          "reference": "urn:uuid:ac6cb36c-30ba-4b5a-87e1-c7e15ccddc32"
        } ]
      } ]
    }
  }, {
    "fullUrl": "urn:uuid:bdb4def9-0333-4719-930c-0c68496d7800",
    "resource": {
      "resourceType": "CarePlan",
      "id": "bdb4def9-0333-4719-930c-0c68496d7800",
      "status": "completed",
      "intent": "plan",
      "title": "Information And Advice Given",
      "subject": {
        "reference": "urn:uuid:de51c35d-1c96-44cd-90fd-2d79e9522955"
      },
      "context": {
        "reference": "urn:uuid:0dde3687-b3af-4b3c-a941-eb28f6148755"
      },
      "period": {
        "start": "2021-04-06T11:29:27+00:00"
      },
      "addresses": [ {
        "reference": "urn:uuid:2d0dc798-8668-47c5-aa12-7b1c1cf6ba24"
      } ]
    }
  }, {
    "fullUrl": "urn:uuid:b1cf4845-123a-423e-bac1-9befecc7d3f4",
    "resource": {
      "resourceType": "Consent",
      "id": "b1cf4845-123a-423e-bac1-9befecc7d3f4",
      "identifier": {
        "use": "usual",
        "value": "B66502CD-A9B4-4F3E-83EB-981F572C2C91"
      },
      "status": "active",
      "patient": {
        "reference": "urn:uuid:de51c35d-1c96-44cd-90fd-2d79e9522955"
      },
      "period": {
        "start": "2021-04-06T11:29:27+00:00"
      },
      "consentingParty": [ {
        "reference": "urn:uuid:de51c35d-1c96-44cd-90fd-2d79e9522955"
      } ],
      "action": [ {
        "coding": [ {
          "system": "http://snomed.info/sct",
          "code": "425691002",
          "display": "Consent given for electronic record sharing"
        } ],
        "text": "Consent given for electronic record sharing"
      } ],
      "organization": [ {
        "reference": "urn:uuid:fb62b585-acd9-43e5-9030-f3d1d50e26e6"
      } ],
      "policyRule": "http://hl7.org/fhir/ConsentPolicy/opt-out",
      "data": [ {
        "meaning": "related",
        "reference": {
          "reference": "urn:uuid:0dde3687-b3af-4b3c-a941-eb28f6148755"
        }
      } ]
    }
  }, {
    "fullUrl": "urn:uuid:2d0dc798-8668-47c5-aa12-7b1c1cf6ba24",
    "resource": {
      "resourceType": "Condition",
      "id": "2d0dc798-8668-47c5-aa12-7b1c1cf6ba24",
      "clinicalStatus": "active",
      "verificationStatus": "unknown",
      "subject": {
        "reference": "urn:uuid:de51c35d-1c96-44cd-90fd-2d79e9522955"
      },
      "context": {
        "reference": "urn:uuid:0dde3687-b3af-4b3c-a941-eb28f6148755"
      },
      "evidence": [ {
        "detail": [ {
          "reference": "urn:uuid:4d3e97a5-ad04-47c5-978b-80cd10befbe4"
        } ]
      }, {
        "detail": [ {
          "reference": "urn:uuid:d72fe845-fc18-4ce5-95cf-287957a1ac91"
        } ]
      }, {
        "detail": [ {
          "reference": "urn:uuid:4bdba4e4-48df-40a7-af96-c4081b079b8e"
        } ]
      }, {
        "detail": [ {
          "reference": "urn:uuid:4327a09f-c92a-49b5-a02f-0d3205d0ca17"
        } ]
      }, {
        "detail": [ {
          "reference": "urn:uuid:6b320d36-81fb-4e42-b159-36a007b80115"
        } ]
      }, {
        "detail": [ {
          "reference": "urn:uuid:3304c30b-0455-4931-9081-fdf2c4445cf7"
        } ]
      }, {
        "detail": [ {
          "reference": "urn:uuid:144acec6-664e-4efd-a803-b07ce6a78c0a"
        } ]
      }, {
        "detail": [ {
          "reference": "urn:uuid:f18a0223-5722-441d-80bd-66e3ec80e396"
        } ]
      }, {
        "detail": [ {
          "reference": "urn:uuid:beb67548-7aec-446c-aac5-24d519f17f95"
        } ]
      }, {
        "detail": [ {
          "reference": "urn:uuid:001414c6-d1cb-413c-81e6-e14bd107b720"
        } ]
      }, {
        "detail": [ {
          "reference": "urn:uuid:1bc2d947-4a83-4766-a995-e5631e88e436"
        } ]
      }, {
        "detail": [ {
          "reference": "urn:uuid:8cac2282-a467-4bc0-ab93-8b68f4b90860"
        } ]
      }, {
        "detail": [ {
          "reference": "urn:uuid:437ea2d0-e286-4887-91ed-685d152d1f95"
        } ]
      }, {
        "detail": [ {
          "reference": "urn:uuid:76ce61cd-bc01-4d4b-ac12-670c0de00950"
        } ]
      }, {
        "detail": [ {
          "reference": "urn:uuid:ea72de75-af34-40d9-a57a-663d4c2f44f6"
        } ]
      }, {
        "detail": [ {
          "reference": "urn:uuid:52a6e4e8-ebe3-498c-bf6a-e19bbf489825"
        } ]
      }, {
        "detail": [ {
          "reference": "urn:uuid:de1bc78c-6600-441c-a853-1563543d2383"
        } ]
      }, {
        "detail": [ {
          "reference": "urn:uuid:387755c3-ac65-47bc-a3cc-60c7c0d55518"
        } ]
      }, {
        "detail": [ {
          "reference": "urn:uuid:bd64641d-2210-456f-8329-ef8a6b5b4e4f"
        } ]
      }, {
        "detail": [ {
          "reference": "urn:uuid:d6e8d82a-ab69-4c18-b54d-d88b710797a4"
        } ]
      }, {
        "detail": [ {
          "reference": "urn:uuid:097f91bb-9e63-4195-bec4-a51e28bb2245"
        } ]
      }, {
        "detail": [ {
          "reference": "urn:uuid:c2766212-622a-45df-b77d-41e0c85dee16"
        } ]
      }, {
        "detail": [ {
          "reference": "urn:uuid:0c5dc9fe-dbd6-4351-956a-108bde248524"
        } ]
      }, {
        "detail": [ {
          "reference": "urn:uuid:35bb456a-6387-48dd-9e44-a6d704eb9924"
        } ]
      }, {
        "detail": [ {
          "reference": "urn:uuid:533ec447-e067-4442-b609-502134032dd8"
        } ]
      }, {
        "detail": [ {
          "reference": "urn:uuid:27cc8169-513d-4aff-a673-06e9563dcdf0"
        } ]
      }, {
        "detail": [ {
          "reference": "urn:uuid:4dc414bf-4bbb-4ca7-ac01-6afa1fecae0a"
        } ]
      }, {
        "detail": [ {
          "reference": "urn:uuid:fc6eb536-105e-4bf7-b4ad-03f5548781d3"
        } ]
      }, {
        "detail": [ {
          "reference": "urn:uuid:03f3112a-4187-4e5c-ae0d-4b56fdb781ef"
        } ]
      }, {
        "detail": [ {
          "reference": "urn:uuid:f4f60c21-9e75-425d-8fab-e2d4a4c49838"
        } ]
      }, {
        "detail": [ {
          "reference": "urn:uuid:9727c7ea-99f7-42e6-acb9-1dc05ec14c48"
        } ]
      }, {
        "detail": [ {
          "reference": "urn:uuid:dc9f517f-dfb7-49fd-8f75-756aed060db6"
        } ]
      }, {
        "detail": [ {
          "reference": "urn:uuid:6e4e93b8-ec65-4341-80e3-9bb832d9ad61"
        } ]
      }, {
        "detail": [ {
          "reference": "urn:uuid:846f1601-f13a-443f-b284-240191c7a703"
        } ]
      }, {
        "detail": [ {
          "reference": "urn:uuid:ebb66753-2612-4e14-8c0a-056c4696bd1d"
        } ]
      }, {
        "detail": [ {
          "reference": "urn:uuid:914dea27-d838-426b-b5bd-11ce526544b0"
        } ]
      }, {
        "detail": [ {
          "reference": "urn:uuid:71eb48f2-1bef-4a3a-bc5f-1f6701c7339b"
        } ]
      }, {
        "detail": [ {
          "reference": "urn:uuid:609bbdf4-54c9-43d2-98a8-485af6d4d4a5"
        } ]
      }, {
        "detail": [ {
          "reference": "urn:uuid:9d88c1f3-a17e-45fb-93af-5f8127adf9e2"
        } ]
      }, {
        "detail": [ {
          "reference": "urn:uuid:e1adb1e2-8246-4c88-856c-193bb51d3996"
        } ]
      }, {
        "detail": [ {
          "reference": "urn:uuid:aea14b5e-66a3-44c6-82f6-d8858aace17f"
        } ]
      }, {
        "detail": [ {
          "reference": "urn:uuid:ce821950-febe-42d5-af67-ecf646693efe"
        } ]
      }, {
        "detail": [ {
          "reference": "urn:uuid:0224fac7-5757-49b1-8abd-6cee915f695b"
        } ]
      }, {
        "detail": [ {
          "reference": "urn:uuid:abb5ddff-9c19-478a-8b66-3c89f9800c51"
        } ]
      }, {
        "detail": [ {
          "reference": "urn:uuid:5baafaa9-b725-4a2d-8c24-b271c324e8fd"
        } ]
      }, {
        "detail": [ {
          "reference": "urn:uuid:fa3ddd4d-171d-42fc-b586-01e4fcb9fc32"
        } ]
      }, {
        "detail": [ {
          "reference": "urn:uuid:8bf6dcf0-c0bb-4b85-a2f0-0d3330289195"
        } ]
      }, {
        "detail": [ {
          "reference": "urn:uuid:6169c260-60b7-456d-864c-cd2e57eb147f"
        } ]
      }, {
        "detail": [ {
          "reference": "urn:uuid:389eb8e5-97cd-4e26-bd06-9d9c495d6b53"
        } ]
      }, {
        "detail": [ {
          "reference": "urn:uuid:d5512387-e8b4-4d7e-8b2a-590639656528"
        } ]
      }, {
        "detail": [ {
          "reference": "urn:uuid:38da3fd0-9f3b-4ece-83cb-232184798cba"
        } ]
      }, {
        "detail": [ {
          "reference": "urn:uuid:c58cce4e-1113-4d1e-bbae-fb0e56415bb5"
        } ]
      }, {
        "detail": [ {
          "reference": "urn:uuid:3c61966b-7a9d-4f82-8422-83e5b5843fa7"
        } ]
      }, {
        "detail": [ {
          "reference": "urn:uuid:75e7d6a9-1d06-41b4-954d-fae858fe81f2"
        } ]
      }, {
        "detail": [ {
          "reference": "urn:uuid:36d5bd56-caff-46a9-82f8-2c02aa3e1019"
        } ]
      }, {
        "detail": [ {
          "reference": "urn:uuid:7c799a90-4748-46ca-b2f1-59a563275e6f"
        } ]
      }, {
        "detail": [ {
          "reference": "urn:uuid:f17660fb-039f-4b82-9bab-32835d52daf2"
        } ]
      }, {
        "detail": [ {
          "reference": "urn:uuid:9c9adc55-0296-4a1b-89ee-d13408c1afa8"
        } ]
      }, {
        "detail": [ {
          "reference": "urn:uuid:496002d7-d590-4a61-a6fa-aa9901f705c1"
        } ]
      }, {
        "detail": [ {
          "reference": "urn:uuid:607eff35-efa3-4f36-82e5-7ee0427ca752"
        } ]
      }, {
        "detail": [ {
          "reference": "urn:uuid:ac6cb36c-30ba-4b5a-87e1-c7e15ccddc32"
        } ]
      } ]
    }
  }, {
    "fullUrl": "urn:uuid:4d3e97a5-ad04-47c5-978b-80cd10befbe4",
    "resource": {
      "resourceType": "QuestionnaireResponse",
      "id": "4d3e97a5-ad04-47c5-978b-80cd10befbe4",
      "identifier": {
        "value": "59263"
      },
      "questionnaire": {
        "reference": "urn:uuid:f594db2b-ef27-410e-8d86-a68d8ad3e3c8"
      },
      "status": "completed",
      "subject": {
        "reference": "urn:uuid:de51c35d-1c96-44cd-90fd-2d79e9522955"
      },
      "context": {
        "reference": "urn:uuid:0dde3687-b3af-4b3c-a941-eb28f6148755"
      },
      "authored": "2021-04-06T11:29:26+00:00",
      "item": [ {
        "linkId": "Tx220074",
        "text": "What is the reason for the contact?",
        "answer": [ {
          "valueString": "an injury or other health problem"
        } ]
      } ]
    }
  }, {
    "fullUrl": "urn:uuid:f594db2b-ef27-410e-8d86-a68d8ad3e3c8",
    "resource": {
      "resourceType": "Questionnaire",
      "id": "f594db2b-ef27-410e-8d86-a68d8ad3e3c8",
      "identifier": [ {
        "value": "59263"
      } ],
      "version": "2021-04-06T11:29:26.887Z",
      "status": "active",
      "experimental": false,
      "date": "2021-04-06T11:29:26+00:00",
      "publisher": "User ID: 'HADFIELDR' User name: 'Ryan Hadfield' User skill set: 'T3'",
      "lastReviewDate": "2021-04-06",
      "contact": [ {
        "telecom": [ {
          "system": "phone",
          "value": "07777 888888"
        } ]
      } ],
      "subjectType": [ "Patient" ],
      "item": [ {
        "linkId": "59263",
        "prefix": "5",
        "text": "What is the reason for the contact?",
        "type": "choice",
        "required": true,
        "repeats": false,
        "option": [ {
          "valueString": "an injury or other health problem, Selected: true"
        }, {
          "valueString": "labour or childbirth, Selected: false"
        }, {
          "valueString": "a need to access another healthcare service, Selected: false"
        }, {
          "valueString": "a healthcare professional requesting contact with another clinician, Selected: false"
        }, {
          "valueString": "a report of results or tests, Selected: false"
        }, {
          "valueString": "a possible failure of contraception, Selected: false"
        }, {
          "valueString": "more, Selected: false"
        } ]
      } ]
    }
  }, {
    "fullUrl": "urn:uuid:d72fe845-fc18-4ce5-95cf-287957a1ac91",
    "resource": {
      "resourceType": "QuestionnaireResponse",
      "id": "d72fe845-fc18-4ce5-95cf-287957a1ac91",
      "identifier": {
        "value": "59263"
      },
      "questionnaire": {
        "reference": "urn:uuid:f76f201d-5690-4a06-a68f-3a62f8ae0741"
      },
      "status": "completed",
      "subject": {
        "reference": "urn:uuid:de51c35d-1c96-44cd-90fd-2d79e9522955"
      },
      "context": {
        "reference": "urn:uuid:0dde3687-b3af-4b3c-a941-eb28f6148755"
      },
      "authored": "2021-04-06T11:29:26+00:00",
      "item": [ {
        "linkId": "Tx221807",
        "text": "STRING:to'Immediatethreatstolife(SPA/OOHversion)'-'Majorbloodloss'stem",
        "answer": [ {
          "valueString": "\"present\""
        } ]
      } ]
    }
  }, {
    "fullUrl": "urn:uuid:f76f201d-5690-4a06-a68f-3a62f8ae0741",
    "resource": {
      "resourceType": "Questionnaire",
      "id": "f76f201d-5690-4a06-a68f-3a62f8ae0741",
      "identifier": [ {
        "value": "59263"
      } ],
      "version": "2021-04-06T11:29:26.887Z",
      "status": "active",
      "experimental": false,
      "date": "2021-04-06T11:29:26+00:00",
      "publisher": "User ID: 'HADFIELDR' User name: 'Ryan Hadfield' User skill set: 'T3'",
      "lastReviewDate": "2021-04-06",
      "contact": [ {
        "telecom": [ {
          "system": "phone",
          "value": "07777 888888"
        } ]
      } ],
      "subjectType": [ "Patient" ],
      "item": [ {
        "linkId": "59263",
        "prefix": "200",
        "text": "STRING:to'Immediatethreatstolife(SPA/OOHversion)'-'Majorbloodloss'stem",
        "type": "choice",
        "required": true,
        "repeats": false,
        "option": [ {
          "valueString": "\"present\", Selected: true"
        } ]
      } ]
    }
  }, {
    "fullUrl": "urn:uuid:4bdba4e4-48df-40a7-af96-c4081b079b8e",
    "resource": {
      "resourceType": "QuestionnaireResponse",
      "id": "4bdba4e4-48df-40a7-af96-c4081b079b8e",
      "identifier": {
        "value": "59263"
      },
      "questionnaire": {
        "reference": "urn:uuid:cc3c5c73-cfa2-439b-9c7b-b83006c92ba0"
      },
      "status": "completed",
      "subject": {
        "reference": "urn:uuid:de51c35d-1c96-44cd-90fd-2d79e9522955"
      },
      "context": {
        "reference": "urn:uuid:0dde3687-b3af-4b3c-a941-eb28f6148755"
      },
      "authored": "2021-04-06T11:29:26+00:00"
    }
  }, {
    "fullUrl": "urn:uuid:cc3c5c73-cfa2-439b-9c7b-b83006c92ba0",
    "resource": {
      "resourceType": "Questionnaire",
      "id": "cc3c5c73-cfa2-439b-9c7b-b83006c92ba0",
      "identifier": [ {
        "value": "59263"
      } ],
      "version": "2021-04-06T11:29:26.887Z",
      "status": "active",
      "experimental": false,
      "date": "2021-04-06T11:29:26+00:00",
      "publisher": "User ID: 'HADFIELDR' User name: 'Ryan Hadfield' User skill set: 'T3'",
      "lastReviewDate": "2021-04-06",
      "contact": [ {
        "telecom": [ {
          "system": "phone",
          "value": "07777 888888"
        } ]
      } ],
      "subjectType": [ "Patient" ]
    }
  }, {
    "fullUrl": "urn:uuid:4327a09f-c92a-49b5-a02f-0d3205d0ca17",
    "resource": {
      "resourceType": "QuestionnaireResponse",
      "id": "4327a09f-c92a-49b5-a02f-0d3205d0ca17",
      "identifier": {
        "value": "59263"
      },
      "questionnaire": {
        "reference": "urn:uuid:08aed207-ecfb-4ad9-98fa-034c48924421"
      },
      "status": "completed",
      "subject": {
        "reference": "urn:uuid:de51c35d-1c96-44cd-90fd-2d79e9522955"
      },
      "context": {
        "reference": "urn:uuid:0dde3687-b3af-4b3c-a941-eb28f6148755"
      },
      "authored": "2021-04-06T11:29:26+00:00",
      "item": [ {
        "linkId": "Tx221799",
        "text": "STRING:injury,illnessorlabourestablishedinEntryFlow",
        "answer": [ {
          "valueString": "\"present\""
        } ]
      } ]
    }
  }, {
    "fullUrl": "urn:uuid:08aed207-ecfb-4ad9-98fa-034c48924421",
    "resource": {
      "resourceType": "Questionnaire",
      "id": "08aed207-ecfb-4ad9-98fa-034c48924421",
      "identifier": [ {
        "value": "59263"
      } ],
      "version": "2021-04-06T11:29:26.887Z",
      "status": "active",
      "experimental": false,
      "date": "2021-04-06T11:29:26+00:00",
      "publisher": "User ID: 'HADFIELDR' User name: 'Ryan Hadfield' User skill set: 'T3'",
      "lastReviewDate": "2021-04-06",
      "contact": [ {
        "telecom": [ {
          "system": "phone",
          "value": "07777 888888"
        } ]
      } ],
      "subjectType": [ "Patient" ],
      "item": [ {
        "linkId": "59263",
        "prefix": "0",
        "text": "STRING:injury,illnessorlabourestablishedinEntryFlow",
        "type": "choice",
        "required": true,
        "repeats": false,
        "option": [ {
          "valueString": "\"present\", Selected: true"
        } ]
      } ]
    }
  }, {
    "fullUrl": "urn:uuid:6b320d36-81fb-4e42-b159-36a007b80115",
    "resource": {
      "resourceType": "QuestionnaireResponse",
      "id": "6b320d36-81fb-4e42-b159-36a007b80115",
      "identifier": {
        "value": "59263"
      },
      "questionnaire": {
        "reference": "urn:uuid:f0fe130f-a0f2-4be3-95a8-3f1a9eb37867"
      },
      "status": "completed",
      "subject": {
        "reference": "urn:uuid:de51c35d-1c96-44cd-90fd-2d79e9522955"
      },
      "context": {
        "reference": "urn:uuid:0dde3687-b3af-4b3c-a941-eb28f6148755"
      },
      "authored": "2021-04-06T11:29:26+00:00",
      "item": [ {
        "linkId": "Tx224120",
        "text": "Have you been bleeding RED BLOOD very heavily IN THE LAST 2 HOURS?"
      } ]
    }
  }, {
    "fullUrl": "urn:uuid:f0fe130f-a0f2-4be3-95a8-3f1a9eb37867",
    "resource": {
      "resourceType": "Questionnaire",
      "id": "f0fe130f-a0f2-4be3-95a8-3f1a9eb37867",
      "identifier": [ {
        "value": "59263"
      } ],
      "version": "2021-04-06T11:29:26.887Z",
      "status": "active",
      "experimental": false,
      "date": "2021-04-06T11:29:26+00:00",
      "publisher": "User ID: 'HADFIELDR' User name: 'Ryan Hadfield' User skill set: 'T3'",
      "lastReviewDate": "2021-04-06",
      "contact": [ {
        "telecom": [ {
          "system": "phone",
          "value": "07777 888888"
        } ]
      } ],
      "subjectType": [ "Patient" ],
      "item": [ {
        "linkId": "59263",
        "prefix": "10100",
        "text": "Have you been bleeding RED BLOOD very heavily IN THE LAST 2 HOURS?",
        "type": "choice",
        "required": true,
        "repeats": false,
        "option": [ {
          "valueString": "yes, Selected: false"
        }, {
          "valueString": "not sure, Selected: false"
        }, {
          "valueString": "no, Selected: false"
        } ]
      } ]
    }
  }, {
    "fullUrl": "urn:uuid:3304c30b-0455-4931-9081-fdf2c4445cf7",
    "resource": {
      "resourceType": "QuestionnaireResponse",
      "id": "3304c30b-0455-4931-9081-fdf2c4445cf7",
      "identifier": {
        "value": "59263"
      },
      "questionnaire": {
        "reference": "urn:uuid:874de3d9-1dfd-450f-83a7-0072abc6f4ea"
      },
      "status": "completed",
      "subject": {
        "reference": "urn:uuid:de51c35d-1c96-44cd-90fd-2d79e9522955"
      },
      "context": {
        "reference": "urn:uuid:0dde3687-b3af-4b3c-a941-eb28f6148755"
      },
      "authored": "2021-04-06T11:29:26+00:00",
      "item": [ {
        "linkId": "Tx220074",
        "text": "What is the reason for the contact?",
        "answer": [ {
          "valueString": "more"
        } ]
      } ]
    }
  }, {
    "fullUrl": "urn:uuid:874de3d9-1dfd-450f-83a7-0072abc6f4ea",
    "resource": {
      "resourceType": "Questionnaire",
      "id": "874de3d9-1dfd-450f-83a7-0072abc6f4ea",
      "identifier": [ {
        "value": "59263"
      } ],
      "version": "2021-04-06T11:29:26.887Z",
      "status": "active",
      "experimental": false,
      "date": "2021-04-06T11:29:26+00:00",
      "publisher": "User ID: 'HADFIELDR' User name: 'Ryan Hadfield' User skill set: 'T3'",
      "lastReviewDate": "2021-04-06",
      "contact": [ {
        "telecom": [ {
          "system": "phone",
          "value": "07777 888888"
        } ]
      } ],
      "subjectType": [ "Patient" ],
      "item": [ {
        "linkId": "59263",
        "prefix": "5",
        "text": "What is the reason for the contact?",
        "type": "choice",
        "required": true,
        "repeats": false,
        "option": [ {
          "valueString": "an injury or other health problem, Selected: false"
        }, {
          "valueString": "labour or childbirth, Selected: false"
        }, {
          "valueString": "a need to access another healthcare service, Selected: false"
        }, {
          "valueString": "a healthcare professional requesting contact with another clinician, Selected: false"
        }, {
          "valueString": "a report of results or tests, Selected: false"
        }, {
          "valueString": "a possible failure of contraception, Selected: false"
        }, {
          "valueString": "more, Selected: true"
        } ]
      } ]
    }
  }, {
    "fullUrl": "urn:uuid:144acec6-664e-4efd-a803-b07ce6a78c0a",
    "resource": {
      "resourceType": "QuestionnaireResponse",
      "id": "144acec6-664e-4efd-a803-b07ce6a78c0a",
      "identifier": {
        "value": "59263"
      },
      "questionnaire": {
        "reference": "urn:uuid:e394b5c3-6e0c-499b-9419-186b3429315b"
      },
      "status": "completed",
      "subject": {
        "reference": "urn:uuid:de51c35d-1c96-44cd-90fd-2d79e9522955"
      },
      "context": {
        "reference": "urn:uuid:0dde3687-b3af-4b3c-a941-eb28f6148755"
      },
      "authored": "2021-04-06T11:29:26+00:00",
      "item": [ {
        "linkId": "Tx221793",
        "text": "STRING:to'Social&information'-further'Callreason'menu",
        "answer": [ {
          "valueString": "\"present\""
        } ]
      } ]
    }
  }, {
    "fullUrl": "urn:uuid:e394b5c3-6e0c-499b-9419-186b3429315b",
    "resource": {
      "resourceType": "Questionnaire",
      "id": "e394b5c3-6e0c-499b-9419-186b3429315b",
      "identifier": [ {
        "value": "59263"
      } ],
      "version": "2021-04-06T11:29:26.887Z",
      "status": "active",
      "experimental": false,
      "date": "2021-04-06T11:29:26+00:00",
      "publisher": "User ID: 'HADFIELDR' User name: 'Ryan Hadfield' User skill set: 'T3'",
      "lastReviewDate": "2021-04-06",
      "contact": [ {
        "telecom": [ {
          "system": "phone",
          "value": "07777 888888"
        } ]
      } ],
      "subjectType": [ "Patient" ],
      "item": [ {
        "linkId": "59263",
        "prefix": "600",
        "text": "STRING:to'Social&information'-further'Callreason'menu",
        "type": "choice",
        "required": true,
        "repeats": false,
        "option": [ {
          "valueString": "\"present\", Selected: true"
        } ]
      } ]
    }
  }, {
    "fullUrl": "urn:uuid:f18a0223-5722-441d-80bd-66e3ec80e396",
    "resource": {
      "resourceType": "QuestionnaireResponse",
      "id": "f18a0223-5722-441d-80bd-66e3ec80e396",
      "identifier": {
        "value": "59263"
      },
      "questionnaire": {
        "reference": "urn:uuid:93627a6f-0ab8-415f-a75a-dcb87d70973b"
      },
      "status": "completed",
      "subject": {
        "reference": "urn:uuid:de51c35d-1c96-44cd-90fd-2d79e9522955"
      },
      "context": {
        "reference": "urn:uuid:0dde3687-b3af-4b3c-a941-eb28f6148755"
      },
      "authored": "2021-04-06T11:29:26+00:00"
    }
  }, {
    "fullUrl": "urn:uuid:93627a6f-0ab8-415f-a75a-dcb87d70973b",
    "resource": {
      "resourceType": "Questionnaire",
      "id": "93627a6f-0ab8-415f-a75a-dcb87d70973b",
      "identifier": [ {
        "value": "59263"
      } ],
      "version": "2021-04-06T11:29:26.887Z",
      "status": "active",
      "experimental": false,
      "date": "2021-04-06T11:29:26+00:00",
      "publisher": "User ID: 'HADFIELDR' User name: 'Ryan Hadfield' User skill set: 'T3'",
      "lastReviewDate": "2021-04-06",
      "contact": [ {
        "telecom": [ {
          "system": "phone",
          "value": "07777 888888"
        } ]
      } ],
      "subjectType": [ "Patient" ]
    }
  }, {
    "fullUrl": "urn:uuid:beb67548-7aec-446c-aac5-24d519f17f95",
    "resource": {
      "resourceType": "QuestionnaireResponse",
      "id": "beb67548-7aec-446c-aac5-24d519f17f95",
      "identifier": {
        "value": "59263"
      },
      "questionnaire": {
        "reference": "urn:uuid:c6520b6c-1610-4b83-9b1a-06e1058600c7"
      },
      "status": "completed",
      "subject": {
        "reference": "urn:uuid:de51c35d-1c96-44cd-90fd-2d79e9522955"
      },
      "context": {
        "reference": "urn:uuid:0dde3687-b3af-4b3c-a941-eb28f6148755"
      },
      "authored": "2021-04-06T11:29:26+00:00",
      "item": [ {
        "linkId": "Tx221804",
        "text": "STRING:transfertofurthermenuquestionestablishedinEntryFlow",
        "answer": [ {
          "valueString": "\"present\""
        } ]
      } ]
    }
  }, {
    "fullUrl": "urn:uuid:c6520b6c-1610-4b83-9b1a-06e1058600c7",
    "resource": {
      "resourceType": "Questionnaire",
      "id": "c6520b6c-1610-4b83-9b1a-06e1058600c7",
      "identifier": [ {
        "value": "59263"
      } ],
      "version": "2021-04-06T11:29:26.887Z",
      "status": "active",
      "experimental": false,
      "date": "2021-04-06T11:29:26+00:00",
      "publisher": "User ID: 'HADFIELDR' User name: 'Ryan Hadfield' User skill set: 'T3'",
      "lastReviewDate": "2021-04-06",
      "contact": [ {
        "telecom": [ {
          "system": "phone",
          "value": "07777 888888"
        } ]
      } ],
      "subjectType": [ "Patient" ],
      "item": [ {
        "linkId": "59263",
        "prefix": "41",
        "text": "STRING:transfertofurthermenuquestionestablishedinEntryFlow",
        "type": "choice",
        "required": true,
        "repeats": false,
        "option": [ {
          "valueString": "\"present\", Selected: true"
        } ]
      } ]
    }
  }, {
    "fullUrl": "urn:uuid:001414c6-d1cb-413c-81e6-e14bd107b720",
    "resource": {
      "resourceType": "QuestionnaireResponse",
      "id": "001414c6-d1cb-413c-81e6-e14bd107b720",
      "identifier": {
        "value": "59263"
      },
      "questionnaire": {
        "reference": "urn:uuid:0d74d8fd-49bc-4496-825a-16ae58cf383b"
      },
      "status": "completed",
      "subject": {
        "reference": "urn:uuid:de51c35d-1c96-44cd-90fd-2d79e9522955"
      },
      "context": {
        "reference": "urn:uuid:0dde3687-b3af-4b3c-a941-eb28f6148755"
      },
      "authored": "2021-04-06T11:29:26+00:00",
      "item": [ {
        "linkId": "Tx224998",
        "text": "SYSTEM_COVIDLEVEL2",
        "answer": [ {
          "valueString": "==\"covidlevel2\""
        } ]
      } ]
    }
  }, {
    "fullUrl": "urn:uuid:0d74d8fd-49bc-4496-825a-16ae58cf383b",
    "resource": {
      "resourceType": "Questionnaire",
      "id": "0d74d8fd-49bc-4496-825a-16ae58cf383b",
      "identifier": [ {
        "value": "59263"
      } ],
      "version": "2021-04-06T11:29:26.887Z",
      "status": "active",
      "experimental": false,
      "date": "2021-04-06T11:29:26+00:00",
      "publisher": "User ID: 'HADFIELDR' User name: 'Ryan Hadfield' User skill set: 'T3'",
      "lastReviewDate": "2021-04-06",
      "contact": [ {
        "telecom": [ {
          "system": "phone",
          "value": "07777 888888"
        } ]
      } ],
      "subjectType": [ "Patient" ],
      "item": [ {
        "linkId": "59263",
        "prefix": "5900",
        "text": "SYSTEM_COVIDLEVEL2",
        "type": "choice",
        "required": true,
        "repeats": false,
        "option": [ {
          "valueString": "==\"covidlevel2\", Selected: true"
        }, {
          "valueString": "*, Selected: false"
        } ]
      } ]
    }
  }, {
    "fullUrl": "urn:uuid:1bc2d947-4a83-4766-a995-e5631e88e436",
    "resource": {
      "resourceType": "QuestionnaireResponse",
      "id": "1bc2d947-4a83-4766-a995-e5631e88e436",
      "identifier": {
        "value": "59263"
      },
      "questionnaire": {
        "reference": "urn:uuid:eee23f08-9a80-434a-8e97-3066a01ac715"
      },
      "status": "completed",
      "subject": {
        "reference": "urn:uuid:de51c35d-1c96-44cd-90fd-2d79e9522955"
      },
      "context": {
        "reference": "urn:uuid:0dde3687-b3af-4b3c-a941-eb28f6148755"
      },
      "authored": "2021-04-06T11:29:26+00:00",
      "item": [ {
        "linkId": "Tx225069",
        "text": "What is the reason for the contact?",
        "answer": [ {
          "valueString": "a prescription request"
        } ]
      } ]
    }
  }, {
    "fullUrl": "urn:uuid:eee23f08-9a80-434a-8e97-3066a01ac715",
    "resource": {
      "resourceType": "Questionnaire",
      "id": "eee23f08-9a80-434a-8e97-3066a01ac715",
      "identifier": [ {
        "value": "59263"
      } ],
      "version": "2021-04-06T11:29:26.887Z",
      "status": "active",
      "experimental": false,
      "date": "2021-04-06T11:29:26+00:00",
      "publisher": "User ID: 'HADFIELDR' User name: 'Ryan Hadfield' User skill set: 'T3'",
      "lastReviewDate": "2021-04-06",
      "contact": [ {
        "telecom": [ {
          "system": "phone",
          "value": "07777 888888"
        } ]
      } ],
      "subjectType": [ "Patient" ],
      "item": [ {
        "linkId": "59263",
        "prefix": "6000",
        "text": "What is the reason for the contact?",
        "type": "choice",
        "required": true,
        "repeats": false,
        "option": [ {
          "valueString": "a child protection/vulnerable adult concern (specify), Selected: false"
        }, {
          "valueString": "a social or domestic emergency, Selected: false"
        }, {
          "valueString": "a prescription request, Selected: true"
        }, {
          "valueString": "an appointment request, Selected: false"
        }, {
          "valueString": "a request for health or medication information, Selected: false"
        }, {
          "valueString": "public health alert information, Selected: false"
        } ]
      } ]
    }
  }, {
    "fullUrl": "urn:uuid:8cac2282-a467-4bc0-ab93-8b68f4b90860",
    "resource": {
      "resourceType": "QuestionnaireResponse",
      "id": "8cac2282-a467-4bc0-ab93-8b68f4b90860",
      "identifier": {
        "value": "59263"
      },
      "questionnaire": {
        "reference": "urn:uuid:75829606-18ef-47bd-90c2-5d2646879766"
      },
      "status": "completed",
      "subject": {
        "reference": "urn:uuid:de51c35d-1c96-44cd-90fd-2d79e9522955"
      },
      "context": {
        "reference": "urn:uuid:0dde3687-b3af-4b3c-a941-eb28f6148755"
      },
      "authored": "2021-04-06T11:29:26+00:00",
      "item": [ {
        "linkId": "Tx220957",
        "text": "Is this contact about a new or worsening illness?",
        "answer": [ {
          "valueString": "no"
        } ]
      } ]
    }
  }, {
    "fullUrl": "urn:uuid:75829606-18ef-47bd-90c2-5d2646879766",
    "resource": {
      "resourceType": "Questionnaire",
      "id": "75829606-18ef-47bd-90c2-5d2646879766",
      "identifier": [ {
        "value": "59263"
      } ],
      "version": "2021-04-06T11:29:26.887Z",
      "status": "active",
      "experimental": false,
      "date": "2021-04-06T11:29:26+00:00",
      "publisher": "User ID: 'HADFIELDR' User name: 'Ryan Hadfield' User skill set: 'T3'",
      "lastReviewDate": "2021-04-06",
      "contact": [ {
        "telecom": [ {
          "system": "phone",
          "value": "07777 888888"
        } ]
      } ],
      "subjectType": [ "Patient" ],
      "item": [ {
        "linkId": "59263",
        "prefix": "1400",
        "text": "Is this contact about a new or worsening illness?",
        "type": "choice",
        "required": true,
        "repeats": false,
        "option": [ {
          "valueString": "yes, Selected: false"
        }, {
          "valueString": "not sure, Selected: false"
        }, {
          "valueString": "no, Selected: true"
        } ]
      } ]
    }
  }, {
    "fullUrl": "urn:uuid:437ea2d0-e286-4887-91ed-685d152d1f95",
    "resource": {
      "resourceType": "QuestionnaireResponse",
      "id": "437ea2d0-e286-4887-91ed-685d152d1f95",
      "identifier": {
        "value": "59263"
      },
      "questionnaire": {
        "reference": "urn:uuid:cb7304a3-7edb-431d-9cba-f1320a6389aa"
      },
      "status": "completed",
      "subject": {
        "reference": "urn:uuid:de51c35d-1c96-44cd-90fd-2d79e9522955"
      },
      "context": {
        "reference": "urn:uuid:0dde3687-b3af-4b3c-a941-eb28f6148755"
      },
      "authored": "2021-04-06T11:29:26+00:00",
      "item": [ {
        "linkId": "Tx221352",
        "text": "Have you got enough medication to last until the surgery opens?",
        "answer": [ {
          "valueString": "no"
        } ]
      } ]
    }
  }, {
    "fullUrl": "urn:uuid:cb7304a3-7edb-431d-9cba-f1320a6389aa",
    "resource": {
      "resourceType": "Questionnaire",
      "id": "cb7304a3-7edb-431d-9cba-f1320a6389aa",
      "identifier": [ {
        "value": "59263"
      } ],
      "version": "2021-04-06T11:29:26.887Z",
      "status": "active",
      "experimental": false,
      "date": "2021-04-06T11:29:26+00:00",
      "publisher": "User ID: 'HADFIELDR' User name: 'Ryan Hadfield' User skill set: 'T3'",
      "lastReviewDate": "2021-04-06",
      "contact": [ {
        "telecom": [ {
          "system": "phone",
          "value": "07777 888888"
        } ]
      } ],
      "subjectType": [ "Patient" ],
      "item": [ {
        "linkId": "59263",
        "prefix": "1500",
        "text": "Have you got enough medication to last until the surgery opens?",
        "type": "choice",
        "required": true,
        "repeats": false,
        "option": [ {
          "valueString": "yes, Selected: false"
        }, {
          "valueString": "not sure, Selected: false"
        }, {
          "valueString": "no, Selected: true"
        } ]
      } ]
    }
  }, {
    "fullUrl": "urn:uuid:76ce61cd-bc01-4d4b-ac12-670c0de00950",
    "resource": {
      "resourceType": "QuestionnaireResponse",
      "id": "76ce61cd-bc01-4d4b-ac12-670c0de00950",
      "identifier": {
        "value": "59263"
      },
      "questionnaire": {
        "reference": "urn:uuid:035dadac-970a-4fbf-bf93-27aa8a066a8f"
      },
      "status": "completed",
      "subject": {
        "reference": "urn:uuid:de51c35d-1c96-44cd-90fd-2d79e9522955"
      },
      "context": {
        "reference": "urn:uuid:0dde3687-b3af-4b3c-a941-eb28f6148755"
      },
      "authored": "2021-04-06T11:29:26+00:00"
    }
  }, {
    "fullUrl": "urn:uuid:035dadac-970a-4fbf-bf93-27aa8a066a8f",
    "resource": {
      "resourceType": "Questionnaire",
      "id": "035dadac-970a-4fbf-bf93-27aa8a066a8f",
      "identifier": [ {
        "value": "59263"
      } ],
      "version": "2021-04-06T11:29:26.887Z",
      "status": "active",
      "experimental": false,
      "date": "2021-04-06T11:29:26+00:00",
      "publisher": "User ID: 'HADFIELDR' User name: 'Ryan Hadfield' User skill set: 'T3'",
      "lastReviewDate": "2021-04-06",
      "contact": [ {
        "telecom": [ {
          "system": "phone",
          "value": "07777 888888"
        } ]
      } ],
      "subjectType": [ "Patient" ]
    }
  }, {
    "fullUrl": "urn:uuid:ea72de75-af34-40d9-a57a-663d4c2f44f6",
    "resource": {
      "resourceType": "QuestionnaireResponse",
      "id": "ea72de75-af34-40d9-a57a-663d4c2f44f6",
      "identifier": {
        "value": "59263"
      },
      "questionnaire": {
        "reference": "urn:uuid:89574fa8-004c-421c-acb1-de6d8aba6609"
      },
      "status": "completed",
      "subject": {
        "reference": "urn:uuid:de51c35d-1c96-44cd-90fd-2d79e9522955"
      },
      "context": {
        "reference": "urn:uuid:0dde3687-b3af-4b3c-a941-eb28f6148755"
      },
      "authored": "2021-04-06T11:29:26+00:00",
      "item": [ {
        "linkId": "Tx224231",
        "text": "FROM WHAT YOU HAVE HEARD IS A CONSULTATION WITH A PRESCRIBER NEEDED?",
        "answer": [ {
          "valueString": "yes"
        } ]
      } ]
    }
  }, {
    "fullUrl": "urn:uuid:89574fa8-004c-421c-acb1-de6d8aba6609",
    "resource": {
      "resourceType": "Questionnaire",
      "id": "89574fa8-004c-421c-acb1-de6d8aba6609",
      "identifier": [ {
        "value": "59263"
      } ],
      "version": "2021-04-06T11:29:26.887Z",
      "status": "active",
      "experimental": false,
      "date": "2021-04-06T11:29:26+00:00",
      "publisher": "User ID: 'HADFIELDR' User name: 'Ryan Hadfield' User skill set: 'T3'",
      "lastReviewDate": "2021-04-06",
      "contact": [ {
        "telecom": [ {
          "system": "phone",
          "value": "07777 888888"
        } ]
      } ],
      "subjectType": [ "Patient" ],
      "item": [ {
        "linkId": "59263",
        "prefix": "0",
        "text": "FROM WHAT YOU HAVE HEARD IS A CONSULTATION WITH A PRESCRIBER NEEDED?",
        "type": "choice",
        "required": true,
        "repeats": false,
        "option": [ {
          "valueString": "yes, Selected: true"
        }, {
          "valueString": "not sure, Selected: false"
        }, {
          "valueString": "no, Selected: false"
        } ]
      } ]
    }
  }, {
    "fullUrl": "urn:uuid:52a6e4e8-ebe3-498c-bf6a-e19bbf489825",
    "resource": {
      "resourceType": "QuestionnaireResponse",
      "id": "52a6e4e8-ebe3-498c-bf6a-e19bbf489825",
      "identifier": {
        "value": "59263"
      },
      "questionnaire": {
        "reference": "urn:uuid:af356156-7927-4b83-b953-4aa41a587c71"
      },
      "status": "completed",
      "subject": {
        "reference": "urn:uuid:de51c35d-1c96-44cd-90fd-2d79e9522955"
      },
      "context": {
        "reference": "urn:uuid:0dde3687-b3af-4b3c-a941-eb28f6148755"
      },
      "authored": "2021-04-06T11:29:26+00:00",
      "item": [ {
        "linkId": "Tx221367",
        "text": "When is the next dose due?",
        "answer": [ {
          "valueString": "within the next 12 hours"
        } ]
      } ]
    }
  }, {
    "fullUrl": "urn:uuid:af356156-7927-4b83-b953-4aa41a587c71",
    "resource": {
      "resourceType": "Questionnaire",
      "id": "af356156-7927-4b83-b953-4aa41a587c71",
      "identifier": [ {
        "value": "59263"
      } ],
      "version": "2021-04-06T11:29:26.887Z",
      "status": "active",
      "experimental": false,
      "date": "2021-04-06T11:29:26+00:00",
      "publisher": "User ID: 'HADFIELDR' User name: 'Ryan Hadfield' User skill set: 'T3'",
      "lastReviewDate": "2021-04-06",
      "contact": [ {
        "telecom": [ {
          "system": "phone",
          "value": "07777 888888"
        } ]
      } ],
      "subjectType": [ "Patient" ],
      "item": [ {
        "linkId": "59263",
        "prefix": "2900",
        "text": "When is the next dose due?",
        "type": "choice",
        "required": true,
        "repeats": false,
        "option": [ {
          "valueString": "within the next 2 hours, Selected: false"
        }, {
          "valueString": "within the next 6 hours, Selected: false"
        }, {
          "valueString": "within the next 12 hours, Selected: true"
        }, {
          "valueString": "over 12 hours time, Selected: false"
        }, {
          "valueString": "not sure, Selected: false"
        } ]
      } ]
    }
  }, {
    "fullUrl": "urn:uuid:de1bc78c-6600-441c-a853-1563543d2383",
    "resource": {
      "resourceType": "QuestionnaireResponse",
      "id": "de1bc78c-6600-441c-a853-1563543d2383",
      "identifier": {
        "value": "59263"
      },
      "questionnaire": {
        "reference": "urn:uuid:edb283ab-3451-4d2c-9593-0948937cf46a"
      },
      "status": "completed",
      "subject": {
        "reference": "urn:uuid:de51c35d-1c96-44cd-90fd-2d79e9522955"
      },
      "context": {
        "reference": "urn:uuid:0dde3687-b3af-4b3c-a941-eb28f6148755"
      },
      "authored": "2021-04-06T11:29:26+00:00",
      "item": [ {
        "linkId": "Tx221449",
        "text": "STRING:SDPCFullPrimaryCareassessmentandprescribingcapability",
        "answer": [ {
          "valueString": "\"PC full Primary Care assessment and prescribing capability\""
        } ]
      } ]
    }
  }, {
    "fullUrl": "urn:uuid:edb283ab-3451-4d2c-9593-0948937cf46a",
    "resource": {
      "resourceType": "Questionnaire",
      "id": "edb283ab-3451-4d2c-9593-0948937cf46a",
      "identifier": [ {
        "value": "59263"
      } ],
      "version": "2021-04-06T11:29:26.887Z",
      "status": "active",
      "experimental": false,
      "date": "2021-04-06T11:29:26+00:00",
      "publisher": "User ID: 'HADFIELDR' User name: 'Ryan Hadfield' User skill set: 'T3'",
      "lastReviewDate": "2021-04-06",
      "contact": [ {
        "telecom": [ {
          "system": "phone",
          "value": "07777 888888"
        } ]
      } ],
      "subjectType": [ "Patient" ],
      "item": [ {
        "linkId": "59263",
        "prefix": "3000",
        "text": "STRING:SDPCFullPrimaryCareassessmentandprescribingcapability",
        "type": "choice",
        "required": true,
        "repeats": false,
        "option": [ {
          "valueString": "\"PC full Primary Care assessment and prescribing capability\", Selected: true"
        } ]
      } ]
    }
  }, {
    "fullUrl": "urn:uuid:387755c3-ac65-47bc-a3cc-60c7c0d55518",
    "resource": {
      "resourceType": "QuestionnaireResponse",
      "id": "387755c3-ac65-47bc-a3cc-60c7c0d55518",
      "identifier": {
        "value": "59263"
      },
      "questionnaire": {
        "reference": "urn:uuid:38898ebe-5409-48ee-abe7-0c7a841b7108"
      },
      "status": "completed",
      "subject": {
        "reference": "urn:uuid:de51c35d-1c96-44cd-90fd-2d79e9522955"
      },
      "context": {
        "reference": "urn:uuid:0dde3687-b3af-4b3c-a941-eb28f6148755"
      },
      "authored": "2021-04-06T11:29:26+00:00"
    }
  }, {
    "fullUrl": "urn:uuid:38898ebe-5409-48ee-abe7-0c7a841b7108",
    "resource": {
      "resourceType": "Questionnaire",
      "id": "38898ebe-5409-48ee-abe7-0c7a841b7108",
      "identifier": [ {
        "value": "59263"
      } ],
      "version": "2021-04-06T11:29:26.887Z",
      "status": "active",
      "experimental": false,
      "date": "2021-04-06T11:29:26+00:00",
      "publisher": "User ID: 'HADFIELDR' User name: 'Ryan Hadfield' User skill set: 'T3'",
      "lastReviewDate": "2021-04-06",
      "contact": [ {
        "telecom": [ {
          "system": "phone",
          "value": "07777 888888"
        } ]
      } ],
      "subjectType": [ "Patient" ]
    }
  }, {
    "fullUrl": "urn:uuid:bd64641d-2210-456f-8329-ef8a6b5b4e4f",
    "resource": {
      "resourceType": "QuestionnaireResponse",
      "id": "bd64641d-2210-456f-8329-ef8a6b5b4e4f",
      "identifier": {
        "value": "59263"
      },
      "questionnaire": {
        "reference": "urn:uuid:8ab841f1-87e2-4521-9fb5-aafb918ec7d5"
      },
      "status": "completed",
      "subject": {
        "reference": "urn:uuid:de51c35d-1c96-44cd-90fd-2d79e9522955"
      },
      "context": {
        "reference": "urn:uuid:0dde3687-b3af-4b3c-a941-eb28f6148755"
      },
      "authored": "2021-04-06T11:29:26+00:00",
      "item": [ {
        "linkId": "Tx220074",
        "text": "What is the reason for the contact?",
        "answer": [ {
          "valueString": "an injury or other health problem"
        } ]
      } ]
    }
  }, {
    "fullUrl": "urn:uuid:8ab841f1-87e2-4521-9fb5-aafb918ec7d5",
    "resource": {
      "resourceType": "Questionnaire",
      "id": "8ab841f1-87e2-4521-9fb5-aafb918ec7d5",
      "identifier": [ {
        "value": "59263"
      } ],
      "version": "2021-04-06T11:29:26.887Z",
      "status": "active",
      "experimental": false,
      "date": "2021-04-06T11:29:26+00:00",
      "publisher": "User ID: 'HADFIELDR' User name: 'Ryan Hadfield' User skill set: 'T3'",
      "lastReviewDate": "2021-04-06",
      "contact": [ {
        "telecom": [ {
          "system": "phone",
          "value": "07777 888888"
        } ]
      } ],
      "subjectType": [ "Patient" ],
      "item": [ {
        "linkId": "59263",
        "prefix": "5",
        "text": "What is the reason for the contact?",
        "type": "choice",
        "required": true,
        "repeats": false,
        "option": [ {
          "valueString": "an injury or other health problem, Selected: true"
        }, {
          "valueString": "labour or childbirth, Selected: false"
        }, {
          "valueString": "a need to access another healthcare service, Selected: false"
        }, {
          "valueString": "a healthcare professional requesting contact with another clinician, Selected: false"
        }, {
          "valueString": "a report of results or tests, Selected: false"
        }, {
          "valueString": "a possible failure of contraception, Selected: false"
        }, {
          "valueString": "more, Selected: false"
        } ]
      } ]
    }
  }, {
    "fullUrl": "urn:uuid:d6e8d82a-ab69-4c18-b54d-d88b710797a4",
    "resource": {
      "resourceType": "QuestionnaireResponse",
      "id": "d6e8d82a-ab69-4c18-b54d-d88b710797a4",
      "identifier": {
        "value": "59263"
      },
      "questionnaire": {
        "reference": "urn:uuid:0f70ea36-d0be-4638-bdc8-5df3c6f9ce42"
      },
      "status": "completed",
      "subject": {
        "reference": "urn:uuid:de51c35d-1c96-44cd-90fd-2d79e9522955"
      },
      "context": {
        "reference": "urn:uuid:0dde3687-b3af-4b3c-a941-eb28f6148755"
      },
      "authored": "2021-04-06T11:29:26+00:00",
      "item": [ {
        "linkId": "Tx221807",
        "text": "STRING:to'Immediatethreatstolife(SPA/OOHversion)'-'Majorbloodloss'stem",
        "answer": [ {
          "valueString": "\"present\""
        } ]
      } ]
    }
  }, {
    "fullUrl": "urn:uuid:0f70ea36-d0be-4638-bdc8-5df3c6f9ce42",
    "resource": {
      "resourceType": "Questionnaire",
      "id": "0f70ea36-d0be-4638-bdc8-5df3c6f9ce42",
      "identifier": [ {
        "value": "59263"
      } ],
      "version": "2021-04-06T11:29:26.887Z",
      "status": "active",
      "experimental": false,
      "date": "2021-04-06T11:29:26+00:00",
      "publisher": "User ID: 'HADFIELDR' User name: 'Ryan Hadfield' User skill set: 'T3'",
      "lastReviewDate": "2021-04-06",
      "contact": [ {
        "telecom": [ {
          "system": "phone",
          "value": "07777 888888"
        } ]
      } ],
      "subjectType": [ "Patient" ],
      "item": [ {
        "linkId": "59263",
        "prefix": "200",
        "text": "STRING:to'Immediatethreatstolife(SPA/OOHversion)'-'Majorbloodloss'stem",
        "type": "choice",
        "required": true,
        "repeats": false,
        "option": [ {
          "valueString": "\"present\", Selected: true"
        } ]
      } ]
    }
  }, {
    "fullUrl": "urn:uuid:097f91bb-9e63-4195-bec4-a51e28bb2245",
    "resource": {
      "resourceType": "QuestionnaireResponse",
      "id": "097f91bb-9e63-4195-bec4-a51e28bb2245",
      "identifier": {
        "value": "59263"
      },
      "questionnaire": {
        "reference": "urn:uuid:d9befa28-1f49-440d-bf30-5baf5b079b4c"
      },
      "status": "completed",
      "subject": {
        "reference": "urn:uuid:de51c35d-1c96-44cd-90fd-2d79e9522955"
      },
      "context": {
        "reference": "urn:uuid:0dde3687-b3af-4b3c-a941-eb28f6148755"
      },
      "authored": "2021-04-06T11:29:26+00:00"
    }
  }, {
    "fullUrl": "urn:uuid:d9befa28-1f49-440d-bf30-5baf5b079b4c",
    "resource": {
      "resourceType": "Questionnaire",
      "id": "d9befa28-1f49-440d-bf30-5baf5b079b4c",
      "identifier": [ {
        "value": "59263"
      } ],
      "version": "2021-04-06T11:29:26.887Z",
      "status": "active",
      "experimental": false,
      "date": "2021-04-06T11:29:26+00:00",
      "publisher": "User ID: 'HADFIELDR' User name: 'Ryan Hadfield' User skill set: 'T3'",
      "lastReviewDate": "2021-04-06",
      "contact": [ {
        "telecom": [ {
          "system": "phone",
          "value": "07777 888888"
        } ]
      } ],
      "subjectType": [ "Patient" ]
    }
  }, {
    "fullUrl": "urn:uuid:c2766212-622a-45df-b77d-41e0c85dee16",
    "resource": {
      "resourceType": "QuestionnaireResponse",
      "id": "c2766212-622a-45df-b77d-41e0c85dee16",
      "identifier": {
        "value": "59263"
      },
      "questionnaire": {
        "reference": "urn:uuid:7a7aa091-2708-41ce-9352-7c2a608c6df6"
      },
      "status": "completed",
      "subject": {
        "reference": "urn:uuid:de51c35d-1c96-44cd-90fd-2d79e9522955"
      },
      "context": {
        "reference": "urn:uuid:0dde3687-b3af-4b3c-a941-eb28f6148755"
      },
      "authored": "2021-04-06T11:29:26+00:00",
      "item": [ {
        "linkId": "Tx221799",
        "text": "STRING:injury,illnessorlabourestablishedinEntryFlow",
        "answer": [ {
          "valueString": "\"present\""
        } ]
      } ]
    }
  }, {
    "fullUrl": "urn:uuid:7a7aa091-2708-41ce-9352-7c2a608c6df6",
    "resource": {
      "resourceType": "Questionnaire",
      "id": "7a7aa091-2708-41ce-9352-7c2a608c6df6",
      "identifier": [ {
        "value": "59263"
      } ],
      "version": "2021-04-06T11:29:26.887Z",
      "status": "active",
      "experimental": false,
      "date": "2021-04-06T11:29:26+00:00",
      "publisher": "User ID: 'HADFIELDR' User name: 'Ryan Hadfield' User skill set: 'T3'",
      "lastReviewDate": "2021-04-06",
      "contact": [ {
        "telecom": [ {
          "system": "phone",
          "value": "07777 888888"
        } ]
      } ],
      "subjectType": [ "Patient" ],
      "item": [ {
        "linkId": "59263",
        "prefix": "0",
        "text": "STRING:injury,illnessorlabourestablishedinEntryFlow",
        "type": "choice",
        "required": true,
        "repeats": false,
        "option": [ {
          "valueString": "\"present\", Selected: true"
        } ]
      } ]
    }
  }, {
    "fullUrl": "urn:uuid:0c5dc9fe-dbd6-4351-956a-108bde248524",
    "resource": {
      "resourceType": "QuestionnaireResponse",
      "id": "0c5dc9fe-dbd6-4351-956a-108bde248524",
      "identifier": {
        "value": "59263"
      },
      "questionnaire": {
        "reference": "urn:uuid:4d2afd13-15da-4004-90d2-4d20bccc04af"
      },
      "status": "completed",
      "subject": {
        "reference": "urn:uuid:de51c35d-1c96-44cd-90fd-2d79e9522955"
      },
      "context": {
        "reference": "urn:uuid:0dde3687-b3af-4b3c-a941-eb28f6148755"
      },
      "authored": "2021-04-06T11:29:26+00:00",
      "item": [ {
        "linkId": "Tx224120",
        "text": "Have you been bleeding RED BLOOD very heavily IN THE LAST 2 HOURS?",
        "answer": [ {
          "valueString": "no"
        } ]
      } ]
    }
  }, {
    "fullUrl": "urn:uuid:4d2afd13-15da-4004-90d2-4d20bccc04af",
    "resource": {
      "resourceType": "Questionnaire",
      "id": "4d2afd13-15da-4004-90d2-4d20bccc04af",
      "identifier": [ {
        "value": "59263"
      } ],
      "version": "2021-04-06T11:29:26.887Z",
      "status": "active",
      "experimental": false,
      "date": "2021-04-06T11:29:26+00:00",
      "publisher": "User ID: 'HADFIELDR' User name: 'Ryan Hadfield' User skill set: 'T3'",
      "lastReviewDate": "2021-04-06",
      "contact": [ {
        "telecom": [ {
          "system": "phone",
          "value": "07777 888888"
        } ]
      } ],
      "subjectType": [ "Patient" ],
      "item": [ {
        "linkId": "59263",
        "prefix": "10100",
        "text": "Have you been bleeding RED BLOOD very heavily IN THE LAST 2 HOURS?",
        "type": "choice",
        "required": true,
        "repeats": false,
        "option": [ {
          "valueString": "yes, Selected: false"
        }, {
          "valueString": "not sure, Selected: false"
        }, {
          "valueString": "no, Selected: true"
        } ]
      } ]
    }
  }, {
    "fullUrl": "urn:uuid:35bb456a-6387-48dd-9e44-a6d704eb9924",
    "resource": {
      "resourceType": "QuestionnaireResponse",
      "id": "35bb456a-6387-48dd-9e44-a6d704eb9924",
      "identifier": {
        "value": "59263"
      },
      "questionnaire": {
        "reference": "urn:uuid:17491229-9bec-4f5d-abaf-4523bb187ad5"
      },
      "status": "completed",
      "subject": {
        "reference": "urn:uuid:de51c35d-1c96-44cd-90fd-2d79e9522955"
      },
      "context": {
        "reference": "urn:uuid:0dde3687-b3af-4b3c-a941-eb28f6148755"
      },
      "authored": "2021-04-06T11:29:26+00:00",
      "item": [ {
        "linkId": "Tx221343",
        "text": "SocialConcernsExcluded",
        "answer": [ {
          "valueString": "*"
        } ]
      } ]
    }
  }, {
    "fullUrl": "urn:uuid:17491229-9bec-4f5d-abaf-4523bb187ad5",
    "resource": {
      "resourceType": "Questionnaire",
      "id": "17491229-9bec-4f5d-abaf-4523bb187ad5",
      "identifier": [ {
        "value": "59263"
      } ],
      "version": "2021-04-06T11:29:26.887Z",
      "status": "active",
      "experimental": false,
      "date": "2021-04-06T11:29:26+00:00",
      "publisher": "User ID: 'HADFIELDR' User name: 'Ryan Hadfield' User skill set: 'T3'",
      "lastReviewDate": "2021-04-06",
      "contact": [ {
        "telecom": [ {
          "system": "phone",
          "value": "07777 888888"
        } ]
      } ],
      "subjectType": [ "Patient" ],
      "item": [ {
        "linkId": "59263",
        "prefix": "1100",
        "text": "SocialConcernsExcluded",
        "type": "choice",
        "required": true,
        "repeats": false,
        "option": [ {
          "valueString": "==\"present\", Selected: false"
        }, {
          "valueString": "*, Selected: true"
        } ]
      } ]
    }
  }, {
    "fullUrl": "urn:uuid:533ec447-e067-4442-b609-502134032dd8",
    "resource": {
      "resourceType": "QuestionnaireResponse",
      "id": "533ec447-e067-4442-b609-502134032dd8",
      "identifier": {
        "value": "59263"
      },
      "questionnaire": {
        "reference": "urn:uuid:41659a8e-16f9-4b9f-9ef8-a7f5ea04e4b5"
      },
      "status": "completed",
      "subject": {
        "reference": "urn:uuid:de51c35d-1c96-44cd-90fd-2d79e9522955"
      },
      "context": {
        "reference": "urn:uuid:0dde3687-b3af-4b3c-a941-eb28f6148755"
      },
      "authored": "2021-04-06T11:29:26+00:00",
      "item": [ {
        "linkId": "Tx130011",
        "text": "What is the main problem?"
      } ]
    }
  }, {
    "fullUrl": "urn:uuid:41659a8e-16f9-4b9f-9ef8-a7f5ea04e4b5",
    "resource": {
      "resourceType": "Questionnaire",
      "id": "41659a8e-16f9-4b9f-9ef8-a7f5ea04e4b5",
      "identifier": [ {
        "value": "59263"
      } ],
      "version": "2021-04-06T11:29:26.887Z",
      "status": "active",
      "experimental": false,
      "date": "2021-04-06T11:29:26+00:00",
      "publisher": "User ID: 'HADFIELDR' User name: 'Ryan Hadfield' User skill set: 'T3'",
      "lastReviewDate": "2021-04-06",
      "contact": [ {
        "telecom": [ {
          "system": "phone",
          "value": "07777 888888"
        } ]
      } ],
      "subjectType": [ "Patient" ],
      "item": [ {
        "linkId": "59263",
        "prefix": "2300",
        "text": "What is the main problem?",
        "type": "choice",
        "required": true,
        "repeats": false,
        "option": [ {
          "valueString": "the individual has been told to follow a particular course of action (specify), Selected: false"
        }, {
          "valueString": "the individual is an identified frequent caller, Selected: false"
        }, {
          "valueString": "injury (specify), Selected: false"
        }, {
          "valueString": "illness or other health problem (specify), Selected: false"
        }, {
          "valueString": "child protection/vulnerable adult concern, Selected: false"
        }, {
          "valueString": "social or domestic emergency, Selected: false"
        }, {
          "valueString": "the environment potentially poses an immediate threat to life (specify), Selected: false"
        } ]
      } ]
    }
  }, {
    "fullUrl": "urn:uuid:27cc8169-513d-4aff-a673-06e9563dcdf0",
    "resource": {
      "resourceType": "QuestionnaireResponse",
      "id": "27cc8169-513d-4aff-a673-06e9563dcdf0",
      "identifier": {
        "value": "59263"
      },
      "questionnaire": {
        "reference": "urn:uuid:72cc12de-553a-4a40-b729-229376065f13"
      },
      "status": "completed",
      "subject": {
        "reference": "urn:uuid:de51c35d-1c96-44cd-90fd-2d79e9522955"
      },
      "context": {
        "reference": "urn:uuid:0dde3687-b3af-4b3c-a941-eb28f6148755"
      },
      "authored": "2021-04-06T11:29:26+00:00",
      "item": [ {
        "linkId": "Tx220074",
        "text": "What is the reason for the contact?",
        "answer": [ {
          "valueString": "more"
        } ]
      } ]
    }
  }, {
    "fullUrl": "urn:uuid:72cc12de-553a-4a40-b729-229376065f13",
    "resource": {
      "resourceType": "Questionnaire",
      "id": "72cc12de-553a-4a40-b729-229376065f13",
      "identifier": [ {
        "value": "59263"
      } ],
      "version": "2021-04-06T11:29:26.887Z",
      "status": "active",
      "experimental": false,
      "date": "2021-04-06T11:29:26+00:00",
      "publisher": "User ID: 'HADFIELDR' User name: 'Ryan Hadfield' User skill set: 'T3'",
      "lastReviewDate": "2021-04-06",
      "contact": [ {
        "telecom": [ {
          "system": "phone",
          "value": "07777 888888"
        } ]
      } ],
      "subjectType": [ "Patient" ],
      "item": [ {
        "linkId": "59263",
        "prefix": "5",
        "text": "What is the reason for the contact?",
        "type": "choice",
        "required": true,
        "repeats": false,
        "option": [ {
          "valueString": "an injury or other health problem, Selected: false"
        }, {
          "valueString": "labour or childbirth, Selected: false"
        }, {
          "valueString": "a need to access another healthcare service, Selected: false"
        }, {
          "valueString": "a healthcare professional requesting contact with another clinician, Selected: false"
        }, {
          "valueString": "a report of results or tests, Selected: false"
        }, {
          "valueString": "a possible failure of contraception, Selected: false"
        }, {
          "valueString": "more, Selected: true"
        } ]
      } ]
    }
  }, {
    "fullUrl": "urn:uuid:4dc414bf-4bbb-4ca7-ac01-6afa1fecae0a",
    "resource": {
      "resourceType": "QuestionnaireResponse",
      "id": "4dc414bf-4bbb-4ca7-ac01-6afa1fecae0a",
      "identifier": {
        "value": "59263"
      },
      "questionnaire": {
        "reference": "urn:uuid:8ae3f662-5396-413f-b86b-755085501fb6"
      },
      "status": "completed",
      "subject": {
        "reference": "urn:uuid:de51c35d-1c96-44cd-90fd-2d79e9522955"
      },
      "context": {
        "reference": "urn:uuid:0dde3687-b3af-4b3c-a941-eb28f6148755"
      },
      "authored": "2021-04-06T11:29:26+00:00",
      "item": [ {
        "linkId": "Tx221793",
        "text": "STRING:to'Social&information'-further'Callreason'menu",
        "answer": [ {
          "valueString": "\"present\""
        } ]
      } ]
    }
  }, {
    "fullUrl": "urn:uuid:8ae3f662-5396-413f-b86b-755085501fb6",
    "resource": {
      "resourceType": "Questionnaire",
      "id": "8ae3f662-5396-413f-b86b-755085501fb6",
      "identifier": [ {
        "value": "59263"
      } ],
      "version": "2021-04-06T11:29:26.887Z",
      "status": "active",
      "experimental": false,
      "date": "2021-04-06T11:29:26+00:00",
      "publisher": "User ID: 'HADFIELDR' User name: 'Ryan Hadfield' User skill set: 'T3'",
      "lastReviewDate": "2021-04-06",
      "contact": [ {
        "telecom": [ {
          "system": "phone",
          "value": "07777 888888"
        } ]
      } ],
      "subjectType": [ "Patient" ],
      "item": [ {
        "linkId": "59263",
        "prefix": "600",
        "text": "STRING:to'Social&information'-further'Callreason'menu",
        "type": "choice",
        "required": true,
        "repeats": false,
        "option": [ {
          "valueString": "\"present\", Selected: true"
        } ]
      } ]
    }
  }, {
    "fullUrl": "urn:uuid:fc6eb536-105e-4bf7-b4ad-03f5548781d3",
    "resource": {
      "resourceType": "QuestionnaireResponse",
      "id": "fc6eb536-105e-4bf7-b4ad-03f5548781d3",
      "identifier": {
        "value": "59263"
      },
      "questionnaire": {
        "reference": "urn:uuid:5edd1182-097e-4f7c-8493-d7a29441482c"
      },
      "status": "completed",
      "subject": {
        "reference": "urn:uuid:de51c35d-1c96-44cd-90fd-2d79e9522955"
      },
      "context": {
        "reference": "urn:uuid:0dde3687-b3af-4b3c-a941-eb28f6148755"
      },
      "authored": "2021-04-06T11:29:26+00:00"
    }
  }, {
    "fullUrl": "urn:uuid:5edd1182-097e-4f7c-8493-d7a29441482c",
    "resource": {
      "resourceType": "Questionnaire",
      "id": "5edd1182-097e-4f7c-8493-d7a29441482c",
      "identifier": [ {
        "value": "59263"
      } ],
      "version": "2021-04-06T11:29:26.887Z",
      "status": "active",
      "experimental": false,
      "date": "2021-04-06T11:29:26+00:00",
      "publisher": "User ID: 'HADFIELDR' User name: 'Ryan Hadfield' User skill set: 'T3'",
      "lastReviewDate": "2021-04-06",
      "contact": [ {
        "telecom": [ {
          "system": "phone",
          "value": "07777 888888"
        } ]
      } ],
      "subjectType": [ "Patient" ]
    }
  }, {
    "fullUrl": "urn:uuid:03f3112a-4187-4e5c-ae0d-4b56fdb781ef",
    "resource": {
      "resourceType": "QuestionnaireResponse",
      "id": "03f3112a-4187-4e5c-ae0d-4b56fdb781ef",
      "identifier": {
        "value": "59263"
      },
      "questionnaire": {
        "reference": "urn:uuid:caba2906-c21c-4318-83ab-cc75e0cea7a3"
      },
      "status": "completed",
      "subject": {
        "reference": "urn:uuid:de51c35d-1c96-44cd-90fd-2d79e9522955"
      },
      "context": {
        "reference": "urn:uuid:0dde3687-b3af-4b3c-a941-eb28f6148755"
      },
      "authored": "2021-04-06T11:29:26+00:00",
      "item": [ {
        "linkId": "Tx221804",
        "text": "STRING:transfertofurthermenuquestionestablishedinEntryFlow",
        "answer": [ {
          "valueString": "\"present\""
        } ]
      } ]
    }
  }, {
    "fullUrl": "urn:uuid:caba2906-c21c-4318-83ab-cc75e0cea7a3",
    "resource": {
      "resourceType": "Questionnaire",
      "id": "caba2906-c21c-4318-83ab-cc75e0cea7a3",
      "identifier": [ {
        "value": "59263"
      } ],
      "version": "2021-04-06T11:29:26.887Z",
      "status": "active",
      "experimental": false,
      "date": "2021-04-06T11:29:26+00:00",
      "publisher": "User ID: 'HADFIELDR' User name: 'Ryan Hadfield' User skill set: 'T3'",
      "lastReviewDate": "2021-04-06",
      "contact": [ {
        "telecom": [ {
          "system": "phone",
          "value": "07777 888888"
        } ]
      } ],
      "subjectType": [ "Patient" ],
      "item": [ {
        "linkId": "59263",
        "prefix": "41",
        "text": "STRING:transfertofurthermenuquestionestablishedinEntryFlow",
        "type": "choice",
        "required": true,
        "repeats": false,
        "option": [ {
          "valueString": "\"present\", Selected: true"
        } ]
      } ]
    }
  }, {
    "fullUrl": "urn:uuid:f4f60c21-9e75-425d-8fab-e2d4a4c49838",
    "resource": {
      "resourceType": "QuestionnaireResponse",
      "id": "f4f60c21-9e75-425d-8fab-e2d4a4c49838",
      "identifier": {
        "value": "59263"
      },
      "questionnaire": {
        "reference": "urn:uuid:655c0d43-246a-4b5e-8cf8-97c9d5621bf0"
      },
      "status": "completed",
      "subject": {
        "reference": "urn:uuid:de51c35d-1c96-44cd-90fd-2d79e9522955"
      },
      "context": {
        "reference": "urn:uuid:0dde3687-b3af-4b3c-a941-eb28f6148755"
      },
      "authored": "2021-04-06T11:29:26+00:00",
      "item": [ {
        "linkId": "Tx224998",
        "text": "SYSTEM_COVIDLEVEL2",
        "answer": [ {
          "valueString": "==\"covidlevel2\""
        } ]
      } ]
    }
  }, {
    "fullUrl": "urn:uuid:655c0d43-246a-4b5e-8cf8-97c9d5621bf0",
    "resource": {
      "resourceType": "Questionnaire",
      "id": "655c0d43-246a-4b5e-8cf8-97c9d5621bf0",
      "identifier": [ {
        "value": "59263"
      } ],
      "version": "2021-04-06T11:29:26.887Z",
      "status": "active",
      "experimental": false,
      "date": "2021-04-06T11:29:26+00:00",
      "publisher": "User ID: 'HADFIELDR' User name: 'Ryan Hadfield' User skill set: 'T3'",
      "lastReviewDate": "2021-04-06",
      "contact": [ {
        "telecom": [ {
          "system": "phone",
          "value": "07777 888888"
        } ]
      } ],
      "subjectType": [ "Patient" ],
      "item": [ {
        "linkId": "59263",
        "prefix": "5900",
        "text": "SYSTEM_COVIDLEVEL2",
        "type": "choice",
        "required": true,
        "repeats": false,
        "option": [ {
          "valueString": "==\"covidlevel2\", Selected: true"
        }, {
          "valueString": "*, Selected: false"
        } ]
      } ]
    }
  }, {
    "fullUrl": "urn:uuid:9727c7ea-99f7-42e6-acb9-1dc05ec14c48",
    "resource": {
      "resourceType": "QuestionnaireResponse",
      "id": "9727c7ea-99f7-42e6-acb9-1dc05ec14c48",
      "identifier": {
        "value": "59263"
      },
      "questionnaire": {
        "reference": "urn:uuid:d6e1e316-0bf5-4145-827d-7c373fc28d65"
      },
      "status": "completed",
      "subject": {
        "reference": "urn:uuid:de51c35d-1c96-44cd-90fd-2d79e9522955"
      },
      "context": {
        "reference": "urn:uuid:0dde3687-b3af-4b3c-a941-eb28f6148755"
      },
      "authored": "2021-04-06T11:29:26+00:00",
      "item": [ {
        "linkId": "Tx225069",
        "text": "What is the reason for the contact?",
        "answer": [ {
          "valueString": "a prescription request"
        } ]
      } ]
    }
  }, {
    "fullUrl": "urn:uuid:d6e1e316-0bf5-4145-827d-7c373fc28d65",
    "resource": {
      "resourceType": "Questionnaire",
      "id": "d6e1e316-0bf5-4145-827d-7c373fc28d65",
      "identifier": [ {
        "value": "59263"
      } ],
      "version": "2021-04-06T11:29:26.887Z",
      "status": "active",
      "experimental": false,
      "date": "2021-04-06T11:29:26+00:00",
      "publisher": "User ID: 'HADFIELDR' User name: 'Ryan Hadfield' User skill set: 'T3'",
      "lastReviewDate": "2021-04-06",
      "contact": [ {
        "telecom": [ {
          "system": "phone",
          "value": "07777 888888"
        } ]
      } ],
      "subjectType": [ "Patient" ],
      "item": [ {
        "linkId": "59263",
        "prefix": "6000",
        "text": "What is the reason for the contact?",
        "type": "choice",
        "required": true,
        "repeats": false,
        "option": [ {
          "valueString": "a child protection/vulnerable adult concern (specify), Selected: false"
        }, {
          "valueString": "a social or domestic emergency, Selected: false"
        }, {
          "valueString": "a prescription request, Selected: true"
        }, {
          "valueString": "an appointment request, Selected: false"
        }, {
          "valueString": "a request for health or medication information, Selected: false"
        }, {
          "valueString": "public health alert information, Selected: false"
        } ]
      } ]
    }
  }, {
    "fullUrl": "urn:uuid:dc9f517f-dfb7-49fd-8f75-756aed060db6",
    "resource": {
      "resourceType": "QuestionnaireResponse",
      "id": "dc9f517f-dfb7-49fd-8f75-756aed060db6",
      "identifier": {
        "value": "59263"
      },
      "questionnaire": {
        "reference": "urn:uuid:87480345-79e0-4fd9-8aa6-cec074b85dc6"
      },
      "status": "completed",
      "subject": {
        "reference": "urn:uuid:de51c35d-1c96-44cd-90fd-2d79e9522955"
      },
      "context": {
        "reference": "urn:uuid:0dde3687-b3af-4b3c-a941-eb28f6148755"
      },
      "authored": "2021-04-06T11:29:26+00:00",
      "item": [ {
        "linkId": "Tx220957",
        "text": "Is this contact about a new or worsening illness?",
        "answer": [ {
          "valueString": "no"
        } ]
      } ]
    }
  }, {
    "fullUrl": "urn:uuid:87480345-79e0-4fd9-8aa6-cec074b85dc6",
    "resource": {
      "resourceType": "Questionnaire",
      "id": "87480345-79e0-4fd9-8aa6-cec074b85dc6",
      "identifier": [ {
        "value": "59263"
      } ],
      "version": "2021-04-06T11:29:26.887Z",
      "status": "active",
      "experimental": false,
      "date": "2021-04-06T11:29:26+00:00",
      "publisher": "User ID: 'HADFIELDR' User name: 'Ryan Hadfield' User skill set: 'T3'",
      "lastReviewDate": "2021-04-06",
      "contact": [ {
        "telecom": [ {
          "system": "phone",
          "value": "07777 888888"
        } ]
      } ],
      "subjectType": [ "Patient" ],
      "item": [ {
        "linkId": "59263",
        "prefix": "1400",
        "text": "Is this contact about a new or worsening illness?",
        "type": "choice",
        "required": true,
        "repeats": false,
        "option": [ {
          "valueString": "yes, Selected: false"
        }, {
          "valueString": "not sure, Selected: false"
        }, {
          "valueString": "no, Selected: true"
        } ]
      } ]
    }
  }, {
    "fullUrl": "urn:uuid:6e4e93b8-ec65-4341-80e3-9bb832d9ad61",
    "resource": {
      "resourceType": "QuestionnaireResponse",
      "id": "6e4e93b8-ec65-4341-80e3-9bb832d9ad61",
      "identifier": {
        "value": "59263"
      },
      "questionnaire": {
        "reference": "urn:uuid:19078120-4b23-420c-b743-30f4e5ec05ed"
      },
      "status": "completed",
      "subject": {
        "reference": "urn:uuid:de51c35d-1c96-44cd-90fd-2d79e9522955"
      },
      "context": {
        "reference": "urn:uuid:0dde3687-b3af-4b3c-a941-eb28f6148755"
      },
      "authored": "2021-04-06T11:29:26+00:00",
      "item": [ {
        "linkId": "Tx221352",
        "text": "Have you got enough medication to last until the surgery opens?",
        "answer": [ {
          "valueString": "no"
        } ]
      } ]
    }
  }, {
    "fullUrl": "urn:uuid:19078120-4b23-420c-b743-30f4e5ec05ed",
    "resource": {
      "resourceType": "Questionnaire",
      "id": "19078120-4b23-420c-b743-30f4e5ec05ed",
      "identifier": [ {
        "value": "59263"
      } ],
      "version": "2021-04-06T11:29:26.887Z",
      "status": "active",
      "experimental": false,
      "date": "2021-04-06T11:29:26+00:00",
      "publisher": "User ID: 'HADFIELDR' User name: 'Ryan Hadfield' User skill set: 'T3'",
      "lastReviewDate": "2021-04-06",
      "contact": [ {
        "telecom": [ {
          "system": "phone",
          "value": "07777 888888"
        } ]
      } ],
      "subjectType": [ "Patient" ],
      "item": [ {
        "linkId": "59263",
        "prefix": "1500",
        "text": "Have you got enough medication to last until the surgery opens?",
        "type": "choice",
        "required": true,
        "repeats": false,
        "option": [ {
          "valueString": "yes, Selected: false"
        }, {
          "valueString": "not sure, Selected: false"
        }, {
          "valueString": "no, Selected: true"
        } ]
      } ]
    }
  }, {
    "fullUrl": "urn:uuid:846f1601-f13a-443f-b284-240191c7a703",
    "resource": {
      "resourceType": "QuestionnaireResponse",
      "id": "846f1601-f13a-443f-b284-240191c7a703",
      "identifier": {
        "value": "59263"
      },
      "questionnaire": {
        "reference": "urn:uuid:20356cef-1d8f-4d58-9a2a-b77a5cfe7e38"
      },
      "status": "completed",
      "subject": {
        "reference": "urn:uuid:de51c35d-1c96-44cd-90fd-2d79e9522955"
      },
      "context": {
        "reference": "urn:uuid:0dde3687-b3af-4b3c-a941-eb28f6148755"
      },
      "authored": "2021-04-06T11:29:26+00:00"
    }
  }, {
    "fullUrl": "urn:uuid:20356cef-1d8f-4d58-9a2a-b77a5cfe7e38",
    "resource": {
      "resourceType": "Questionnaire",
      "id": "20356cef-1d8f-4d58-9a2a-b77a5cfe7e38",
      "identifier": [ {
        "value": "59263"
      } ],
      "version": "2021-04-06T11:29:26.887Z",
      "status": "active",
      "experimental": false,
      "date": "2021-04-06T11:29:26+00:00",
      "publisher": "User ID: 'HADFIELDR' User name: 'Ryan Hadfield' User skill set: 'T3'",
      "lastReviewDate": "2021-04-06",
      "contact": [ {
        "telecom": [ {
          "system": "phone",
          "value": "07777 888888"
        } ]
      } ],
      "subjectType": [ "Patient" ]
    }
  }, {
    "fullUrl": "urn:uuid:ebb66753-2612-4e14-8c0a-056c4696bd1d",
    "resource": {
      "resourceType": "QuestionnaireResponse",
      "id": "ebb66753-2612-4e14-8c0a-056c4696bd1d",
      "identifier": {
        "value": "59263"
      },
      "questionnaire": {
        "reference": "urn:uuid:697bcb6e-e788-4c61-bd76-7cbca9a0427d"
      },
      "status": "completed",
      "subject": {
        "reference": "urn:uuid:de51c35d-1c96-44cd-90fd-2d79e9522955"
      },
      "context": {
        "reference": "urn:uuid:0dde3687-b3af-4b3c-a941-eb28f6148755"
      },
      "authored": "2021-04-06T11:29:26+00:00",
      "item": [ {
        "linkId": "Tx224231",
        "text": "FROM WHAT YOU HAVE HEARD IS A CONSULTATION WITH A PRESCRIBER NEEDED?",
        "answer": [ {
          "valueString": "no"
        } ]
      } ]
    }
  }, {
    "fullUrl": "urn:uuid:697bcb6e-e788-4c61-bd76-7cbca9a0427d",
    "resource": {
      "resourceType": "Questionnaire",
      "id": "697bcb6e-e788-4c61-bd76-7cbca9a0427d",
      "identifier": [ {
        "value": "59263"
      } ],
      "version": "2021-04-06T11:29:26.887Z",
      "status": "active",
      "experimental": false,
      "date": "2021-04-06T11:29:26+00:00",
      "publisher": "User ID: 'HADFIELDR' User name: 'Ryan Hadfield' User skill set: 'T3'",
      "lastReviewDate": "2021-04-06",
      "contact": [ {
        "telecom": [ {
          "system": "phone",
          "value": "07777 888888"
        } ]
      } ],
      "subjectType": [ "Patient" ],
      "item": [ {
        "linkId": "59263",
        "prefix": "0",
        "text": "FROM WHAT YOU HAVE HEARD IS A CONSULTATION WITH A PRESCRIBER NEEDED?",
        "type": "choice",
        "required": true,
        "repeats": false,
        "option": [ {
          "valueString": "yes, Selected: false"
        }, {
          "valueString": "not sure, Selected: false"
        }, {
          "valueString": "no, Selected: true"
        } ]
      } ]
    }
  }, {
    "fullUrl": "urn:uuid:914dea27-d838-426b-b5bd-11ce526544b0",
    "resource": {
      "resourceType": "QuestionnaireResponse",
      "id": "914dea27-d838-426b-b5bd-11ce526544b0",
      "identifier": {
        "value": "59263"
      },
      "questionnaire": {
        "reference": "urn:uuid:8ef17b3c-0b49-46dc-aaa8-ea8ec82765b1"
      },
      "status": "completed",
      "subject": {
        "reference": "urn:uuid:de51c35d-1c96-44cd-90fd-2d79e9522955"
      },
      "context": {
        "reference": "urn:uuid:0dde3687-b3af-4b3c-a941-eb28f6148755"
      },
      "authored": "2021-04-06T11:29:26+00:00",
      "item": [ {
        "linkId": "Tx222687",
        "text": "Have you got any of the medication available at the moment?",
        "answer": [ {
          "valueString": "no"
        } ]
      } ]
    }
  }, {
    "fullUrl": "urn:uuid:8ef17b3c-0b49-46dc-aaa8-ea8ec82765b1",
    "resource": {
      "resourceType": "Questionnaire",
      "id": "8ef17b3c-0b49-46dc-aaa8-ea8ec82765b1",
      "identifier": [ {
        "value": "59263"
      } ],
      "version": "2021-04-06T11:29:26.887Z",
      "status": "active",
      "experimental": false,
      "date": "2021-04-06T11:29:26+00:00",
      "publisher": "User ID: 'HADFIELDR' User name: 'Ryan Hadfield' User skill set: 'T3'",
      "lastReviewDate": "2021-04-06",
      "contact": [ {
        "telecom": [ {
          "system": "phone",
          "value": "07777 888888"
        } ]
      } ],
      "subjectType": [ "Patient" ],
      "item": [ {
        "linkId": "59263",
        "prefix": "200",
        "text": "Have you got any of the medication available at the moment?",
        "type": "choice",
        "required": true,
        "repeats": false,
        "option": [ {
          "valueString": "yes, Selected: false"
        }, {
          "valueString": "not sure, Selected: false"
        }, {
          "valueString": "no, Selected: true"
        } ]
      } ]
    }
  }, {
    "fullUrl": "urn:uuid:71eb48f2-1bef-4a3a-bc5f-1f6701c7339b",
    "resource": {
      "resourceType": "QuestionnaireResponse",
      "id": "71eb48f2-1bef-4a3a-bc5f-1f6701c7339b",
      "identifier": {
        "value": "59263"
      },
      "questionnaire": {
        "reference": "urn:uuid:bd3fa139-86a4-4074-b05d-277eadbaecd9"
      },
      "status": "completed",
      "subject": {
        "reference": "urn:uuid:de51c35d-1c96-44cd-90fd-2d79e9522955"
      },
      "context": {
        "reference": "urn:uuid:0dde3687-b3af-4b3c-a941-eb28f6148755"
      },
      "authored": "2021-04-06T11:29:26+00:00",
      "item": [ {
        "linkId": "Tx221367",
        "text": "When is the next dose due?",
        "answer": [ {
          "valueString": "within the next 12 hours"
        } ]
      } ]
    }
  }, {
    "fullUrl": "urn:uuid:bd3fa139-86a4-4074-b05d-277eadbaecd9",
    "resource": {
      "resourceType": "Questionnaire",
      "id": "bd3fa139-86a4-4074-b05d-277eadbaecd9",
      "identifier": [ {
        "value": "59263"
      } ],
      "version": "2021-04-06T11:29:26.887Z",
      "status": "active",
      "experimental": false,
      "date": "2021-04-06T11:29:26+00:00",
      "publisher": "User ID: 'HADFIELDR' User name: 'Ryan Hadfield' User skill set: 'T3'",
      "lastReviewDate": "2021-04-06",
      "contact": [ {
        "telecom": [ {
          "system": "phone",
          "value": "07777 888888"
        } ]
      } ],
      "subjectType": [ "Patient" ],
      "item": [ {
        "linkId": "59263",
        "prefix": "100",
        "text": "When is the next dose due?",
        "type": "choice",
        "required": true,
        "repeats": false,
        "option": [ {
          "valueString": "within the next 2 hours, Selected: false"
        }, {
          "valueString": "within the next 6 hours, Selected: false"
        }, {
          "valueString": "within the next 12 hours, Selected: true"
        }, {
          "valueString": "over 12 hours time, Selected: false"
        }, {
          "valueString": "not sure, Selected: false"
        } ]
      } ]
    }
  }, {
    "fullUrl": "urn:uuid:609bbdf4-54c9-43d2-98a8-485af6d4d4a5",
    "resource": {
      "resourceType": "QuestionnaireResponse",
      "id": "609bbdf4-54c9-43d2-98a8-485af6d4d4a5",
      "identifier": {
        "value": "59263"
      },
      "questionnaire": {
        "reference": "urn:uuid:0f6af934-b933-45f8-98c5-1b5b3ff27e33"
      },
      "status": "completed",
      "subject": {
        "reference": "urn:uuid:de51c35d-1c96-44cd-90fd-2d79e9522955"
      },
      "context": {
        "reference": "urn:uuid:0dde3687-b3af-4b3c-a941-eb28f6148755"
      },
      "authored": "2021-04-06T11:29:26+00:00",
      "item": [ {
        "linkId": "Tx223441",
        "text": "STRING:SDPCRepeatPrescription",
        "answer": [ {
          "valueString": "\"PC repeat prescription\""
        } ]
      } ]
    }
  }, {
    "fullUrl": "urn:uuid:0f6af934-b933-45f8-98c5-1b5b3ff27e33",
    "resource": {
      "resourceType": "Questionnaire",
      "id": "0f6af934-b933-45f8-98c5-1b5b3ff27e33",
      "identifier": [ {
        "value": "59263"
      } ],
      "version": "2021-04-06T11:29:26.887Z",
      "status": "active",
      "experimental": false,
      "date": "2021-04-06T11:29:26+00:00",
      "publisher": "User ID: 'HADFIELDR' User name: 'Ryan Hadfield' User skill set: 'T3'",
      "lastReviewDate": "2021-04-06",
      "contact": [ {
        "telecom": [ {
          "system": "phone",
          "value": "07777 888888"
        } ]
      } ],
      "subjectType": [ "Patient" ],
      "item": [ {
        "linkId": "59263",
        "prefix": "1200",
        "text": "STRING:SDPCRepeatPrescription",
        "type": "choice",
        "required": true,
        "repeats": false,
        "option": [ {
          "valueString": "\"PC repeat prescription\", Selected: true"
        } ]
      } ]
    }
  }, {
    "fullUrl": "urn:uuid:9d88c1f3-a17e-45fb-93af-5f8127adf9e2",
    "resource": {
      "resourceType": "QuestionnaireResponse",
      "id": "9d88c1f3-a17e-45fb-93af-5f8127adf9e2",
      "identifier": {
        "value": "59263"
      },
      "questionnaire": {
        "reference": "urn:uuid:a354e2f0-feb6-4133-9acb-26937aa35fe3"
      },
      "status": "completed",
      "subject": {
        "reference": "urn:uuid:de51c35d-1c96-44cd-90fd-2d79e9522955"
      },
      "context": {
        "reference": "urn:uuid:0dde3687-b3af-4b3c-a941-eb28f6148755"
      },
      "authored": "2021-04-06T11:29:26+00:00"
    }
  }, {
    "fullUrl": "urn:uuid:a354e2f0-feb6-4133-9acb-26937aa35fe3",
    "resource": {
      "resourceType": "Questionnaire",
      "id": "a354e2f0-feb6-4133-9acb-26937aa35fe3",
      "identifier": [ {
        "value": "59263"
      } ],
      "version": "2021-04-06T11:29:26.887Z",
      "status": "active",
      "experimental": false,
      "date": "2021-04-06T11:29:26+00:00",
      "publisher": "User ID: 'HADFIELDR' User name: 'Ryan Hadfield' User skill set: 'T3'",
      "lastReviewDate": "2021-04-06",
      "contact": [ {
        "telecom": [ {
          "system": "phone",
          "value": "07777 888888"
        } ]
      } ],
      "subjectType": [ "Patient" ]
    }
  }, {
    "fullUrl": "urn:uuid:e1adb1e2-8246-4c88-856c-193bb51d3996",
    "resource": {
      "resourceType": "QuestionnaireResponse",
      "id": "e1adb1e2-8246-4c88-856c-193bb51d3996",
      "identifier": {
        "value": "59263"
      },
      "questionnaire": {
        "reference": "urn:uuid:d74bf603-8592-4ffa-9b68-9e93217469fb"
      },
      "status": "completed",
      "subject": {
        "reference": "urn:uuid:de51c35d-1c96-44cd-90fd-2d79e9522955"
      },
      "context": {
        "reference": "urn:uuid:0dde3687-b3af-4b3c-a941-eb28f6148755"
      },
      "authored": "2021-04-06T11:29:26+00:00",
      "item": [ {
        "linkId": "Tx220074",
        "text": "What is the reason for the contact?",
        "answer": [ {
          "valueString": "an injury or other health problem"
        } ]
      } ]
    }
  }, {
    "fullUrl": "urn:uuid:d74bf603-8592-4ffa-9b68-9e93217469fb",
    "resource": {
      "resourceType": "Questionnaire",
      "id": "d74bf603-8592-4ffa-9b68-9e93217469fb",
      "identifier": [ {
        "value": "59263"
      } ],
      "version": "2021-04-06T11:29:26.887Z",
      "status": "active",
      "experimental": false,
      "date": "2021-04-06T11:29:26+00:00",
      "publisher": "User ID: 'HADFIELDR' User name: 'Ryan Hadfield' User skill set: 'T3'",
      "lastReviewDate": "2021-04-06",
      "contact": [ {
        "telecom": [ {
          "system": "phone",
          "value": "07777 888888"
        } ]
      } ],
      "subjectType": [ "Patient" ],
      "item": [ {
        "linkId": "59263",
        "prefix": "5",
        "text": "What is the reason for the contact?",
        "type": "choice",
        "required": true,
        "repeats": false,
        "option": [ {
          "valueString": "an injury or other health problem, Selected: true"
        }, {
          "valueString": "labour or childbirth, Selected: false"
        }, {
          "valueString": "a need to access another healthcare service, Selected: false"
        }, {
          "valueString": "a healthcare professional requesting contact with another clinician, Selected: false"
        }, {
          "valueString": "a report of results or tests, Selected: false"
        }, {
          "valueString": "a possible failure of contraception, Selected: false"
        }, {
          "valueString": "more, Selected: false"
        } ]
      } ]
    }
  }, {
    "fullUrl": "urn:uuid:aea14b5e-66a3-44c6-82f6-d8858aace17f",
    "resource": {
      "resourceType": "QuestionnaireResponse",
      "id": "aea14b5e-66a3-44c6-82f6-d8858aace17f",
      "identifier": {
        "value": "59263"
      },
      "questionnaire": {
        "reference": "urn:uuid:102ab025-8684-4ff7-a502-e1d3e029d893"
      },
      "status": "completed",
      "subject": {
        "reference": "urn:uuid:de51c35d-1c96-44cd-90fd-2d79e9522955"
      },
      "context": {
        "reference": "urn:uuid:0dde3687-b3af-4b3c-a941-eb28f6148755"
      },
      "authored": "2021-04-06T11:29:26+00:00",
      "item": [ {
        "linkId": "Tx221807",
        "text": "STRING:to'Immediatethreatstolife(SPA/OOHversion)'-'Majorbloodloss'stem",
        "answer": [ {
          "valueString": "\"present\""
        } ]
      } ]
    }
  }, {
    "fullUrl": "urn:uuid:102ab025-8684-4ff7-a502-e1d3e029d893",
    "resource": {
      "resourceType": "Questionnaire",
      "id": "102ab025-8684-4ff7-a502-e1d3e029d893",
      "identifier": [ {
        "value": "59263"
      } ],
      "version": "2021-04-06T11:29:26.887Z",
      "status": "active",
      "experimental": false,
      "date": "2021-04-06T11:29:26+00:00",
      "publisher": "User ID: 'HADFIELDR' User name: 'Ryan Hadfield' User skill set: 'T3'",
      "lastReviewDate": "2021-04-06",
      "contact": [ {
        "telecom": [ {
          "system": "phone",
          "value": "07777 888888"
        } ]
      } ],
      "subjectType": [ "Patient" ],
      "item": [ {
        "linkId": "59263",
        "prefix": "200",
        "text": "STRING:to'Immediatethreatstolife(SPA/OOHversion)'-'Majorbloodloss'stem",
        "type": "choice",
        "required": true,
        "repeats": false,
        "option": [ {
          "valueString": "\"present\", Selected: true"
        } ]
      } ]
    }
  }, {
    "fullUrl": "urn:uuid:ce821950-febe-42d5-af67-ecf646693efe",
    "resource": {
      "resourceType": "QuestionnaireResponse",
      "id": "ce821950-febe-42d5-af67-ecf646693efe",
      "identifier": {
        "value": "59263"
      },
      "questionnaire": {
        "reference": "urn:uuid:62c8e02a-5234-454b-8a01-52dffa28539f"
      },
      "status": "completed",
      "subject": {
        "reference": "urn:uuid:de51c35d-1c96-44cd-90fd-2d79e9522955"
      },
      "context": {
        "reference": "urn:uuid:0dde3687-b3af-4b3c-a941-eb28f6148755"
      },
      "authored": "2021-04-06T11:29:26+00:00"
    }
  }, {
    "fullUrl": "urn:uuid:62c8e02a-5234-454b-8a01-52dffa28539f",
    "resource": {
      "resourceType": "Questionnaire",
      "id": "62c8e02a-5234-454b-8a01-52dffa28539f",
      "identifier": [ {
        "value": "59263"
      } ],
      "version": "2021-04-06T11:29:26.887Z",
      "status": "active",
      "experimental": false,
      "date": "2021-04-06T11:29:26+00:00",
      "publisher": "User ID: 'HADFIELDR' User name: 'Ryan Hadfield' User skill set: 'T3'",
      "lastReviewDate": "2021-04-06",
      "contact": [ {
        "telecom": [ {
          "system": "phone",
          "value": "07777 888888"
        } ]
      } ],
      "subjectType": [ "Patient" ]
    }
  }, {
    "fullUrl": "urn:uuid:0224fac7-5757-49b1-8abd-6cee915f695b",
    "resource": {
      "resourceType": "QuestionnaireResponse",
      "id": "0224fac7-5757-49b1-8abd-6cee915f695b",
      "identifier": {
        "value": "59263"
      },
      "questionnaire": {
        "reference": "urn:uuid:ba38a605-af9c-4de5-b624-50be2d620702"
      },
      "status": "completed",
      "subject": {
        "reference": "urn:uuid:de51c35d-1c96-44cd-90fd-2d79e9522955"
      },
      "context": {
        "reference": "urn:uuid:0dde3687-b3af-4b3c-a941-eb28f6148755"
      },
      "authored": "2021-04-06T11:29:26+00:00",
      "item": [ {
        "linkId": "Tx221799",
        "text": "STRING:injury,illnessorlabourestablishedinEntryFlow",
        "answer": [ {
          "valueString": "\"present\""
        } ]
      } ]
    }
  }, {
    "fullUrl": "urn:uuid:ba38a605-af9c-4de5-b624-50be2d620702",
    "resource": {
      "resourceType": "Questionnaire",
      "id": "ba38a605-af9c-4de5-b624-50be2d620702",
      "identifier": [ {
        "value": "59263"
      } ],
      "version": "2021-04-06T11:29:26.887Z",
      "status": "active",
      "experimental": false,
      "date": "2021-04-06T11:29:26+00:00",
      "publisher": "User ID: 'HADFIELDR' User name: 'Ryan Hadfield' User skill set: 'T3'",
      "lastReviewDate": "2021-04-06",
      "contact": [ {
        "telecom": [ {
          "system": "phone",
          "value": "07777 888888"
        } ]
      } ],
      "subjectType": [ "Patient" ],
      "item": [ {
        "linkId": "59263",
        "prefix": "0",
        "text": "STRING:injury,illnessorlabourestablishedinEntryFlow",
        "type": "choice",
        "required": true,
        "repeats": false,
        "option": [ {
          "valueString": "\"present\", Selected: true"
        } ]
      } ]
    }
  }, {
    "fullUrl": "urn:uuid:abb5ddff-9c19-478a-8b66-3c89f9800c51",
    "resource": {
      "resourceType": "QuestionnaireResponse",
      "id": "abb5ddff-9c19-478a-8b66-3c89f9800c51",
      "identifier": {
        "value": "59263"
      },
      "questionnaire": {
        "reference": "urn:uuid:9ca928f7-0920-4414-a3c9-3ea0f8f09b04"
      },
      "status": "completed",
      "subject": {
        "reference": "urn:uuid:de51c35d-1c96-44cd-90fd-2d79e9522955"
      },
      "context": {
        "reference": "urn:uuid:0dde3687-b3af-4b3c-a941-eb28f6148755"
      },
      "authored": "2021-04-06T11:29:26+00:00",
      "item": [ {
        "linkId": "Tx224120",
        "text": "Have you been bleeding RED BLOOD very heavily IN THE LAST 2 HOURS?",
        "answer": [ {
          "valueString": "no"
        } ]
      } ]
    }
  }, {
    "fullUrl": "urn:uuid:9ca928f7-0920-4414-a3c9-3ea0f8f09b04",
    "resource": {
      "resourceType": "Questionnaire",
      "id": "9ca928f7-0920-4414-a3c9-3ea0f8f09b04",
      "identifier": [ {
        "value": "59263"
      } ],
      "version": "2021-04-06T11:29:26.887Z",
      "status": "active",
      "experimental": false,
      "date": "2021-04-06T11:29:26+00:00",
      "publisher": "User ID: 'HADFIELDR' User name: 'Ryan Hadfield' User skill set: 'T3'",
      "lastReviewDate": "2021-04-06",
      "contact": [ {
        "telecom": [ {
          "system": "phone",
          "value": "07777 888888"
        } ]
      } ],
      "subjectType": [ "Patient" ],
      "item": [ {
        "linkId": "59263",
        "prefix": "10100",
        "text": "Have you been bleeding RED BLOOD very heavily IN THE LAST 2 HOURS?",
        "type": "choice",
        "required": true,
        "repeats": false,
        "option": [ {
          "valueString": "yes, Selected: false"
        }, {
          "valueString": "not sure, Selected: false"
        }, {
          "valueString": "no, Selected: true"
        } ]
      } ]
    }
  }, {
    "fullUrl": "urn:uuid:5baafaa9-b725-4a2d-8c24-b271c324e8fd",
    "resource": {
      "resourceType": "QuestionnaireResponse",
      "id": "5baafaa9-b725-4a2d-8c24-b271c324e8fd",
      "identifier": {
        "value": "59263"
      },
      "questionnaire": {
        "reference": "urn:uuid:ecb4fbd0-d1e4-4763-ba33-9e1b3a182fb0"
      },
      "status": "completed",
      "subject": {
        "reference": "urn:uuid:de51c35d-1c96-44cd-90fd-2d79e9522955"
      },
      "context": {
        "reference": "urn:uuid:0dde3687-b3af-4b3c-a941-eb28f6148755"
      },
      "authored": "2021-04-06T11:29:26+00:00",
      "item": [ {
        "linkId": "Tx221343",
        "text": "SocialConcernsExcluded",
        "answer": [ {
          "valueString": "*"
        } ]
      } ]
    }
  }, {
    "fullUrl": "urn:uuid:ecb4fbd0-d1e4-4763-ba33-9e1b3a182fb0",
    "resource": {
      "resourceType": "Questionnaire",
      "id": "ecb4fbd0-d1e4-4763-ba33-9e1b3a182fb0",
      "identifier": [ {
        "value": "59263"
      } ],
      "version": "2021-04-06T11:29:26.887Z",
      "status": "active",
      "experimental": false,
      "date": "2021-04-06T11:29:26+00:00",
      "publisher": "User ID: 'HADFIELDR' User name: 'Ryan Hadfield' User skill set: 'T3'",
      "lastReviewDate": "2021-04-06",
      "contact": [ {
        "telecom": [ {
          "system": "phone",
          "value": "07777 888888"
        } ]
      } ],
      "subjectType": [ "Patient" ],
      "item": [ {
        "linkId": "59263",
        "prefix": "1100",
        "text": "SocialConcernsExcluded",
        "type": "choice",
        "required": true,
        "repeats": false,
        "option": [ {
          "valueString": "==\"present\", Selected: false"
        }, {
          "valueString": "*, Selected: true"
        } ]
      } ]
    }
  }, {
    "fullUrl": "urn:uuid:fa3ddd4d-171d-42fc-b586-01e4fcb9fc32",
    "resource": {
      "resourceType": "QuestionnaireResponse",
      "id": "fa3ddd4d-171d-42fc-b586-01e4fcb9fc32",
      "identifier": {
        "value": "59263"
      },
      "questionnaire": {
        "reference": "urn:uuid:9a26cc03-1b38-45e6-b314-7478507f85d7"
      },
      "status": "completed",
      "subject": {
        "reference": "urn:uuid:de51c35d-1c96-44cd-90fd-2d79e9522955"
      },
      "context": {
        "reference": "urn:uuid:0dde3687-b3af-4b3c-a941-eb28f6148755"
      },
      "authored": "2021-04-06T11:29:26+00:00",
      "item": [ {
        "linkId": "Tx130011",
        "text": "What is the main problem?"
      } ]
    }
  }, {
    "fullUrl": "urn:uuid:9a26cc03-1b38-45e6-b314-7478507f85d7",
    "resource": {
      "resourceType": "Questionnaire",
      "id": "9a26cc03-1b38-45e6-b314-7478507f85d7",
      "identifier": [ {
        "value": "59263"
      } ],
      "version": "2021-04-06T11:29:26.887Z",
      "status": "active",
      "experimental": false,
      "date": "2021-04-06T11:29:26+00:00",
      "publisher": "User ID: 'HADFIELDR' User name: 'Ryan Hadfield' User skill set: 'T3'",
      "lastReviewDate": "2021-04-06",
      "contact": [ {
        "telecom": [ {
          "system": "phone",
          "value": "07777 888888"
        } ]
      } ],
      "subjectType": [ "Patient" ],
      "item": [ {
        "linkId": "59263",
        "prefix": "2300",
        "text": "What is the main problem?",
        "type": "choice",
        "required": true,
        "repeats": false,
        "option": [ {
          "valueString": "the individual has been told to follow a particular course of action (specify), Selected: false"
        }, {
          "valueString": "the individual is an identified frequent caller, Selected: false"
        }, {
          "valueString": "injury (specify), Selected: false"
        }, {
          "valueString": "illness or other health problem (specify), Selected: false"
        }, {
          "valueString": "child protection/vulnerable adult concern, Selected: false"
        }, {
          "valueString": "social or domestic emergency, Selected: false"
        }, {
          "valueString": "the environment potentially poses an immediate threat to life (specify), Selected: false"
        } ]
      } ]
    }
  }, {
    "fullUrl": "urn:uuid:8bf6dcf0-c0bb-4b85-a2f0-0d3330289195",
    "resource": {
      "resourceType": "QuestionnaireResponse",
      "id": "8bf6dcf0-c0bb-4b85-a2f0-0d3330289195",
      "identifier": {
        "value": "59263"
      },
      "questionnaire": {
        "reference": "urn:uuid:40992c3a-c04c-4fc1-9a3b-6d982f057536"
      },
      "status": "completed",
      "subject": {
        "reference": "urn:uuid:de51c35d-1c96-44cd-90fd-2d79e9522955"
      },
      "context": {
        "reference": "urn:uuid:0dde3687-b3af-4b3c-a941-eb28f6148755"
      },
      "authored": "2021-04-06T11:29:26+00:00",
      "item": [ {
        "linkId": "Tx220074",
        "text": "What is the reason for the contact?",
        "answer": [ {
          "valueString": "more"
        } ]
      } ]
    }
  }, {
    "fullUrl": "urn:uuid:40992c3a-c04c-4fc1-9a3b-6d982f057536",
    "resource": {
      "resourceType": "Questionnaire",
      "id": "40992c3a-c04c-4fc1-9a3b-6d982f057536",
      "identifier": [ {
        "value": "59263"
      } ],
      "version": "2021-04-06T11:29:26.887Z",
      "status": "active",
      "experimental": false,
      "date": "2021-04-06T11:29:26+00:00",
      "publisher": "User ID: 'HADFIELDR' User name: 'Ryan Hadfield' User skill set: 'T3'",
      "lastReviewDate": "2021-04-06",
      "contact": [ {
        "telecom": [ {
          "system": "phone",
          "value": "07777 888888"
        } ]
      } ],
      "subjectType": [ "Patient" ],
      "item": [ {
        "linkId": "59263",
        "prefix": "5",
        "text": "What is the reason for the contact?",
        "type": "choice",
        "required": true,
        "repeats": false,
        "option": [ {
          "valueString": "an injury or other health problem, Selected: false"
        }, {
          "valueString": "labour or childbirth, Selected: false"
        }, {
          "valueString": "a need to access another healthcare service, Selected: false"
        }, {
          "valueString": "a healthcare professional requesting contact with another clinician, Selected: false"
        }, {
          "valueString": "a report of results or tests, Selected: false"
        }, {
          "valueString": "a possible failure of contraception, Selected: false"
        }, {
          "valueString": "more, Selected: true"
        } ]
      } ]
    }
  }, {
    "fullUrl": "urn:uuid:6169c260-60b7-456d-864c-cd2e57eb147f",
    "resource": {
      "resourceType": "QuestionnaireResponse",
      "id": "6169c260-60b7-456d-864c-cd2e57eb147f",
      "identifier": {
        "value": "59263"
      },
      "questionnaire": {
        "reference": "urn:uuid:7c1e0ab7-b181-4cb9-8d91-2bbe77904d5d"
      },
      "status": "completed",
      "subject": {
        "reference": "urn:uuid:de51c35d-1c96-44cd-90fd-2d79e9522955"
      },
      "context": {
        "reference": "urn:uuid:0dde3687-b3af-4b3c-a941-eb28f6148755"
      },
      "authored": "2021-04-06T11:29:26+00:00",
      "item": [ {
        "linkId": "Tx221793",
        "text": "STRING:to'Social&information'-further'Callreason'menu",
        "answer": [ {
          "valueString": "\"present\""
        } ]
      } ]
    }
  }, {
    "fullUrl": "urn:uuid:7c1e0ab7-b181-4cb9-8d91-2bbe77904d5d",
    "resource": {
      "resourceType": "Questionnaire",
      "id": "7c1e0ab7-b181-4cb9-8d91-2bbe77904d5d",
      "identifier": [ {
        "value": "59263"
      } ],
      "version": "2021-04-06T11:29:26.887Z",
      "status": "active",
      "experimental": false,
      "date": "2021-04-06T11:29:26+00:00",
      "publisher": "User ID: 'HADFIELDR' User name: 'Ryan Hadfield' User skill set: 'T3'",
      "lastReviewDate": "2021-04-06",
      "contact": [ {
        "telecom": [ {
          "system": "phone",
          "value": "07777 888888"
        } ]
      } ],
      "subjectType": [ "Patient" ],
      "item": [ {
        "linkId": "59263",
        "prefix": "600",
        "text": "STRING:to'Social&information'-further'Callreason'menu",
        "type": "choice",
        "required": true,
        "repeats": false,
        "option": [ {
          "valueString": "\"present\", Selected: true"
        } ]
      } ]
    }
  }, {
    "fullUrl": "urn:uuid:389eb8e5-97cd-4e26-bd06-9d9c495d6b53",
    "resource": {
      "resourceType": "QuestionnaireResponse",
      "id": "389eb8e5-97cd-4e26-bd06-9d9c495d6b53",
      "identifier": {
        "value": "59263"
      },
      "questionnaire": {
        "reference": "urn:uuid:f6af14bf-8822-4c7a-b81d-1d59dfd9c2c7"
      },
      "status": "completed",
      "subject": {
        "reference": "urn:uuid:de51c35d-1c96-44cd-90fd-2d79e9522955"
      },
      "context": {
        "reference": "urn:uuid:0dde3687-b3af-4b3c-a941-eb28f6148755"
      },
      "authored": "2021-04-06T11:29:26+00:00"
    }
  }, {
    "fullUrl": "urn:uuid:f6af14bf-8822-4c7a-b81d-1d59dfd9c2c7",
    "resource": {
      "resourceType": "Questionnaire",
      "id": "f6af14bf-8822-4c7a-b81d-1d59dfd9c2c7",
      "identifier": [ {
        "value": "59263"
      } ],
      "version": "2021-04-06T11:29:26.887Z",
      "status": "active",
      "experimental": false,
      "date": "2021-04-06T11:29:26+00:00",
      "publisher": "User ID: 'HADFIELDR' User name: 'Ryan Hadfield' User skill set: 'T3'",
      "lastReviewDate": "2021-04-06",
      "contact": [ {
        "telecom": [ {
          "system": "phone",
          "value": "07777 888888"
        } ]
      } ],
      "subjectType": [ "Patient" ]
    }
  }, {
    "fullUrl": "urn:uuid:d5512387-e8b4-4d7e-8b2a-590639656528",
    "resource": {
      "resourceType": "QuestionnaireResponse",
      "id": "d5512387-e8b4-4d7e-8b2a-590639656528",
      "identifier": {
        "value": "59263"
      },
      "questionnaire": {
        "reference": "urn:uuid:9fecc23d-3d1b-4302-84c1-08cc73a63505"
      },
      "status": "completed",
      "subject": {
        "reference": "urn:uuid:de51c35d-1c96-44cd-90fd-2d79e9522955"
      },
      "context": {
        "reference": "urn:uuid:0dde3687-b3af-4b3c-a941-eb28f6148755"
      },
      "authored": "2021-04-06T11:29:26+00:00",
      "item": [ {
        "linkId": "Tx221804",
        "text": "STRING:transfertofurthermenuquestionestablishedinEntryFlow",
        "answer": [ {
          "valueString": "\"present\""
        } ]
      } ]
    }
  }, {
    "fullUrl": "urn:uuid:9fecc23d-3d1b-4302-84c1-08cc73a63505",
    "resource": {
      "resourceType": "Questionnaire",
      "id": "9fecc23d-3d1b-4302-84c1-08cc73a63505",
      "identifier": [ {
        "value": "59263"
      } ],
      "version": "2021-04-06T11:29:26.887Z",
      "status": "active",
      "experimental": false,
      "date": "2021-04-06T11:29:26+00:00",
      "publisher": "User ID: 'HADFIELDR' User name: 'Ryan Hadfield' User skill set: 'T3'",
      "lastReviewDate": "2021-04-06",
      "contact": [ {
        "telecom": [ {
          "system": "phone",
          "value": "07777 888888"
        } ]
      } ],
      "subjectType": [ "Patient" ],
      "item": [ {
        "linkId": "59263",
        "prefix": "41",
        "text": "STRING:transfertofurthermenuquestionestablishedinEntryFlow",
        "type": "choice",
        "required": true,
        "repeats": false,
        "option": [ {
          "valueString": "\"present\", Selected: true"
        } ]
      } ]
    }
  }, {
    "fullUrl": "urn:uuid:38da3fd0-9f3b-4ece-83cb-232184798cba",
    "resource": {
      "resourceType": "QuestionnaireResponse",
      "id": "38da3fd0-9f3b-4ece-83cb-232184798cba",
      "identifier": {
        "value": "59263"
      },
      "questionnaire": {
        "reference": "urn:uuid:ab71fd27-76e8-49ba-a678-270f822afd17"
      },
      "status": "completed",
      "subject": {
        "reference": "urn:uuid:de51c35d-1c96-44cd-90fd-2d79e9522955"
      },
      "context": {
        "reference": "urn:uuid:0dde3687-b3af-4b3c-a941-eb28f6148755"
      },
      "authored": "2021-04-06T11:29:26+00:00",
      "item": [ {
        "linkId": "Tx224998",
        "text": "SYSTEM_COVIDLEVEL2",
        "answer": [ {
          "valueString": "==\"covidlevel2\""
        } ]
      } ]
    }
  }, {
    "fullUrl": "urn:uuid:ab71fd27-76e8-49ba-a678-270f822afd17",
    "resource": {
      "resourceType": "Questionnaire",
      "id": "ab71fd27-76e8-49ba-a678-270f822afd17",
      "identifier": [ {
        "value": "59263"
      } ],
      "version": "2021-04-06T11:29:26.887Z",
      "status": "active",
      "experimental": false,
      "date": "2021-04-06T11:29:26+00:00",
      "publisher": "User ID: 'HADFIELDR' User name: 'Ryan Hadfield' User skill set: 'T3'",
      "lastReviewDate": "2021-04-06",
      "contact": [ {
        "telecom": [ {
          "system": "phone",
          "value": "07777 888888"
        } ]
      } ],
      "subjectType": [ "Patient" ],
      "item": [ {
        "linkId": "59263",
        "prefix": "5900",
        "text": "SYSTEM_COVIDLEVEL2",
        "type": "choice",
        "required": true,
        "repeats": false,
        "option": [ {
          "valueString": "==\"covidlevel2\", Selected: true"
        }, {
          "valueString": "*, Selected: false"
        } ]
      } ]
    }
  }, {
    "fullUrl": "urn:uuid:c58cce4e-1113-4d1e-bbae-fb0e56415bb5",
    "resource": {
      "resourceType": "QuestionnaireResponse",
      "id": "c58cce4e-1113-4d1e-bbae-fb0e56415bb5",
      "identifier": {
        "value": "59263"
      },
      "questionnaire": {
        "reference": "urn:uuid:205319bd-f047-41aa-a4ce-6a57955ee96a"
      },
      "status": "completed",
      "subject": {
        "reference": "urn:uuid:de51c35d-1c96-44cd-90fd-2d79e9522955"
      },
      "context": {
        "reference": "urn:uuid:0dde3687-b3af-4b3c-a941-eb28f6148755"
      },
      "authored": "2021-04-06T11:29:26+00:00",
      "item": [ {
        "linkId": "Tx225069",
        "text": "What is the reason for the contact?",
        "answer": [ {
          "valueString": "a prescription request"
        } ]
      } ]
    }
  }, {
    "fullUrl": "urn:uuid:205319bd-f047-41aa-a4ce-6a57955ee96a",
    "resource": {
      "resourceType": "Questionnaire",
      "id": "205319bd-f047-41aa-a4ce-6a57955ee96a",
      "identifier": [ {
        "value": "59263"
      } ],
      "version": "2021-04-06T11:29:26.887Z",
      "status": "active",
      "experimental": false,
      "date": "2021-04-06T11:29:26+00:00",
      "publisher": "User ID: 'HADFIELDR' User name: 'Ryan Hadfield' User skill set: 'T3'",
      "lastReviewDate": "2021-04-06",
      "contact": [ {
        "telecom": [ {
          "system": "phone",
          "value": "07777 888888"
        } ]
      } ],
      "subjectType": [ "Patient" ],
      "item": [ {
        "linkId": "59263",
        "prefix": "6000",
        "text": "What is the reason for the contact?",
        "type": "choice",
        "required": true,
        "repeats": false,
        "option": [ {
          "valueString": "a child protection/vulnerable adult concern (specify), Selected: false"
        }, {
          "valueString": "a social or domestic emergency, Selected: false"
        }, {
          "valueString": "a prescription request, Selected: true"
        }, {
          "valueString": "an appointment request, Selected: false"
        }, {
          "valueString": "a request for health or medication information, Selected: false"
        }, {
          "valueString": "public health alert information, Selected: false"
        } ]
      } ]
    }
  }, {
    "fullUrl": "urn:uuid:3c61966b-7a9d-4f82-8422-83e5b5843fa7",
    "resource": {
      "resourceType": "QuestionnaireResponse",
      "id": "3c61966b-7a9d-4f82-8422-83e5b5843fa7",
      "identifier": {
        "value": "59263"
      },
      "questionnaire": {
        "reference": "urn:uuid:acc15a65-b151-409c-a507-49ff97e10f8c"
      },
      "status": "completed",
      "subject": {
        "reference": "urn:uuid:de51c35d-1c96-44cd-90fd-2d79e9522955"
      },
      "context": {
        "reference": "urn:uuid:0dde3687-b3af-4b3c-a941-eb28f6148755"
      },
      "authored": "2021-04-06T11:29:26+00:00",
      "item": [ {
        "linkId": "Tx220957",
        "text": "Is this contact about a new or worsening illness?",
        "answer": [ {
          "valueString": "no"
        } ]
      } ]
    }
  }, {
    "fullUrl": "urn:uuid:acc15a65-b151-409c-a507-49ff97e10f8c",
    "resource": {
      "resourceType": "Questionnaire",
      "id": "acc15a65-b151-409c-a507-49ff97e10f8c",
      "identifier": [ {
        "value": "59263"
      } ],
      "version": "2021-04-06T11:29:26.887Z",
      "status": "active",
      "experimental": false,
      "date": "2021-04-06T11:29:26+00:00",
      "publisher": "User ID: 'HADFIELDR' User name: 'Ryan Hadfield' User skill set: 'T3'",
      "lastReviewDate": "2021-04-06",
      "contact": [ {
        "telecom": [ {
          "system": "phone",
          "value": "07777 888888"
        } ]
      } ],
      "subjectType": [ "Patient" ],
      "item": [ {
        "linkId": "59263",
        "prefix": "1400",
        "text": "Is this contact about a new or worsening illness?",
        "type": "choice",
        "required": true,
        "repeats": false,
        "option": [ {
          "valueString": "yes, Selected: false"
        }, {
          "valueString": "not sure, Selected: false"
        }, {
          "valueString": "no, Selected: true"
        } ]
      } ]
    }
  }, {
    "fullUrl": "urn:uuid:75e7d6a9-1d06-41b4-954d-fae858fe81f2",
    "resource": {
      "resourceType": "QuestionnaireResponse",
      "id": "75e7d6a9-1d06-41b4-954d-fae858fe81f2",
      "identifier": {
        "value": "59263"
      },
      "questionnaire": {
        "reference": "urn:uuid:7d86b7da-0151-4a5d-af0e-7396ea9d49c4"
      },
      "status": "completed",
      "subject": {
        "reference": "urn:uuid:de51c35d-1c96-44cd-90fd-2d79e9522955"
      },
      "context": {
        "reference": "urn:uuid:0dde3687-b3af-4b3c-a941-eb28f6148755"
      },
      "authored": "2021-04-06T11:29:26+00:00",
      "item": [ {
        "linkId": "Tx221352",
        "text": "Have you got enough medication to last until the surgery opens?",
        "answer": [ {
          "valueString": "no"
        } ]
      } ]
    }
  }, {
    "fullUrl": "urn:uuid:7d86b7da-0151-4a5d-af0e-7396ea9d49c4",
    "resource": {
      "resourceType": "Questionnaire",
      "id": "7d86b7da-0151-4a5d-af0e-7396ea9d49c4",
      "identifier": [ {
        "value": "59263"
      } ],
      "version": "2021-04-06T11:29:26.887Z",
      "status": "active",
      "experimental": false,
      "date": "2021-04-06T11:29:26+00:00",
      "publisher": "User ID: 'HADFIELDR' User name: 'Ryan Hadfield' User skill set: 'T3'",
      "lastReviewDate": "2021-04-06",
      "contact": [ {
        "telecom": [ {
          "system": "phone",
          "value": "07777 888888"
        } ]
      } ],
      "subjectType": [ "Patient" ],
      "item": [ {
        "linkId": "59263",
        "prefix": "1500",
        "text": "Have you got enough medication to last until the surgery opens?",
        "type": "choice",
        "required": true,
        "repeats": false,
        "option": [ {
          "valueString": "yes, Selected: false"
        }, {
          "valueString": "not sure, Selected: false"
        }, {
          "valueString": "no, Selected: true"
        } ]
      } ]
    }
  }, {
    "fullUrl": "urn:uuid:36d5bd56-caff-46a9-82f8-2c02aa3e1019",
    "resource": {
      "resourceType": "QuestionnaireResponse",
      "id": "36d5bd56-caff-46a9-82f8-2c02aa3e1019",
      "identifier": {
        "value": "59263"
      },
      "questionnaire": {
        "reference": "urn:uuid:4e013f6b-784f-400e-8ef6-fbe3aa68bfbe"
      },
      "status": "completed",
      "subject": {
        "reference": "urn:uuid:de51c35d-1c96-44cd-90fd-2d79e9522955"
      },
      "context": {
        "reference": "urn:uuid:0dde3687-b3af-4b3c-a941-eb28f6148755"
      },
      "authored": "2021-04-06T11:29:26+00:00"
    }
  }, {
    "fullUrl": "urn:uuid:4e013f6b-784f-400e-8ef6-fbe3aa68bfbe",
    "resource": {
      "resourceType": "Questionnaire",
      "id": "4e013f6b-784f-400e-8ef6-fbe3aa68bfbe",
      "identifier": [ {
        "value": "59263"
      } ],
      "version": "2021-04-06T11:29:26.887Z",
      "status": "active",
      "experimental": false,
      "date": "2021-04-06T11:29:26+00:00",
      "publisher": "User ID: 'HADFIELDR' User name: 'Ryan Hadfield' User skill set: 'T3'",
      "lastReviewDate": "2021-04-06",
      "contact": [ {
        "telecom": [ {
          "system": "phone",
          "value": "07777 888888"
        } ]
      } ],
      "subjectType": [ "Patient" ]
    }
  }, {
    "fullUrl": "urn:uuid:7c799a90-4748-46ca-b2f1-59a563275e6f",
    "resource": {
      "resourceType": "QuestionnaireResponse",
      "id": "7c799a90-4748-46ca-b2f1-59a563275e6f",
      "identifier": {
        "value": "59263"
      },
      "questionnaire": {
        "reference": "urn:uuid:90a43cf5-f58e-435f-b926-126f5e6b84d4"
      },
      "status": "completed",
      "subject": {
        "reference": "urn:uuid:de51c35d-1c96-44cd-90fd-2d79e9522955"
      },
      "context": {
        "reference": "urn:uuid:0dde3687-b3af-4b3c-a941-eb28f6148755"
      },
      "authored": "2021-04-06T11:29:26+00:00",
      "item": [ {
        "linkId": "Tx224231",
        "text": "FROM WHAT YOU HAVE HEARD IS A CONSULTATION WITH A PRESCRIBER NEEDED?",
        "answer": [ {
          "valueString": "no"
        } ]
      } ]
    }
  }, {
    "fullUrl": "urn:uuid:90a43cf5-f58e-435f-b926-126f5e6b84d4",
    "resource": {
      "resourceType": "Questionnaire",
      "id": "90a43cf5-f58e-435f-b926-126f5e6b84d4",
      "identifier": [ {
        "value": "59263"
      } ],
      "version": "2021-04-06T11:29:26.887Z",
      "status": "active",
      "experimental": false,
      "date": "2021-04-06T11:29:26+00:00",
      "publisher": "User ID: 'HADFIELDR' User name: 'Ryan Hadfield' User skill set: 'T3'",
      "lastReviewDate": "2021-04-06",
      "contact": [ {
        "telecom": [ {
          "system": "phone",
          "value": "07777 888888"
        } ]
      } ],
      "subjectType": [ "Patient" ],
      "item": [ {
        "linkId": "59263",
        "prefix": "0",
        "text": "FROM WHAT YOU HAVE HEARD IS A CONSULTATION WITH A PRESCRIBER NEEDED?",
        "type": "choice",
        "required": true,
        "repeats": false,
        "option": [ {
          "valueString": "yes, Selected: false"
        }, {
          "valueString": "not sure, Selected: false"
        }, {
          "valueString": "no, Selected: true"
        } ]
      } ]
    }
  }, {
    "fullUrl": "urn:uuid:f17660fb-039f-4b82-9bab-32835d52daf2",
    "resource": {
      "resourceType": "QuestionnaireResponse",
      "id": "f17660fb-039f-4b82-9bab-32835d52daf2",
      "identifier": {
        "value": "59263"
      },
      "questionnaire": {
        "reference": "urn:uuid:977ccfdb-40ef-4f34-aaff-c386b41b77d2"
      },
      "status": "completed",
      "subject": {
        "reference": "urn:uuid:de51c35d-1c96-44cd-90fd-2d79e9522955"
      },
      "context": {
        "reference": "urn:uuid:0dde3687-b3af-4b3c-a941-eb28f6148755"
      },
      "authored": "2021-04-06T11:29:26+00:00",
      "item": [ {
        "linkId": "Tx222687",
        "text": "Have you got any of the medication available at the moment?",
        "answer": [ {
          "valueString": "no"
        } ]
      } ]
    }
  }, {
    "fullUrl": "urn:uuid:977ccfdb-40ef-4f34-aaff-c386b41b77d2",
    "resource": {
      "resourceType": "Questionnaire",
      "id": "977ccfdb-40ef-4f34-aaff-c386b41b77d2",
      "identifier": [ {
        "value": "59263"
      } ],
      "version": "2021-04-06T11:29:26.887Z",
      "status": "active",
      "experimental": false,
      "date": "2021-04-06T11:29:26+00:00",
      "publisher": "User ID: 'HADFIELDR' User name: 'Ryan Hadfield' User skill set: 'T3'",
      "lastReviewDate": "2021-04-06",
      "contact": [ {
        "telecom": [ {
          "system": "phone",
          "value": "07777 888888"
        } ]
      } ],
      "subjectType": [ "Patient" ],
      "item": [ {
        "linkId": "59263",
        "prefix": "200",
        "text": "Have you got any of the medication available at the moment?",
        "type": "choice",
        "required": true,
        "repeats": false,
        "option": [ {
          "valueString": "yes, Selected: false"
        }, {
          "valueString": "not sure, Selected: false"
        }, {
          "valueString": "no, Selected: true"
        } ]
      } ]
    }
  }, {
    "fullUrl": "urn:uuid:9c9adc55-0296-4a1b-89ee-d13408c1afa8",
    "resource": {
      "resourceType": "QuestionnaireResponse",
      "id": "9c9adc55-0296-4a1b-89ee-d13408c1afa8",
      "identifier": {
        "value": "59263"
      },
      "questionnaire": {
        "reference": "urn:uuid:b12d696b-6381-4410-a080-3dc22987cee3"
      },
      "status": "completed",
      "subject": {
        "reference": "urn:uuid:de51c35d-1c96-44cd-90fd-2d79e9522955"
      },
      "context": {
        "reference": "urn:uuid:0dde3687-b3af-4b3c-a941-eb28f6148755"
      },
      "authored": "2021-04-06T11:29:26+00:00",
      "item": [ {
        "linkId": "Tx221367",
        "text": "When is the next dose due?",
        "answer": [ {
          "valueString": "within the next 12 hours"
        } ]
      } ]
    }
  }, {
    "fullUrl": "urn:uuid:b12d696b-6381-4410-a080-3dc22987cee3",
    "resource": {
      "resourceType": "Questionnaire",
      "id": "b12d696b-6381-4410-a080-3dc22987cee3",
      "identifier": [ {
        "value": "59263"
      } ],
      "version": "2021-04-06T11:29:26.887Z",
      "status": "active",
      "experimental": false,
      "date": "2021-04-06T11:29:26+00:00",
      "publisher": "User ID: 'HADFIELDR' User name: 'Ryan Hadfield' User skill set: 'T3'",
      "lastReviewDate": "2021-04-06",
      "contact": [ {
        "telecom": [ {
          "system": "phone",
          "value": "07777 888888"
        } ]
      } ],
      "subjectType": [ "Patient" ],
      "item": [ {
        "linkId": "59263",
        "prefix": "100",
        "text": "When is the next dose due?",
        "type": "choice",
        "required": true,
        "repeats": false,
        "option": [ {
          "valueString": "within the next 2 hours, Selected: false"
        }, {
          "valueString": "within the next 6 hours, Selected: false"
        }, {
          "valueString": "within the next 12 hours, Selected: true"
        }, {
          "valueString": "over 12 hours time, Selected: false"
        }, {
          "valueString": "not sure, Selected: false"
        } ]
      } ]
    }
  }, {
    "fullUrl": "urn:uuid:496002d7-d590-4a61-a6fa-aa9901f705c1",
    "resource": {
      "resourceType": "QuestionnaireResponse",
      "id": "496002d7-d590-4a61-a6fa-aa9901f705c1",
      "identifier": {
        "value": "59263"
      },
      "questionnaire": {
        "reference": "urn:uuid:944123e1-668e-488a-8b62-e587e71dbde6"
      },
      "status": "completed",
      "subject": {
        "reference": "urn:uuid:de51c35d-1c96-44cd-90fd-2d79e9522955"
      },
      "context": {
        "reference": "urn:uuid:0dde3687-b3af-4b3c-a941-eb28f6148755"
      },
      "authored": "2021-04-06T11:29:26+00:00",
      "item": [ {
        "linkId": "Tx223441",
        "text": "STRING:SDPCRepeatPrescription",
        "answer": [ {
          "valueString": "\"PC repeat prescription\""
        } ]
      } ]
    }
  }, {
    "fullUrl": "urn:uuid:944123e1-668e-488a-8b62-e587e71dbde6",
    "resource": {
      "resourceType": "Questionnaire",
      "id": "944123e1-668e-488a-8b62-e587e71dbde6",
      "identifier": [ {
        "value": "59263"
      } ],
      "version": "2021-04-06T11:29:26.887Z",
      "status": "active",
      "experimental": false,
      "date": "2021-04-06T11:29:26+00:00",
      "publisher": "User ID: 'HADFIELDR' User name: 'Ryan Hadfield' User skill set: 'T3'",
      "lastReviewDate": "2021-04-06",
      "contact": [ {
        "telecom": [ {
          "system": "phone",
          "value": "07777 888888"
        } ]
      } ],
      "subjectType": [ "Patient" ],
      "item": [ {
        "linkId": "59263",
        "prefix": "1200",
        "text": "STRING:SDPCRepeatPrescription",
        "type": "choice",
        "required": true,
        "repeats": false,
        "option": [ {
          "valueString": "\"PC repeat prescription\", Selected: true"
        } ]
      } ]
    }
  }, {
    "fullUrl": "urn:uuid:607eff35-efa3-4f36-82e5-7ee0427ca752",
    "resource": {
      "resourceType": "QuestionnaireResponse",
      "id": "607eff35-efa3-4f36-82e5-7ee0427ca752",
      "identifier": {
        "value": "59263"
      },
      "questionnaire": {
        "reference": "urn:uuid:51081318-4409-4749-9a77-6cafc6cc839c"
      },
      "status": "completed",
      "subject": {
        "reference": "urn:uuid:de51c35d-1c96-44cd-90fd-2d79e9522955"
      },
      "context": {
        "reference": "urn:uuid:0dde3687-b3af-4b3c-a941-eb28f6148755"
      },
      "authored": "2021-04-06T11:29:26+00:00"
    }
  }, {
    "fullUrl": "urn:uuid:51081318-4409-4749-9a77-6cafc6cc839c",
    "resource": {
      "resourceType": "Questionnaire",
      "id": "51081318-4409-4749-9a77-6cafc6cc839c",
      "identifier": [ {
        "value": "59263"
      } ],
      "version": "2021-04-06T11:29:26.887Z",
      "status": "active",
      "experimental": false,
      "date": "2021-04-06T11:29:26+00:00",
      "publisher": "User ID: 'HADFIELDR' User name: 'Ryan Hadfield' User skill set: 'T3'",
      "lastReviewDate": "2021-04-06",
      "contact": [ {
        "telecom": [ {
          "system": "phone",
          "value": "07777 888888"
        } ]
      } ],
      "subjectType": [ "Patient" ]
    }
  }, {
    "fullUrl": "urn:uuid:ac6cb36c-30ba-4b5a-87e1-c7e15ccddc32",
    "resource": {
      "resourceType": "QuestionnaireResponse",
      "id": "ac6cb36c-30ba-4b5a-87e1-c7e15ccddc32",
      "identifier": {
        "value": "59263"
      },
      "questionnaire": {
        "reference": "urn:uuid:37621c08-e7da-49b2-ae1f-bccd408fe4e6"
      },
      "status": "completed",
      "subject": {
        "reference": "urn:uuid:de51c35d-1c96-44cd-90fd-2d79e9522955"
      },
      "context": {
        "reference": "urn:uuid:0dde3687-b3af-4b3c-a941-eb28f6148755"
      },
      "authored": "2021-04-06T11:29:26+00:00"
    }
  }, {
    "fullUrl": "urn:uuid:37621c08-e7da-49b2-ae1f-bccd408fe4e6",
    "resource": {
      "resourceType": "Questionnaire",
      "id": "37621c08-e7da-49b2-ae1f-bccd408fe4e6",
      "identifier": [ {
        "value": "59263"
      } ],
      "version": "2021-04-06T11:29:26.887Z",
      "status": "active",
      "experimental": false,
      "date": "2021-04-06T11:29:26+00:00",
      "publisher": "User ID: 'HADFIELDR' User name: 'Ryan Hadfield' User skill set: 'T3'",
      "lastReviewDate": "2021-04-06",
      "contact": [ {
        "telecom": [ {
          "system": "phone",
          "value": "07777 888888"
        } ]
      } ],
      "subjectType": [ "Patient" ]
    }
  }, {
    "fullUrl": "urn:uuid:7cc23ce3-34ae-470d-bbdc-5501d1998b74",
    "resource": {
      "resourceType": "Observation",
      "id": "7cc23ce3-34ae-470d-bbdc-5501d1998b74",
      "status": "final",
      "code": {
        "coding": [ {
          "system": "http://snomed.info/sct",
          "code": "33962009",
          "display": "Presenting complaint"
        } ]
      },
      "subject": {
        "reference": "urn:uuid:de51c35d-1c96-44cd-90fd-2d79e9522955"
      },
      "context": {
        "reference": "urn:uuid:0dde3687-b3af-4b3c-a941-eb28f6148755"
      },
      "valueString": "test"
    }
  }, {
    "fullUrl": "urn:uuid:10f20723-6cbd-4408-819b-1d7ad1a7697f",
    "resource": {
      "resourceType": "PractitionerRole",
      "id": "10f20723-6cbd-4408-819b-1d7ad1a7697f",
      "practitioner": {
        "reference": "urn:uuid:a734abe1-beec-4e55-a6dd-9b1cbbda6f63"
      },
      "organization": {
        "reference": "urn:uuid:df3fda87-42be-42c4-b9de-473900e4c948"
      },
      "code": [ {
        "coding": [ {
          "system": "2.16.840.1.113883.2.1.3.2.4.17.339",
          "code": "DOCTOR",
          "display": "Doctor"
        } ]
      } ]
    }
  }, {
    "fullUrl": "urn:uuid:df3fda87-42be-42c4-b9de-473900e4c948",
    "resource": {
      "resourceType": "Organization",
      "id": "df3fda87-42be-42c4-b9de-473900e4c948",
      "identifier": [ {
        "value": "RYE"
      } ],
      "name": "1.SCAS Administrator (SCAS111)"
    }
  }, {
    "fullUrl": "urn:uuid:7452662a-cd01-4587-9268-eea587f83a86",
    "resource": {
      "resourceType": "PractitionerRole",
      "id": "7452662a-cd01-4587-9268-eea587f83a86",
      "practitioner": {
        "reference": "urn:uuid:1b8e4491-53ed-40e2-bf8c-37eb4b68ac42"
      },
      "organization": {
        "reference": "urn:uuid:b66f4dd5-18ec-4957-acbd-28dcec1c99c6"
      },
      "code": [ {
        "coding": [ {
          "system": "2.16.840.1.113883.2.1.3.2.4.17.196",
          "code": "R0010",
          "display": "Medical Director"
        } ]
      } ]
    }
  }, {
    "fullUrl": "urn:uuid:b66f4dd5-18ec-4957-acbd-28dcec1c99c6",
    "resource": {
      "resourceType": "Organization",
      "id": "b66f4dd5-18ec-4957-acbd-28dcec1c99c6",
      "identifier": [ {
        "value": "RYE"
      } ],
      "name": "SCAS111"
    }
  }, {
    "fullUrl": "urn:uuid:c99a099c-e245-4688-bc0a-2573a8cc1030",
    "resource": {
      "resourceType": "RelatedPerson",
      "id": "c99a099c-e245-4688-bc0a-2573a8cc1030",
      "patient": {
        "reference": "urn:uuid:de51c35d-1c96-44cd-90fd-2d79e9522955"
      },
      "relationship": {
        "coding": [ {
          "system": "http://hl7.org/fhir/v2/0131",
          "code": "C",
          "display": "Emergency Contact"
        } ]
      },
      "telecom": [ {
        "system": "phone",
        "value": "tel:000000000000"
      } ]
    }
  }, {
    "fullUrl": "urn:uuid:80dce93c-fb0c-492e-8d14-d15f44ea8c07",
    "resource": {
      "resourceType": "Device",
      "id": "80dce93c-fb0c-492e-8d14-d15f44ea8c07",
      "model": "111 Adaptor",
      "version": "1.0.1"
    }
  }, {
    "fullUrl": "urn:uuid:406798bb-30c2-48dd-856f-3941157eb29b",
    "resource": {
      "resourceType": "List",
      "id": "406798bb-30c2-48dd-856f-3941157eb29b",
      "status": "current",
      "mode": "working",
      "title": "111 Report List",
      "code": {
        "coding": [ {
          "system": "http://snomed.info/sct",
          "code": "225390008",
          "display": "Triage"
        } ]
      },
      "subject": {
        "reference": "urn:uuid:de51c35d-1c96-44cd-90fd-2d79e9522955"
      },
      "encounter": {
        "reference": "urn:uuid:0dde3687-b3af-4b3c-a941-eb28f6148755"
      },
      "date": "2021-04-06T11:29:27+00:00",
      "source": {
        "reference": "urn:uuid:80dce93c-fb0c-492e-8d14-d15f44ea8c07"
      },
      "orderedBy": {
        "coding": [ {
          "system": "http://hl7.org/fhir/list-order",
          "code": "event-date",
          "display": "Sorted by Event Date"
        } ]
      },
      "entry": [ {
        "item": {
          "reference": "urn:uuid:c99a099c-e245-4688-bc0a-2573a8cc1030"
        }
      }, {
        "item": {
          "reference": "urn:uuid:968f47e4-029d-4567-b0b3-a7e74a408bc6"
        }
      }, {
        "item": {
          "reference": "urn:uuid:b66f4dd5-18ec-4957-acbd-28dcec1c99c6"
        }
      }, {
        "item": {
          "reference": "urn:uuid:df3fda87-42be-42c4-b9de-473900e4c948"
        }
      }, {
        "item": {
          "reference": "urn:uuid:2d0dc798-8668-47c5-aa12-7b1c1cf6ba24"
        }
      }, {
        "item": {
          "reference": "urn:uuid:1b8e4491-53ed-40e2-bf8c-37eb4b68ac42"
        }
      }, {
        "item": {
          "reference": "urn:uuid:fb62b585-acd9-43e5-9030-f3d1d50e26e6"
        }
      }, {
        "item": {
          "reference": "urn:uuid:a734abe1-beec-4e55-a6dd-9b1cbbda6f63"
        }
      }, {
        "item": {
          "reference": "urn:uuid:7cc23ce3-34ae-470d-bbdc-5501d1998b74"
        }
      }, {
        "item": {
          "reference": "urn:uuid:df972d49-fbaa-4c74-9638-70fa0c2e0d1b"
        }
      }, {
        "item": {
          "reference": "urn:uuid:a354e2f0-feb6-4133-9acb-26937aa35fe3"
        }
      }, {
        "item": {
          "reference": "urn:uuid:5edd1182-097e-4f7c-8493-d7a29441482c"
        }
      }, {
        "item": {
          "reference": "urn:uuid:4d3e97a5-ad04-47c5-978b-80cd10befbe4"
        }
      }, {
        "item": {
          "reference": "urn:uuid:6e4e93b8-ec65-4341-80e3-9bb832d9ad61"
        }
      }, {
        "item": {
          "reference": "urn:uuid:03f3112a-4187-4e5c-ae0d-4b56fdb781ef"
        }
      }, {
        "item": {
          "reference": "urn:uuid:9fecc23d-3d1b-4302-84c1-08cc73a63505"
        }
      }, {
        "item": {
          "reference": "urn:uuid:f76f201d-5690-4a06-a68f-3a62f8ae0741"
        }
      }, {
        "item": {
          "reference": "urn:uuid:08aed207-ecfb-4ad9-98fa-034c48924421"
        }
      }, {
        "item": {
          "reference": "urn:uuid:9d88c1f3-a17e-45fb-93af-5f8127adf9e2"
        }
      }, {
        "item": {
          "reference": "urn:uuid:c6520b6c-1610-4b83-9b1a-06e1058600c7"
        }
      }, {
        "item": {
          "reference": "urn:uuid:035dadac-970a-4fbf-bf93-27aa8a066a8f"
        }
      }, {
        "item": {
          "reference": "urn:uuid:1bc2d947-4a83-4766-a995-e5631e88e436"
        }
      }, {
        "item": {
          "reference": "urn:uuid:f0fe130f-a0f2-4be3-95a8-3f1a9eb37867"
        }
      }, {
        "item": {
          "reference": "urn:uuid:cb7304a3-7edb-431d-9cba-f1320a6389aa"
        }
      }, {
        "item": {
          "reference": "urn:uuid:8ef17b3c-0b49-46dc-aaa8-ea8ec82765b1"
        }
      }, {
        "item": {
          "reference": "urn:uuid:27cc8169-513d-4aff-a673-06e9563dcdf0"
        }
      }, {
        "item": {
          "reference": "urn:uuid:d6e1e316-0bf5-4145-827d-7c373fc28d65"
        }
      }, {
        "item": {
          "reference": "urn:uuid:9a26cc03-1b38-45e6-b314-7478507f85d7"
        }
      }, {
        "item": {
          "reference": "urn:uuid:35bb456a-6387-48dd-9e44-a6d704eb9924"
        }
      }, {
        "item": {
          "reference": "urn:uuid:f594db2b-ef27-410e-8d86-a68d8ad3e3c8"
        }
      }, {
        "item": {
          "reference": "urn:uuid:097f91bb-9e63-4195-bec4-a51e28bb2245"
        }
      }, {
        "item": {
          "reference": "urn:uuid:0c5dc9fe-dbd6-4351-956a-108bde248524"
        }
      }, {
        "item": {
          "reference": "urn:uuid:acc15a65-b151-409c-a507-49ff97e10f8c"
        }
      }, {
        "item": {
          "reference": "urn:uuid:89574fa8-004c-421c-acb1-de6d8aba6609"
        }
      }, {
        "item": {
          "reference": "urn:uuid:fc6eb536-105e-4bf7-b4ad-03f5548781d3"
        }
      }, {
        "item": {
          "reference": "urn:uuid:4d2afd13-15da-4004-90d2-4d20bccc04af"
        }
      }, {
        "item": {
          "reference": "urn:uuid:8cac2282-a467-4bc0-ab93-8b68f4b90860"
        }
      }, {
        "item": {
          "reference": "urn:uuid:beb67548-7aec-446c-aac5-24d519f17f95"
        }
      }, {
        "item": {
          "reference": "urn:uuid:f6af14bf-8822-4c7a-b81d-1d59dfd9c2c7"
        }
      }, {
        "item": {
          "reference": "urn:uuid:205319bd-f047-41aa-a4ce-6a57955ee96a"
        }
      }, {
        "item": {
          "reference": "urn:uuid:d6e8d82a-ab69-4c18-b54d-d88b710797a4"
        }
      }, {
        "item": {
          "reference": "urn:uuid:4e013f6b-784f-400e-8ef6-fbe3aa68bfbe"
        }
      }, {
        "item": {
          "reference": "urn:uuid:533ec447-e067-4442-b609-502134032dd8"
        }
      }, {
        "item": {
          "reference": "urn:uuid:40992c3a-c04c-4fc1-9a3b-6d982f057536"
        }
      }, {
        "item": {
          "reference": "urn:uuid:144acec6-664e-4efd-a803-b07ce6a78c0a"
        }
      }, {
        "item": {
          "reference": "urn:uuid:62c8e02a-5234-454b-8a01-52dffa28539f"
        }
      }, {
        "item": {
          "reference": "urn:uuid:90a43cf5-f58e-435f-b926-126f5e6b84d4"
        }
      }, {
        "item": {
          "reference": "urn:uuid:52a6e4e8-ebe3-498c-bf6a-e19bbf489825"
        }
      }, {
        "item": {
          "reference": "urn:uuid:7c1e0ab7-b181-4cb9-8d91-2bbe77904d5d"
        }
      }, {
        "item": {
          "reference": "urn:uuid:87480345-79e0-4fd9-8aa6-cec074b85dc6"
        }
      }, {
        "item": {
          "reference": "urn:uuid:4bdba4e4-48df-40a7-af96-c4081b079b8e"
        }
      }, {
        "item": {
          "reference": "urn:uuid:7a7aa091-2708-41ce-9352-7c2a608c6df6"
        }
      }, {
        "item": {
          "reference": "urn:uuid:20356cef-1d8f-4d58-9a2a-b77a5cfe7e38"
        }
      }, {
        "item": {
          "reference": "urn:uuid:ce821950-febe-42d5-af67-ecf646693efe"
        }
      }, {
        "item": {
          "reference": "urn:uuid:51081318-4409-4749-9a77-6cafc6cc839c"
        }
      }, {
        "item": {
          "reference": "urn:uuid:944123e1-668e-488a-8b62-e587e71dbde6"
        }
      }, {
        "item": {
          "reference": "urn:uuid:37621c08-e7da-49b2-ae1f-bccd408fe4e6"
        }
      }, {
        "item": {
          "reference": "urn:uuid:de1bc78c-6600-441c-a853-1563543d2383"
        }
      }, {
        "item": {
          "reference": "urn:uuid:cc3c5c73-cfa2-439b-9c7b-b83006c92ba0"
        }
      }, {
        "item": {
          "reference": "urn:uuid:d74bf603-8592-4ffa-9b68-9e93217469fb"
        }
      }, {
        "item": {
          "reference": "urn:uuid:ac6cb36c-30ba-4b5a-87e1-c7e15ccddc32"
        }
      }, {
        "item": {
          "reference": "urn:uuid:655c0d43-246a-4b5e-8cf8-97c9d5621bf0"
        }
      }, {
        "item": {
          "reference": "urn:uuid:abb5ddff-9c19-478a-8b66-3c89f9800c51"
        }
      }, {
        "item": {
          "reference": "urn:uuid:7c799a90-4748-46ca-b2f1-59a563275e6f"
        }
      }, {
        "item": {
          "reference": "urn:uuid:caba2906-c21c-4318-83ab-cc75e0cea7a3"
        }
      }, {
        "item": {
          "reference": "urn:uuid:aea14b5e-66a3-44c6-82f6-d8858aace17f"
        }
      }, {
        "item": {
          "reference": "urn:uuid:e394b5c3-6e0c-499b-9419-186b3429315b"
        }
      }, {
        "item": {
          "reference": "urn:uuid:bd64641d-2210-456f-8329-ef8a6b5b4e4f"
        }
      }, {
        "item": {
          "reference": "urn:uuid:d9befa28-1f49-440d-bf30-5baf5b079b4c"
        }
      }, {
        "item": {
          "reference": "urn:uuid:9ca928f7-0920-4414-a3c9-3ea0f8f09b04"
        }
      }, {
        "item": {
          "reference": "urn:uuid:7d86b7da-0151-4a5d-af0e-7396ea9d49c4"
        }
      }, {
        "item": {
          "reference": "urn:uuid:f4f60c21-9e75-425d-8fab-e2d4a4c49838"
        }
      }, {
        "item": {
          "reference": "urn:uuid:9727c7ea-99f7-42e6-acb9-1dc05ec14c48"
        }
      }, {
        "item": {
          "reference": "urn:uuid:846f1601-f13a-443f-b284-240191c7a703"
        }
      }, {
        "item": {
          "reference": "urn:uuid:ea72de75-af34-40d9-a57a-663d4c2f44f6"
        }
      }, {
        "item": {
          "reference": "urn:uuid:ebb66753-2612-4e14-8c0a-056c4696bd1d"
        }
      }, {
        "item": {
          "reference": "urn:uuid:edb283ab-3451-4d2c-9593-0948937cf46a"
        }
      }, {
        "item": {
          "reference": "urn:uuid:ecb4fbd0-d1e4-4763-ba33-9e1b3a182fb0"
        }
      }, {
        "item": {
          "reference": "urn:uuid:eee23f08-9a80-434a-8e97-3066a01ac715"
        }
      }, {
        "item": {
          "reference": "urn:uuid:93627a6f-0ab8-415f-a75a-dcb87d70973b"
        }
      }, {
        "item": {
          "reference": "urn:uuid:8ae3f662-5396-413f-b86b-755085501fb6"
        }
      }, {
        "item": {
          "reference": "urn:uuid:bd3fa139-86a4-4074-b05d-277eadbaecd9"
        }
      }, {
        "item": {
          "reference": "urn:uuid:75829606-18ef-47bd-90c2-5d2646879766"
        }
      }, {
        "item": {
          "reference": "urn:uuid:0d74d8fd-49bc-4496-825a-16ae58cf383b"
        }
      }, {
        "item": {
          "reference": "urn:uuid:e1adb1e2-8246-4c88-856c-193bb51d3996"
        }
      }, {
        "item": {
          "reference": "urn:uuid:9c9adc55-0296-4a1b-89ee-d13408c1afa8"
        }
      }, {
        "item": {
          "reference": "urn:uuid:f18a0223-5722-441d-80bd-66e3ec80e396"
        }
      }, {
        "item": {
          "reference": "urn:uuid:607eff35-efa3-4f36-82e5-7ee0427ca752"
        }
      }, {
        "item": {
          "reference": "urn:uuid:fa3ddd4d-171d-42fc-b586-01e4fcb9fc32"
        }
      }, {
        "item": {
          "reference": "urn:uuid:ab71fd27-76e8-49ba-a678-270f822afd17"
        }
      }, {
        "item": {
          "reference": "urn:uuid:8bf6dcf0-c0bb-4b85-a2f0-0d3330289195"
        }
      }, {
        "item": {
          "reference": "urn:uuid:437ea2d0-e286-4887-91ed-685d152d1f95"
        }
      }, {
        "item": {
          "reference": "urn:uuid:5baafaa9-b725-4a2d-8c24-b271c324e8fd"
        }
      }, {
        "item": {
          "reference": "urn:uuid:4dc414bf-4bbb-4ca7-ac01-6afa1fecae0a"
        }
      }, {
        "item": {
          "reference": "urn:uuid:19078120-4b23-420c-b743-30f4e5ec05ed"
        }
      }, {
        "item": {
          "reference": "urn:uuid:71eb48f2-1bef-4a3a-bc5f-1f6701c7339b"
        }
      }, {
        "item": {
          "reference": "urn:uuid:6b320d36-81fb-4e42-b159-36a007b80115"
        }
      }, {
        "item": {
          "reference": "urn:uuid:17491229-9bec-4f5d-abaf-4523bb187ad5"
        }
      }, {
        "item": {
          "reference": "urn:uuid:874de3d9-1dfd-450f-83a7-0072abc6f4ea"
        }
      }, {
        "item": {
          "reference": "urn:uuid:001414c6-d1cb-413c-81e6-e14bd107b720"
        }
      }, {
        "item": {
          "reference": "urn:uuid:102ab025-8684-4ff7-a502-e1d3e029d893"
        }
      }, {
        "item": {
          "reference": "urn:uuid:496002d7-d590-4a61-a6fa-aa9901f705c1"
        }
      }, {
        "item": {
          "reference": "urn:uuid:36d5bd56-caff-46a9-82f8-2c02aa3e1019"
        }
      }, {
        "item": {
          "reference": "urn:uuid:72cc12de-553a-4a40-b729-229376065f13"
        }
      }, {
        "item": {
          "reference": "urn:uuid:6169c260-60b7-456d-864c-cd2e57eb147f"
        }
      }, {
        "item": {
          "reference": "urn:uuid:76ce61cd-bc01-4d4b-ac12-670c0de00950"
        }
      }, {
        "item": {
          "reference": "urn:uuid:c2766212-622a-45df-b77d-41e0c85dee16"
        }
      }, {
        "item": {
          "reference": "urn:uuid:697bcb6e-e788-4c61-bd76-7cbca9a0427d"
        }
      }, {
        "item": {
          "reference": "urn:uuid:914dea27-d838-426b-b5bd-11ce526544b0"
        }
      }, {
        "item": {
          "reference": "urn:uuid:389eb8e5-97cd-4e26-bd06-9d9c495d6b53"
        }
      }, {
        "item": {
          "reference": "urn:uuid:c58cce4e-1113-4d1e-bbae-fb0e56415bb5"
        }
      }, {
        "item": {
          "reference": "urn:uuid:0f6af934-b933-45f8-98c5-1b5b3ff27e33"
        }
      }, {
        "item": {
          "reference": "urn:uuid:3304c30b-0455-4931-9081-fdf2c4445cf7"
        }
      }, {
        "item": {
          "reference": "urn:uuid:8ab841f1-87e2-4521-9fb5-aafb918ec7d5"
        }
      }, {
        "item": {
          "reference": "urn:uuid:b12d696b-6381-4410-a080-3dc22987cee3"
        }
      }, {
        "item": {
          "reference": "urn:uuid:4327a09f-c92a-49b5-a02f-0d3205d0ca17"
        }
      }, {
        "item": {
          "reference": "urn:uuid:3c61966b-7a9d-4f82-8422-83e5b5843fa7"
        }
      }, {
        "item": {
          "reference": "urn:uuid:af356156-7927-4b83-b953-4aa41a587c71"
        }
      }, {
        "item": {
          "reference": "urn:uuid:609bbdf4-54c9-43d2-98a8-485af6d4d4a5"
        }
      }, {
        "item": {
          "reference": "urn:uuid:41659a8e-16f9-4b9f-9ef8-a7f5ea04e4b5"
        }
      }, {
        "item": {
          "reference": "urn:uuid:977ccfdb-40ef-4f34-aaff-c386b41b77d2"
        }
      }, {
        "item": {
          "reference": "urn:uuid:38898ebe-5409-48ee-abe7-0c7a841b7108"
        }
      }, {
        "item": {
          "reference": "urn:uuid:d5512387-e8b4-4d7e-8b2a-590639656528"
        }
      }, {
        "item": {
          "reference": "urn:uuid:0224fac7-5757-49b1-8abd-6cee915f695b"
        }
      }, {
        "item": {
          "reference": "urn:uuid:387755c3-ac65-47bc-a3cc-60c7c0d55518"
        }
      }, {
        "item": {
          "reference": "urn:uuid:75e7d6a9-1d06-41b4-954d-fae858fe81f2"
        }
      }, {
        "item": {
          "reference": "urn:uuid:f17660fb-039f-4b82-9bab-32835d52daf2"
        }
      }, {
        "item": {
          "reference": "urn:uuid:0f70ea36-d0be-4638-bdc8-5df3c6f9ce42"
        }
      }, {
        "item": {
          "reference": "urn:uuid:38da3fd0-9f3b-4ece-83cb-232184798cba"
        }
      }, {
        "item": {
          "reference": "urn:uuid:d72fe845-fc18-4ce5-95cf-287957a1ac91"
        }
      }, {
        "item": {
          "reference": "urn:uuid:ba38a605-af9c-4de5-b624-50be2d620702"
        }
      }, {
        "item": {
          "reference": "urn:uuid:dc9f517f-dfb7-49fd-8f75-756aed060db6"
        }
      }, {
        "item": {
          "reference": "urn:uuid:b7d91b4a-ed91-46b3-b276-eb84f8dbe46d"
        }
      } ]
    }
  } ]
}