{
  "resourceType": "Bundle",
  "identifier": {
    "type": {
      "text": "ClinicalDocument VersionNumber"
    },
    "value": "1"
  },
  "type": "message",
  "entry": [ {
    "fullUrl": "urn:uuid:7AEFFED7-78AF-4940-9EE2-5FAA3920ECFE",
    "resource": {
      "resourceType": "MessageHeader",
      "id": "7AEFFED7-78AF-4940-9EE2-5FAA3920ECFE",
      "event": {
        "system": "https://fhir.nhs.uk/STU3/CodeSystem/EventType-1",
        "code": "referral-1",
        "display": "Referral"
      },
      "destination": [ {
        "endpoint": "urn:nhs-uk:addressing:ods:RSHSO14A:DOSServiceID:2000006423"
      } ],
      "timestamp": "2021-04-06T11:33:35.000+00:00",
      "source": {
        "name": "NHS 111 Adaptor",
        "endpoint": "http://localhost:8080/report"
      },
      "reason": {
        "coding": [ {
          "system": "urn:nhs-itk:ns:201005:interaction",
          "code": "urn:nhs-itk:interaction:primaryEmergencyDepartmentRecipientNHS111CDADocument-v2-0"
        } ]
      }
    }
  }, {
    "fullUrl": "urn:uuid:e0b44df7-4273-4657-9fb3-8fbaf1ee1ea4",
    "resource": {
      "resourceType": "Encounter",
      "id": "e0b44df7-4273-4657-9fb3-8fbaf1ee1ea4",
      "identifier": [ {
        "system": "2.16.840.1.113883.2.1.3.2.4.18.34",
        "value": "029EE79C-BBD3-478A-93EE-979CB300212E"
      }, {
        "system": "2.16.840.1.113883.2.1.3.2.4.18.35",
        "value": "59132"
      }, {
        "system": "2.16.840.1.113883.2.1.3.2.4.18.49",
        "value": "029EE79C-BBD3-478A-93EE-979CB300212E"
      } ],
      "status": "finished",
      "type": [ {
        "text": "111 Encounter Referral"
      } ],
      "subject": {
        "reference": "urn:uuid:9b652481-2b6f-4128-bb14-b0e86d89bbde"
      },
      "participant": [ {
        "type": [ {
          "coding": [ {
            "system": "http://hl7.org/fhir/ValueSet/encounter-participant-type",
            "code": "PPRF",
            "display": "Author"
          } ]
        } ],
        "individual": {
          "reference": "urn:uuid:89e203ef-7b0b-487e-b3cf-14204c9af844"
        }
      }, {
        "type": [ {
          "coding": [ {
            "system": "http://hl7.org/fhir/ValueSet/encounter-participant-type",
            "code": "ATND",
            "display": "Responsible Party"
          } ]
        } ],
        "individual": {
          "reference": "urn:uuid:6f92312e-dc3c-41cc-b274-b47be52c4593"
        }
      } ],
      "period": {
        "start": "2021-04-06T11:33:35+00:00"
      },
      "location": [ {
        "location": {
          "reference": "urn:uuid:c6bc7c9a-fde7-482e-897a-baa1558b376a"
        },
        "status": "active"
      }, {
        "location": {
          "reference": "urn:uuid:1cce9dae-5e46-45b9-b8ae-4916e5368ed5"
        },
        "status": "completed"
      } ],
      "serviceProvider": {
        "reference": "urn:uuid:c6271046-043a-47cd-b87a-56fa60fc3046"
      }
    }
  }, {
    "fullUrl": "urn:uuid:c6271046-043a-47cd-b87a-56fa60fc3046",
    "resource": {
      "resourceType": "Organization",
      "id": "c6271046-043a-47cd-b87a-56fa60fc3046",
      "active": true,
      "type": [ {
        "text": "CST"
      } ],
      "name": "SCAS111"
    }
  }, {
    "fullUrl": "urn:uuid:89e203ef-7b0b-487e-b3cf-14204c9af844",
    "resource": {
      "resourceType": "Practitioner",
      "id": "89e203ef-7b0b-487e-b3cf-14204c9af844",
      "active": true,
      "name": [ {
        "use": "official",
        "family": "McDonald",
        "given": [ "Denzle" ]
      } ]
    }
  }, {
    "fullUrl": "urn:uuid:6f92312e-dc3c-41cc-b274-b47be52c4593",
    "resource": {
      "resourceType": "Practitioner",
      "id": "6f92312e-dc3c-41cc-b274-b47be52c4593",
      "active": true,
      "name": [ {
        "use": "official",
        "family": "Black",
        "given": [ "John" ]
      } ]
    }
  }, {
    "fullUrl": "urn:uuid:c6bc7c9a-fde7-482e-897a-baa1558b376a",
    "resource": {
      "resourceType": "Location",
      "id": "c6bc7c9a-fde7-482e-897a-baa1558b376a",
      "managingOrganization": {
        "reference": "urn:uuid:81eaa118-a0de-4265-8fbf-e70e2491bc22"
      }
    }
  }, {
    "fullUrl": "urn:uuid:81eaa118-a0de-4265-8fbf-e70e2491bc22",
    "resource": {
      "resourceType": "Organization",
      "id": "81eaa118-a0de-4265-8fbf-e70e2491bc22",
      "identifier": [ {
        "value": "J82633"
      } ],
      "type": [ {
        "text": "GP Practice"
      } ],
      "name": "The Riverside Partnership ( Riverside Kelsey)",
      "telecom": [ {
        "system": "phone",
        "value": "tel:01730892412",
        "use": "work"
      } ],
      "address": [ {
        "use": "work",
        "line": [ "Riverside Kelsey Surgery", "75 Station Road", "Liss", "Hampshire" ],
        "postalCode": "GU33 7AD"
      } ]
    }
  }, {
    "fullUrl": "urn:uuid:1cce9dae-5e46-45b9-b8ae-4916e5368ed5",
    "resource": {
      "resourceType": "Location",
      "id": "1cce9dae-5e46-45b9-b8ae-4916e5368ed5",
      "name": "Incident Location",
      "address": {
        "type": "physical",
        "line": [ "Hampshire Partnership NHS Trust", "Tatchbury Mount Hospital Horseshoe Drive", "Calmore", "Southampton", "Hampshire" ],
        "postalCode": "SO40 2RZ"
      }
    }
  }, {
    "fullUrl": "urn:uuid:9b652481-2b6f-4128-bb14-b0e86d89bbde",
    "resource": {
      "resourceType": "Patient",
      "id": "9b652481-2b6f-4128-bb14-b0e86d89bbde",
      "identifier": [ {
        "extension": [ {
          "url": "https://fhir.hl7.org.uk/STU3/StructureDefinition/Extension-CareConnect-NHSNumberVerificationStatus-1",
          "valueCodeableConcept": {
            "coding": [ {
              "system": "https://fhir.hl7.org.uk/STU3/StructureDefinition/Extension-CareConnect-NHSNumberVerificationStatus-1",
              "code": "01"
            } ]
          }
        } ],
        "system": "https://fhir.nhs.uk/Id/nhs-number",
        "value": "9990004951"
      } ],
      "active": true,
      "name": [ {
        "use": "official",
        "family": "Xxtestpatientdfae",
        "given": [ "Btl-Donotuse" ]
      } ],
      "telecom": [ {
        "system": "phone",
        "value": "tel:07948625625",
        "use": "home"
      }, {
        "system": "phone",
        "value": "tel:07948625625"
      } ],
      "gender": "female",
      "birthDate": "2015-04-01",
      "address": [ {
        "use": "home",
        "line": [ "Hampshire Partnership NHS Trust", "Tatchbury Mount Hospital Horseshoe Drive", "Calmore", "Southampton", "Hampshire" ],
        "postalCode": "SO40 2RZ"
      } ],
      "generalPractitioner": [ {
        "reference": "urn:uuid:b3a873dc-d94e-4f5a-a60a-a88c4244a7d7"
      } ]
    }
  }, {
    "fullUrl": "urn:uuid:b3a873dc-d94e-4f5a-a60a-a88c4244a7d7",
    "resource": {
      "resourceType": "Organization",
      "id": "b3a873dc-d94e-4f5a-a60a-a88c4244a7d7",
      "identifier": [ {
        "value": "J82633"
      } ],
      "type": [ {
        "text": "GP Practice"
      } ],
      "name": "The Riverside Partnership ( Riverside Kelsey)",
      "telecom": [ {
        "system": "phone",
        "value": "tel:01730892412",
        "use": "work"
      } ],
      "address": [ {
        "use": "work",
        "line": [ "Riverside Kelsey Surgery", "75 Station Road", "Liss", "Hampshire" ],
        "postalCode": "GU33 7AD"
      } ]
    }
  }, {
    "fullUrl": "urn:uuid:e2a2f3bc-a609-4632-9a56-5041ed818617",
    "resource": {
      "resourceType": "HealthcareService",
      "id": "e2a2f3bc-a609-4632-9a56-5041ed818617",
      "active": true,
      "providedBy": {
        "reference": "urn:uuid:a614c4db-877d-4251-b25f-100e5015b15a"
      },
      "location": [ {
        "reference": "urn:uuid:30951c0c-6223-4575-8019-4c6e83989f1f"
      } ],
      "name": "Urgent Treatment Centre (GP led), Royal South Hants Hospital"
    }
  }, {
    "fullUrl": "urn:uuid:30951c0c-6223-4575-8019-4c6e83989f1f",
    "resource": {
      "resourceType": "Location",
      "id": "30951c0c-6223-4575-8019-4c6e83989f1f",
      "managingOrganization": {
        "reference": "urn:uuid:a614c4db-877d-4251-b25f-100e5015b15a"
      }
    }
  }, {
    "fullUrl": "urn:uuid:a614c4db-877d-4251-b25f-100e5015b15a",
    "resource": {
      "resourceType": "Organization",
      "id": "a614c4db-877d-4251-b25f-100e5015b15a",
      "identifier": [ {
        "value": "RSHSO14A"
      } ],
      "type": [ {
        "coding": [ {
          "code": "PRCP",
          "display": "Urgent Treatment Centre (GP led), Royal South Hants Hospital"
        } ]
      } ],
      "name": "Urgent Treatment Centre (GP led), Royal South Hants Hospital"
    }
  }, {
    "fullUrl": "urn:uuid:35c77523-bb84-435e-a413-ea89858730e7",
    "resource": {
      "resourceType": "ReferralRequest",
      "id": "35c77523-bb84-435e-a413-ea89858730e7",
      "status": "active",
      "intent": "plan",
      "priority": "routine",
      "subject": {
        "reference": "urn:uuid:9b652481-2b6f-4128-bb14-b0e86d89bbde"
      },
      "context": {
        "reference": "urn:uuid:e0b44df7-4273-4657-9fb3-8fbaf1ee1ea4"
      },
      "occurrencePeriod": {
        "start": "2021-09-15T09:16:03+00:00",
        "end": "2021-09-15T10:16:03+00:00"
      },
      "authoredOn": "2021-04-06T11:33:27+00:00",
      "requester": {
        "agent": {
          "reference": "urn:uuid:05081fd6-8742-4630-93f8-c06d2eb1f3ee"
        },
        "onBehalfOf": {
          "reference": "urn:uuid:c6271046-043a-47cd-b87a-56fa60fc3046"
        }
      },
      "recipient": [ {
        "reference": "urn:uuid:e2a2f3bc-a609-4632-9a56-5041ed818617"
      } ],
      "reasonReference": [ {
        "reference": "urn:uuid:1b52f5dc-20e2-4994-9284-72f64082c05f"
      } ],
      "supportingInfo": [ {
        "reference": "urn:uuid:11e1eb1e-5101-4310-8848-4a83eb65b2a5"
      } ]
    }
  }, {
    "fullUrl": "urn:uuid:11e1eb1e-5101-4310-8848-4a83eb65b2a5",
    "resource": {
      "resourceType": "ProcedureRequest",
      "id": "11e1eb1e-5101-4310-8848-4a83eb65b2a5",
      "status": "active",
      "intent": "plan",
      "priority": "routine",
      "doNotPerform": false,
      "code": {
        "coding": [ {
          "system": "2.16.840.1.113883.2.1.3.2.4.17.325",
          "code": "Dx06",
          "display": "To contact a local service within 6 hours"
        } ]
      },
      "subject": {
        "reference": "urn:uuid:9b652481-2b6f-4128-bb14-b0e86d89bbde"
      },
      "occurrencePeriod": {
        "start": "2021-09-15T09:16:03+00:00",
        "end": "2021-09-15T10:16:03+00:00"
      },
      "reasonReference": [ {
        "reference": "urn:uuid:1b52f5dc-20e2-4994-9284-72f64082c05f"
      } ]
    }
  }, {
    "fullUrl": "urn:uuid:b60b4e09-1eac-4e9f-8d35-272deb03a9e5",
    "resource": {
      "resourceType": "Composition",
      "id": "b60b4e09-1eac-4e9f-8d35-272deb03a9e5",
      "identifier": {
        "use": "usual",
        "value": "A8E3FB32-6805-4191-B071-EA540A9318CD"
      },
      "status": "final",
      "type": {
        "coding": [ {
          "system": "http://snomed.info/sct",
          "code": "371531000",
          "display": "Report of clinical encounter (record artifact)"
        } ]
      },
      "subject": {
        "reference": "urn:uuid:9b652481-2b6f-4128-bb14-b0e86d89bbde"
      },
      "encounter": {
        "reference": "urn:uuid:e0b44df7-4273-4657-9fb3-8fbaf1ee1ea4"
      },
      "date": "2021-09-15T09:16:03+00:00",
      "author": [ {
        "reference": "urn:uuid:89e203ef-7b0b-487e-b3cf-14204c9af844"
      } ],
      "title": "111 Report",
      "confidentiality": "N",
      "section": [ {
        "section": [ {
          "title": "Patient's Reported Condition",
          "text": {
            "status": "generated",
            "div": "<div xmlns=\"http://www.w3.org/1999/xhtml\">&lt;xml-fragment xmlns:npfitlc=&quot;NPFIT:HL7:Localisation&quot; xmlns:xsi=&quot;http://www.w3.org/2001/XMLSchema-instance&quot;&gt;\n                                                    &lt;urn:content xmlns:urn=&quot;urn:hl7-org:v3&quot;&gt;Pharmacy ITK Testing&lt;/urn:content&gt;\n                                                    &lt;urn:br xmlns:urn=&quot;urn:hl7-org:v3&quot;/&gt;\n                                                &lt;/xml-fragment&gt;</div>"
          }
        }, {
          "title": "Pathways Disposition",
          "text": {
            "status": "generated",
            "div": "<div xmlns=\"http://www.w3.org/1999/xhtml\">&lt;xml-fragment xmlns:xsi=&quot;http://www.w3.org/2001/XMLSchema-instance&quot;&gt;To contact a local service within 6 hours (Dx06)                                         &lt;urn:br xmlns:urn=&quot;urn:hl7-org:v3&quot;/&gt;\n                                                    &lt;urn:br xmlns:urn=&quot;urn:hl7-org:v3&quot;/&gt;                                         Selected service: Urgent Treatment Centre (GP led), Royal South Hant&lt;urn:br xmlns:urn=&quot;urn:hl7-org:v3&quot;/&gt;\n                                                &lt;/xml-fragment&gt;</div>"
          }
        }, {
          "title": "Consultation Summary",
          "text": {
            "status": "generated",
            "div": "<div xmlns=\"http://www.w3.org/1999/xhtml\">&lt;xml-fragment xmlns:xsi=&quot;http://www.w3.org/2001/XMLSchema-instance&quot;&gt;Illness&lt;urn:br xmlns:urn=&quot;urn:hl7-org:v3&quot;/&gt;Warm to touch&lt;urn:br xmlns:urn=&quot;urn:hl7-org:v3&quot;/&gt;Nausea without vomiting&lt;urn:br xmlns:urn=&quot;urn:hl7-org:v3&quot;/&gt;Abdominal pain also present&lt;urn:br xmlns:urn=&quot;urn:hl7-org:v3&quot;/&gt;Moderately severe pain&lt;urn:br xmlns:urn=&quot;urn:hl7-org:v3&quot;/&gt;Flank pain&lt;urn:br xmlns:urn=&quot;urn:hl7-org:v3&quot;/&gt;Fever at time of assessment or in last 12 hours&lt;urn:br xmlns:urn=&quot;urn:hl7-org:v3&quot;/&gt;\n                                                &lt;/xml-fragment&gt;</div>"
          }
        }, {
          "title": "Pathways Assessment",
          "text": {
            "status": "generated",
            "div": "<div xmlns=\"http://www.w3.org/1999/xhtml\">&lt;xml-fragment xmlns:xsi=&quot;http://www.w3.org/2001/XMLSchema-instance&quot;&gt;An injury or health problem was the reason for the contact.&lt;urn:br xmlns:urn=&quot;urn:hl7-org:v3&quot;/&gt;Heavy bleeding had not occurred in the previous 30 minutes.&lt;urn:br xmlns:urn=&quot;urn:hl7-org:v3&quot;/&gt;An illness or health problem was the main problem.&lt;urn:br xmlns:urn=&quot;urn:hl7-org:v3&quot;/&gt;User Comments: Pharmacy ITK Testing&lt;urn:br xmlns:urn=&quot;urn:hl7-org:v3&quot;/&gt;The individual was not fighting for breath.&lt;urn:br xmlns:urn=&quot;urn:hl7-org:v3&quot;/&gt;The main reason for the contact was not an allergic reaction, chest/upper back pain, recent fit/seizure, suicide attempt, new confusion or suspected stroke.&lt;urn:br xmlns:urn=&quot;urn:hl7-org:v3&quot;/&gt;The main reason for contact was not declared diabetic hypo/hyperglycaemia or ICD shock.&lt;urn:br xmlns:urn=&quot;urn:hl7-org:v3&quot;/&gt;The skin on the torso felt normal, warm or hot.&lt;urn:br xmlns:urn=&quot;urn:hl7-org:v3&quot;/&gt;Pathway selected - Vomiting and/or Nausea&lt;urn:br xmlns:urn=&quot;urn:hl7-org:v3&quot;/&gt;The individual had not vomited.&lt;urn:br xmlns:urn=&quot;urn:hl7-org:v3&quot;/&gt;The individual did not also have diarrhoea.&lt;urn:br xmlns:urn=&quot;urn:hl7-org:v3&quot;/&gt;The symptoms did not follow drinking alcohol.&lt;urn:br xmlns:urn=&quot;urn:hl7-org:v3&quot;/&gt;Abdominal pain was also present.&lt;urn:br xmlns:urn=&quot;urn:hl7-org:v3&quot;/&gt;The pain interfered with normal activity.&lt;urn:br xmlns:urn=&quot;urn:hl7-org:v3&quot;/&gt;The individual was able to carry out most or all normal activities.&lt;urn:br xmlns:urn=&quot;urn:hl7-org:v3&quot;/&gt;The individual had not ingested a harmful or toxic substance.&lt;urn:br xmlns:urn=&quot;urn:hl7-org:v3&quot;/&gt;There had been no black and tarry or red/maroon bowel motions.&lt;urn:br xmlns:urn=&quot;urn:hl7-org:v3&quot;/&gt;There was no new or worsening confusion.&lt;urn:br xmlns:urn=&quot;urn:hl7-org:v3&quot;/&gt;Breathing harder or faster when doing nothing was not described.&lt;urn:br xmlns:urn=&quot;urn:hl7-org:v3&quot;/&gt;There was no new shoulder tip pain or pain in the lower right abdomen.&lt;urn:br xmlns:urn=&quot;urn:hl7-org:v3&quot;/&gt;The individual had not been in constant pain for 4 hours or more.&lt;urn:br xmlns:urn=&quot;urn:hl7-org:v3&quot;/&gt;There was no previous history of diabetes.&lt;urn:br xmlns:urn=&quot;urn:hl7-org:v3&quot;/&gt;There was flank pain.&lt;urn:br xmlns:urn=&quot;urn:hl7-org:v3&quot;/&gt;There was a fever at the time of assessment or within the previous 12 hours.&lt;urn:br xmlns:urn=&quot;urn:hl7-org:v3&quot;/&gt;There was no new, widespread, red rash.&lt;urn:br xmlns:urn=&quot;urn:hl7-org:v3&quot;/&gt;Instructions given were: The individual needs to contact a local service within 6 hours.&lt;urn:br xmlns:urn=&quot;urn:hl7-org:v3&quot;/&gt;Directory of Services referral: Urgent Treatment Centre (GP led), Royal South Hants Hospital&lt;urn:br xmlns:urn=&quot;urn:hl7-org:v3&quot;/&gt;\n                                                &lt;/xml-fragment&gt;</div>"
          }
        }, {
          "title": "Advice Given",
          "text": {
            "status": "generated",
            "div": "<div xmlns=\"http://www.w3.org/1999/xhtml\">&lt;xml-fragment xmlns:xsi=&quot;http://www.w3.org/2001/XMLSchema-instance&quot;&gt;I will arrange for a clinician to contact the individual. I need to ask some further questions in order to determine the best way to do this.&lt;urn:br xmlns:urn=&quot;urn:hl7-org:v3&quot;/&gt;If there are any new symptoms, or if the condition gets worse, changes or you have any other concerns, call us back.&lt;urn:br xmlns:urn=&quot;urn:hl7-org:v3&quot;/&gt;\n                                                    &lt;urn:br xmlns:urn=&quot;urn:hl7-org:v3&quot;/&gt;\n                                                &lt;/xml-fragment&gt;</div>"
          }
        }, {
          "title": "Information And Advice Given",
          "text": {
            "status": "generated",
            "div": "<div xmlns=\"http://www.w3.org/1999/xhtml\">&lt;xml-fragment xmlns:npfitlc=&quot;NPFIT:HL7:Localisation&quot; xmlns:xsi=&quot;http://www.w3.org/2001/XMLSchema-instance&quot;/&gt;</div>"
          }
        }, {
          "title": "Disposition",
          "text": {
            "status": "generated",
            "div": "<div xmlns=\"http://www.w3.org/1999/xhtml\">&lt;xml-fragment xmlns:npfitlc=&quot;NPFIT:HL7:Localisation&quot; xmlns:xsi=&quot;http://www.w3.org/2001/XMLSchema-instance&quot;&gt;\n                                                    &lt;urn:content xmlns:urn=&quot;urn:hl7-org:v3&quot;&gt;To contact a local service within 6 hours&lt;urn:br/&gt;\n                                                    &lt;/urn:content&gt;\n                                                    &lt;urn:br xmlns:urn=&quot;urn:hl7-org:v3&quot;/&gt;\n                                                    &lt;urn:br xmlns:urn=&quot;urn:hl7-org:v3&quot;/&gt;\n                                                &lt;/xml-fragment&gt;</div>"
          }
        } ]
      }, {
        "title": "CarePlan",
        "entry": [ {
          "reference": "urn:uuid:13db179e-09c6-408a-af80-705439a5ec55"
        } ]
      }, {
        "title": "ReferralRequest",
        "entry": [ {
          "reference": "urn:uuid:35c77523-bb84-435e-a413-ea89858730e7"
        } ]
      }, {
        "title": "QuestionnaireResponse",
        "entry": [ {
          "reference": "urn:uuid:29e05e2f-4a0e-482b-b511-c72a1fd7004c"
        } ]
      }, {
        "title": "QuestionnaireResponse",
        "entry": [ {
          "reference": "urn:uuid:7f0dd54a-355f-437d-9dad-35e5d65443df"
        } ]
      }, {
        "title": "QuestionnaireResponse",
        "entry": [ {
          "reference": "urn:uuid:03803b83-f78b-422b-87a8-ff3dccd771a4"
        } ]
      }, {
        "title": "QuestionnaireResponse",
        "entry": [ {
          "reference": "urn:uuid:37f3e036-7819-43b1-90dd-b93af5a90672"
        } ]
      }, {
        "title": "QuestionnaireResponse",
        "entry": [ {
          "reference": "urn:uuid:28338d75-8843-42fc-be03-124d96027e98"
        } ]
      }, {
        "title": "QuestionnaireResponse",
        "entry": [ {
          "reference": "urn:uuid:682bb223-dc66-42bd-8823-bf221567b20c"
        } ]
      }, {
        "title": "QuestionnaireResponse",
        "entry": [ {
          "reference": "urn:uuid:53cdeb6a-07bb-4199-b06c-3ad7b2c931fc"
        } ]
      }, {
        "title": "QuestionnaireResponse",
        "entry": [ {
          "reference": "urn:uuid:d6c133bd-86c9-4120-bd0a-ee44d09a2c6c"
        } ]
      }, {
        "title": "QuestionnaireResponse",
        "entry": [ {
          "reference": "urn:uuid:d163701c-bcf6-4be6-9146-1bdc988afe0e"
        } ]
      }, {
        "title": "QuestionnaireResponse",
        "entry": [ {
          "reference": "urn:uuid:528b4bdb-56bd-40b1-bea7-805b441259ed"
        } ]
      }, {
        "title": "QuestionnaireResponse",
        "entry": [ {
          "reference": "urn:uuid:faf9fdff-4eea-4fd2-8a5e-d868a6f6795d"
        } ]
      }, {
        "title": "QuestionnaireResponse",
        "entry": [ {
          "reference": "urn:uuid:f1a6aa4e-a327-4650-a641-84fe38bdc66d"
        } ]
      }, {
        "title": "QuestionnaireResponse",
        "entry": [ {
          "reference": "urn:uuid:e8678519-78b6-49a6-ac5c-5be380089f36"
        } ]
      }, {
        "title": "QuestionnaireResponse",
        "entry": [ {
          "reference": "urn:uuid:6576dd0c-3979-4cac-bb9d-9b1ea6482f25"
        } ]
      }, {
        "title": "QuestionnaireResponse",
        "entry": [ {
          "reference": "urn:uuid:c836d30d-270f-4bbb-95ae-1003f7d34e7e"
        } ]
      }, {
        "title": "QuestionnaireResponse",
        "entry": [ {
          "reference": "urn:uuid:dfe6b6b7-dae0-4a80-8dfa-adda6f2bdc37"
        } ]
      }, {
        "title": "QuestionnaireResponse",
        "entry": [ {
          "reference": "urn:uuid:77778490-3172-43ac-9397-87487d4200d4"
        } ]
      }, {
        "title": "QuestionnaireResponse",
        "entry": [ {
          "reference": "urn:uuid:3488d9f9-6fc5-4fb6-9093-60b0aca98515"
        } ]
      }, {
        "title": "QuestionnaireResponse",
        "entry": [ {
          "reference": "urn:uuid:b52ca5bc-3b2f-4108-aa86-5a841cacb5be"
        } ]
      }, {
        "title": "QuestionnaireResponse",
        "entry": [ {
          "reference": "urn:uuid:c9a85889-9f0f-4398-8ffc-1e1f5f770cc7"
        } ]
      }, {
        "title": "QuestionnaireResponse",
        "entry": [ {
          "reference": "urn:uuid:0c7f1ce9-53a2-46f6-aa43-3cc85dd25201"
        } ]
      }, {
        "title": "QuestionnaireResponse",
        "entry": [ {
          "reference": "urn:uuid:4de83fd0-d4fe-4250-ad59-a9d8cf2145d4"
        } ]
      }, {
        "title": "QuestionnaireResponse",
        "entry": [ {
          "reference": "urn:uuid:37c7b40b-c3aa-4d41-b44d-d0081bff2368"
        } ]
      }, {
        "title": "QuestionnaireResponse",
        "entry": [ {
          "reference": "urn:uuid:b46a4a54-6716-4f6f-a2e9-24d28e183d4b"
        } ]
      }, {
        "title": "QuestionnaireResponse",
        "entry": [ {
          "reference": "urn:uuid:4ce57052-3d79-47e6-843a-b8efc92f2d55"
        } ]
      }, {
        "title": "QuestionnaireResponse",
        "entry": [ {
          "reference": "urn:uuid:076c1a00-f0b1-4218-ae8e-ae43a1bf4a59"
        } ]
      }, {
        "title": "QuestionnaireResponse",
        "entry": [ {
          "reference": "urn:uuid:74e73559-a45e-4410-ad98-e301fa71761b"
        } ]
      }, {
        "title": "QuestionnaireResponse",
        "entry": [ {
          "reference": "urn:uuid:c1482587-66c2-41cc-b14d-bef8518c1e20"
        } ]
      }, {
        "title": "QuestionnaireResponse",
        "entry": [ {
          "reference": "urn:uuid:c3928130-afe6-43e8-8d42-74a95f486660"
        } ]
      }, {
        "title": "QuestionnaireResponse",
        "entry": [ {
          "reference": "urn:uuid:2a709291-cc40-41fb-a3ef-e6ac2aa6f5eb"
        } ]
      }, {
        "title": "QuestionnaireResponse",
        "entry": [ {
          "reference": "urn:uuid:c7ba7999-4569-43c1-9fe8-6e6328dd51c4"
        } ]
      }, {
        "title": "QuestionnaireResponse",
        "entry": [ {
          "reference": "urn:uuid:48d4389b-6080-4e04-a2be-2c557c8d51bf"
        } ]
      }, {
        "title": "QuestionnaireResponse",
        "entry": [ {
          "reference": "urn:uuid:e4265e39-182d-4eef-8689-df8d919ea48b"
        } ]
      }, {
        "title": "QuestionnaireResponse",
        "entry": [ {
          "reference": "urn:uuid:6df8efd3-e264-4bfb-8e21-efe2708682d5"
        } ]
      }, {
        "title": "QuestionnaireResponse",
        "entry": [ {
          "reference": "urn:uuid:8998bc60-b6af-475a-aa87-99ac61a87653"
        } ]
      }, {
        "title": "QuestionnaireResponse",
        "entry": [ {
          "reference": "urn:uuid:33424d15-6cc6-4b23-8403-92afdf9bd160"
        } ]
      }, {
        "title": "QuestionnaireResponse",
        "entry": [ {
          "reference": "urn:uuid:f9d9d59a-a489-40bf-a1ef-aecc08a27100"
        } ]
      }, {
        "title": "QuestionnaireResponse",
        "entry": [ {
          "reference": "urn:uuid:c995af6d-3c59-4466-aa8d-890d8b8b1f72"
        } ]
      }, {
        "title": "QuestionnaireResponse",
        "entry": [ {
          "reference": "urn:uuid:eaedf098-3e3d-4ece-bf80-f31ba2fb8aa8"
        } ]
      }, {
        "title": "QuestionnaireResponse",
        "entry": [ {
          "reference": "urn:uuid:979f3d53-18de-4733-bdb0-40d506ef89b0"
        } ]
      }, {
        "title": "QuestionnaireResponse",
        "entry": [ {
          "reference": "urn:uuid:6be864c1-0d3b-44c0-a58f-f3cab3bd2435"
        } ]
      }, {
        "title": "QuestionnaireResponse",
        "entry": [ {
          "reference": "urn:uuid:0c56ceac-4872-4a9a-be0c-8a8ed83a6366"
        } ]
      }, {
        "title": "QuestionnaireResponse",
        "entry": [ {
          "reference": "urn:uuid:13cad67a-5e79-43a4-b03b-3fddcb6352cf"
        } ]
      }, {
        "title": "QuestionnaireResponse",
        "entry": [ {
          "reference": "urn:uuid:7a16fed7-9129-4602-bbb5-7c0b4b7b5043"
        } ]
      }, {
        "title": "QuestionnaireResponse",
        "entry": [ {
          "reference": "urn:uuid:72effe90-d99a-4fec-8c51-da625d374b5b"
        } ]
      }, {
        "title": "QuestionnaireResponse",
        "entry": [ {
          "reference": "urn:uuid:5064af8d-a2ac-4f96-9af3-9c155060374b"
        } ]
      }, {
        "title": "QuestionnaireResponse",
        "entry": [ {
          "reference": "urn:uuid:fe6abde6-02c9-485d-ad33-570f5066402d"
        } ]
      }, {
        "title": "QuestionnaireResponse",
        "entry": [ {
          "reference": "urn:uuid:03189987-ee1e-4fe2-a879-3b4f82b73421"
        } ]
      }, {
        "title": "QuestionnaireResponse",
        "entry": [ {
          "reference": "urn:uuid:7172a30f-f601-4d8d-bd32-baa3792efa71"
        } ]
      }, {
        "title": "QuestionnaireResponse",
        "entry": [ {
          "reference": "urn:uuid:f45b4686-7bc6-46de-b29b-0e5103af9b8e"
        } ]
      }, {
        "title": "QuestionnaireResponse",
        "entry": [ {
          "reference": "urn:uuid:7ea48683-4345-4380-a82d-4633bbb4f5e8"
        } ]
      }, {
        "title": "QuestionnaireResponse",
        "entry": [ {
          "reference": "urn:uuid:8a6025bd-6c53-4cbd-8849-829dbb7b291c"
        } ]
      }, {
        "title": "QuestionnaireResponse",
        "entry": [ {
          "reference": "urn:uuid:57bdf9da-f31f-411d-b74f-582b94d42124"
        } ]
      }, {
        "title": "QuestionnaireResponse",
        "entry": [ {
          "reference": "urn:uuid:29d028c1-c96b-4a5f-97c1-d31eb07be518"
        } ]
      }, {
        "title": "QuestionnaireResponse",
        "entry": [ {
          "reference": "urn:uuid:3fd790d0-b4e0-46fa-b0ce-3cf13bd89386"
        } ]
      }, {
        "title": "QuestionnaireResponse",
        "entry": [ {
          "reference": "urn:uuid:ee411b5a-8838-429e-98eb-824c0d8646db"
        } ]
      }, {
        "title": "QuestionnaireResponse",
        "entry": [ {
          "reference": "urn:uuid:7f47396b-f75d-47dd-a556-937c2236e38b"
        } ]
      }, {
        "title": "QuestionnaireResponse",
        "entry": [ {
          "reference": "urn:uuid:2eb06e9e-f0a4-4d0e-906c-0abba11d10fe"
        } ]
      }, {
        "title": "QuestionnaireResponse",
        "entry": [ {
          "reference": "urn:uuid:0e743f17-1a38-42d2-9afd-13a972220a6d"
        } ]
      }, {
        "title": "QuestionnaireResponse",
        "entry": [ {
          "reference": "urn:uuid:65be0aad-833d-44fa-bd1b-50a37dad3777"
        } ]
      }, {
        "title": "QuestionnaireResponse",
        "entry": [ {
          "reference": "urn:uuid:8aa16bfe-882f-46b5-b6e8-0923719af148"
        } ]
      }, {
        "title": "QuestionnaireResponse",
        "entry": [ {
          "reference": "urn:uuid:44c499e7-899c-47e0-9437-8ce6767ec772"
        } ]
      }, {
        "title": "QuestionnaireResponse",
        "entry": [ {
          "reference": "urn:uuid:eee5ccd7-ad69-457d-86dd-d93464e52171"
        } ]
      }, {
        "title": "QuestionnaireResponse",
        "entry": [ {
          "reference": "urn:uuid:374920a8-7837-4d67-b740-d20c63239bbc"
        } ]
      }, {
        "title": "QuestionnaireResponse",
        "entry": [ {
          "reference": "urn:uuid:d96cdefd-9504-4997-b8e7-c2a6e94d8f8b"
        } ]
      }, {
        "title": "QuestionnaireResponse",
        "entry": [ {
          "reference": "urn:uuid:8b7daa84-6d3e-44d1-9062-8d9ff02ccf1d"
        } ]
      }, {
        "title": "QuestionnaireResponse",
        "entry": [ {
          "reference": "urn:uuid:9efcf2b6-83b8-47c4-b03c-7d0b7b45ce6d"
        } ]
      }, {
        "title": "QuestionnaireResponse",
        "entry": [ {
          "reference": "urn:uuid:c076b305-6a32-4fff-b4ac-280efefdceec"
        } ]
      }, {
        "title": "QuestionnaireResponse",
        "entry": [ {
          "reference": "urn:uuid:c3e9c1ee-862c-4ca1-a9ed-ff74ddd26ce3"
        } ]
      }, {
        "title": "QuestionnaireResponse",
        "entry": [ {
          "reference": "urn:uuid:a494aa04-165b-4973-9322-781aca2afbce"
        } ]
      }, {
        "title": "QuestionnaireResponse",
        "entry": [ {
          "reference": "urn:uuid:ee4da509-567d-4070-966d-0c46a2d54aa8"
        } ]
      }, {
        "title": "QuestionnaireResponse",
        "entry": [ {
          "reference": "urn:uuid:c8019a9c-a5ef-42e2-80ac-6c395792d831"
        } ]
      }, {
        "title": "QuestionnaireResponse",
        "entry": [ {
          "reference": "urn:uuid:30e87cf5-2e4a-47bd-9343-6c033a4d15af"
        } ]
      } ]
    }
  }, {
    "fullUrl": "urn:uuid:13db179e-09c6-408a-af80-705439a5ec55",
    "resource": {
      "resourceType": "CarePlan",
      "id": "13db179e-09c6-408a-af80-705439a5ec55",
      "status": "completed",
      "intent": "plan",
      "title": "Information And Advice Given",
      "subject": {
        "reference": "urn:uuid:9b652481-2b6f-4128-bb14-b0e86d89bbde"
      },
      "context": {
        "reference": "urn:uuid:e0b44df7-4273-4657-9fb3-8fbaf1ee1ea4"
      },
      "period": {
        "start": "2021-04-06T11:33:35+00:00"
      },
      "author": [ {
        "reference": "urn:uuid:81eaa118-a0de-4265-8fbf-e70e2491bc22"
      } ],
      "addresses": [ {
        "reference": "urn:uuid:1b52f5dc-20e2-4994-9284-72f64082c05f"
      } ]
    }
  }, {
    "fullUrl": "urn:uuid:82a9a549-143e-49ef-a182-386352605ee9",
    "resource": {
      "resourceType": "Consent",
      "id": "82a9a549-143e-49ef-a182-386352605ee9",
      "identifier": {
        "use": "usual",
        "value": "A8E3FB32-6805-4191-B071-EA540A9318CD"
      },
      "status": "active",
      "patient": {
        "reference": "urn:uuid:9b652481-2b6f-4128-bb14-b0e86d89bbde"
      },
      "period": {
        "start": "2021-04-06T11:33:35+00:00"
      },
      "consentingParty": [ {
        "reference": "urn:uuid:9b652481-2b6f-4128-bb14-b0e86d89bbde"
      } ],
      "action": [ {
        "coding": [ {
          "system": "http://snomed.info/sct",
          "code": "425691002",
          "display": "Consent given for electronic record sharing"
        } ],
        "text": "Consent given for electronic record sharing"
      } ],
      "organization": [ {
        "reference": "urn:uuid:c6271046-043a-47cd-b87a-56fa60fc3046"
      } ],
      "policyRule": "http://hl7.org/fhir/ConsentPolicy/opt-out",
      "data": [ {
        "meaning": "related",
        "reference": {
          "reference": "urn:uuid:e0b44df7-4273-4657-9fb3-8fbaf1ee1ea4"
        }
      } ]
    }
  }, {
    "fullUrl": "urn:uuid:1b52f5dc-20e2-4994-9284-72f64082c05f",
    "resource": {
      "resourceType": "Condition",
      "id": "1b52f5dc-20e2-4994-9284-72f64082c05f",
      "clinicalStatus": "active",
      "verificationStatus": "unknown",
      "subject": {
        "reference": "urn:uuid:9b652481-2b6f-4128-bb14-b0e86d89bbde"
      },
      "context": {
        "reference": "urn:uuid:e0b44df7-4273-4657-9fb3-8fbaf1ee1ea4"
      },
      "evidence": [ {
        "detail": [ {
          "reference": "urn:uuid:29e05e2f-4a0e-482b-b511-c72a1fd7004c"
        } ]
      }, {
        "detail": [ {
          "reference": "urn:uuid:7f0dd54a-355f-437d-9dad-35e5d65443df"
        } ]
      }, {
        "detail": [ {
          "reference": "urn:uuid:03803b83-f78b-422b-87a8-ff3dccd771a4"
        } ]
      }, {
        "detail": [ {
          "reference": "urn:uuid:37f3e036-7819-43b1-90dd-b93af5a90672"
        } ]
      }, {
        "detail": [ {
          "reference": "urn:uuid:28338d75-8843-42fc-be03-124d96027e98"
        } ]
      }, {
        "detail": [ {
          "reference": "urn:uuid:682bb223-dc66-42bd-8823-bf221567b20c"
        } ]
      }, {
        "detail": [ {
          "reference": "urn:uuid:53cdeb6a-07bb-4199-b06c-3ad7b2c931fc"
        } ]
      }, {
        "detail": [ {
          "reference": "urn:uuid:d6c133bd-86c9-4120-bd0a-ee44d09a2c6c"
        } ]
      }, {
        "detail": [ {
          "reference": "urn:uuid:d163701c-bcf6-4be6-9146-1bdc988afe0e"
        } ]
      }, {
        "detail": [ {
          "reference": "urn:uuid:528b4bdb-56bd-40b1-bea7-805b441259ed"
        } ]
      }, {
        "detail": [ {
          "reference": "urn:uuid:faf9fdff-4eea-4fd2-8a5e-d868a6f6795d"
        } ]
      }, {
        "detail": [ {
          "reference": "urn:uuid:f1a6aa4e-a327-4650-a641-84fe38bdc66d"
        } ]
      }, {
        "detail": [ {
          "reference": "urn:uuid:e8678519-78b6-49a6-ac5c-5be380089f36"
        } ]
      }, {
        "detail": [ {
          "reference": "urn:uuid:6576dd0c-3979-4cac-bb9d-9b1ea6482f25"
        } ]
      }, {
        "detail": [ {
          "reference": "urn:uuid:c836d30d-270f-4bbb-95ae-1003f7d34e7e"
        } ]
      }, {
        "detail": [ {
          "reference": "urn:uuid:dfe6b6b7-dae0-4a80-8dfa-adda6f2bdc37"
        } ]
      }, {
        "detail": [ {
          "reference": "urn:uuid:77778490-3172-43ac-9397-87487d4200d4"
        } ]
      }, {
        "detail": [ {
          "reference": "urn:uuid:3488d9f9-6fc5-4fb6-9093-60b0aca98515"
        } ]
      }, {
        "detail": [ {
          "reference": "urn:uuid:b52ca5bc-3b2f-4108-aa86-5a841cacb5be"
        } ]
      }, {
        "detail": [ {
          "reference": "urn:uuid:c9a85889-9f0f-4398-8ffc-1e1f5f770cc7"
        } ]
      }, {
        "detail": [ {
          "reference": "urn:uuid:0c7f1ce9-53a2-46f6-aa43-3cc85dd25201"
        } ]
      }, {
        "detail": [ {
          "reference": "urn:uuid:4de83fd0-d4fe-4250-ad59-a9d8cf2145d4"
        } ]
      }, {
        "detail": [ {
          "reference": "urn:uuid:37c7b40b-c3aa-4d41-b44d-d0081bff2368"
        } ]
      }, {
        "detail": [ {
          "reference": "urn:uuid:b46a4a54-6716-4f6f-a2e9-24d28e183d4b"
        } ]
      }, {
        "detail": [ {
          "reference": "urn:uuid:4ce57052-3d79-47e6-843a-b8efc92f2d55"
        } ]
      }, {
        "detail": [ {
          "reference": "urn:uuid:076c1a00-f0b1-4218-ae8e-ae43a1bf4a59"
        } ]
      }, {
        "detail": [ {
          "reference": "urn:uuid:74e73559-a45e-4410-ad98-e301fa71761b"
        } ]
      }, {
        "detail": [ {
          "reference": "urn:uuid:c1482587-66c2-41cc-b14d-bef8518c1e20"
        } ]
      }, {
        "detail": [ {
          "reference": "urn:uuid:c3928130-afe6-43e8-8d42-74a95f486660"
        } ]
      }, {
        "detail": [ {
          "reference": "urn:uuid:2a709291-cc40-41fb-a3ef-e6ac2aa6f5eb"
        } ]
      }, {
        "detail": [ {
          "reference": "urn:uuid:c7ba7999-4569-43c1-9fe8-6e6328dd51c4"
        } ]
      }, {
        "detail": [ {
          "reference": "urn:uuid:48d4389b-6080-4e04-a2be-2c557c8d51bf"
        } ]
      }, {
        "detail": [ {
          "reference": "urn:uuid:e4265e39-182d-4eef-8689-df8d919ea48b"
        } ]
      }, {
        "detail": [ {
          "reference": "urn:uuid:6df8efd3-e264-4bfb-8e21-efe2708682d5"
        } ]
      }, {
        "detail": [ {
          "reference": "urn:uuid:8998bc60-b6af-475a-aa87-99ac61a87653"
        } ]
      }, {
        "detail": [ {
          "reference": "urn:uuid:33424d15-6cc6-4b23-8403-92afdf9bd160"
        } ]
      }, {
        "detail": [ {
          "reference": "urn:uuid:f9d9d59a-a489-40bf-a1ef-aecc08a27100"
        } ]
      }, {
        "detail": [ {
          "reference": "urn:uuid:c995af6d-3c59-4466-aa8d-890d8b8b1f72"
        } ]
      }, {
        "detail": [ {
          "reference": "urn:uuid:eaedf098-3e3d-4ece-bf80-f31ba2fb8aa8"
        } ]
      }, {
        "detail": [ {
          "reference": "urn:uuid:979f3d53-18de-4733-bdb0-40d506ef89b0"
        } ]
      }, {
        "detail": [ {
          "reference": "urn:uuid:6be864c1-0d3b-44c0-a58f-f3cab3bd2435"
        } ]
      }, {
        "detail": [ {
          "reference": "urn:uuid:0c56ceac-4872-4a9a-be0c-8a8ed83a6366"
        } ]
      }, {
        "detail": [ {
          "reference": "urn:uuid:13cad67a-5e79-43a4-b03b-3fddcb6352cf"
        } ]
      }, {
        "detail": [ {
          "reference": "urn:uuid:7a16fed7-9129-4602-bbb5-7c0b4b7b5043"
        } ]
      }, {
        "detail": [ {
          "reference": "urn:uuid:72effe90-d99a-4fec-8c51-da625d374b5b"
        } ]
      }, {
        "detail": [ {
          "reference": "urn:uuid:5064af8d-a2ac-4f96-9af3-9c155060374b"
        } ]
      }, {
        "detail": [ {
          "reference": "urn:uuid:fe6abde6-02c9-485d-ad33-570f5066402d"
        } ]
      }, {
        "detail": [ {
          "reference": "urn:uuid:03189987-ee1e-4fe2-a879-3b4f82b73421"
        } ]
      }, {
        "detail": [ {
          "reference": "urn:uuid:7172a30f-f601-4d8d-bd32-baa3792efa71"
        } ]
      }, {
        "detail": [ {
          "reference": "urn:uuid:f45b4686-7bc6-46de-b29b-0e5103af9b8e"
        } ]
      }, {
        "detail": [ {
          "reference": "urn:uuid:7ea48683-4345-4380-a82d-4633bbb4f5e8"
        } ]
      }, {
        "detail": [ {
          "reference": "urn:uuid:8a6025bd-6c53-4cbd-8849-829dbb7b291c"
        } ]
      }, {
        "detail": [ {
          "reference": "urn:uuid:57bdf9da-f31f-411d-b74f-582b94d42124"
        } ]
      }, {
        "detail": [ {
          "reference": "urn:uuid:29d028c1-c96b-4a5f-97c1-d31eb07be518"
        } ]
      }, {
        "detail": [ {
          "reference": "urn:uuid:3fd790d0-b4e0-46fa-b0ce-3cf13bd89386"
        } ]
      }, {
        "detail": [ {
          "reference": "urn:uuid:ee411b5a-8838-429e-98eb-824c0d8646db"
        } ]
      }, {
        "detail": [ {
          "reference": "urn:uuid:7f47396b-f75d-47dd-a556-937c2236e38b"
        } ]
      }, {
        "detail": [ {
          "reference": "urn:uuid:2eb06e9e-f0a4-4d0e-906c-0abba11d10fe"
        } ]
      }, {
        "detail": [ {
          "reference": "urn:uuid:0e743f17-1a38-42d2-9afd-13a972220a6d"
        } ]
      }, {
        "detail": [ {
          "reference": "urn:uuid:65be0aad-833d-44fa-bd1b-50a37dad3777"
        } ]
      }, {
        "detail": [ {
          "reference": "urn:uuid:8aa16bfe-882f-46b5-b6e8-0923719af148"
        } ]
      }, {
        "detail": [ {
          "reference": "urn:uuid:44c499e7-899c-47e0-9437-8ce6767ec772"
        } ]
      }, {
        "detail": [ {
          "reference": "urn:uuid:eee5ccd7-ad69-457d-86dd-d93464e52171"
        } ]
      }, {
        "detail": [ {
          "reference": "urn:uuid:374920a8-7837-4d67-b740-d20c63239bbc"
        } ]
      }, {
        "detail": [ {
          "reference": "urn:uuid:d96cdefd-9504-4997-b8e7-c2a6e94d8f8b"
        } ]
      }, {
        "detail": [ {
          "reference": "urn:uuid:8b7daa84-6d3e-44d1-9062-8d9ff02ccf1d"
        } ]
      }, {
        "detail": [ {
          "reference": "urn:uuid:9efcf2b6-83b8-47c4-b03c-7d0b7b45ce6d"
        } ]
      }, {
        "detail": [ {
          "reference": "urn:uuid:c076b305-6a32-4fff-b4ac-280efefdceec"
        } ]
      }, {
        "detail": [ {
          "reference": "urn:uuid:c3e9c1ee-862c-4ca1-a9ed-ff74ddd26ce3"
        } ]
      }, {
        "detail": [ {
          "reference": "urn:uuid:a494aa04-165b-4973-9322-781aca2afbce"
        } ]
      }, {
        "detail": [ {
          "reference": "urn:uuid:ee4da509-567d-4070-966d-0c46a2d54aa8"
        } ]
      }, {
        "detail": [ {
          "reference": "urn:uuid:c8019a9c-a5ef-42e2-80ac-6c395792d831"
        } ]
      }, {
        "detail": [ {
          "reference": "urn:uuid:30e87cf5-2e4a-47bd-9343-6c033a4d15af"
        } ]
      } ]
    }
  }, {
    "fullUrl": "urn:uuid:29e05e2f-4a0e-482b-b511-c72a1fd7004c",
    "resource": {
      "resourceType": "QuestionnaireResponse",
      "id": "29e05e2f-4a0e-482b-b511-c72a1fd7004c",
      "identifier": {
        "value": "59132"
      },
      "questionnaire": {
        "reference": "urn:uuid:52dd5550-ecdd-430d-8013-430d5b22c84a"
      },
      "status": "completed",
      "subject": {
        "reference": "urn:uuid:9b652481-2b6f-4128-bb14-b0e86d89bbde"
      },
      "context": {
        "reference": "urn:uuid:e0b44df7-4273-4657-9fb3-8fbaf1ee1ea4"
      },
      "authored": "2021-04-06T11:33:34+00:00",
      "item": [ {
        "linkId": "Tx220074",
        "text": "What is the reason for the contact?",
        "answer": [ {
          "valueString": "an injury or other health problem"
        } ]
      } ]
    }
  }, {
    "fullUrl": "urn:uuid:52dd5550-ecdd-430d-8013-430d5b22c84a",
    "resource": {
      "resourceType": "Questionnaire",
      "id": "52dd5550-ecdd-430d-8013-430d5b22c84a",
      "identifier": [ {
        "value": "59132"
      } ],
      "version": "2021-04-06T11:33:34.963Z",
      "status": "active",
      "experimental": false,
      "date": "2021-04-06T11:33:34+00:00",
      "publisher": "User ID: 'MCDONALDD' User name: 'Denzle McDonald' User skill set: 'T3'",
      "lastReviewDate": "2021-04-06",
      "subjectType": [ "Patient" ],
      "item": [ {
        "linkId": "59132",
        "prefix": "5",
        "text": "What is the reason for the contact?",
        "type": "choice",
        "required": true,
        "repeats": false,
        "option": [ {
          "valueString": "an injury or other health problem, Selected: true"
        }, {
          "valueString": "labour or childbirth, Selected: false"
        }, {
          "valueString": "a need to access another healthcare service, Selected: false"
        }, {
          "valueString": "a healthcare professional requesting contact with another clinician, Selected: false"
        }, {
          "valueString": "a report of results or tests, Selected: false"
        }, {
          "valueString": "a possible failure of contraception, Selected: false"
        }, {
          "valueString": "more, Selected: false"
        } ]
      } ]
    }
  }, {
    "fullUrl": "urn:uuid:7f0dd54a-355f-437d-9dad-35e5d65443df",
    "resource": {
      "resourceType": "QuestionnaireResponse",
      "id": "7f0dd54a-355f-437d-9dad-35e5d65443df",
      "identifier": {
        "value": "59132"
      },
      "questionnaire": {
        "reference": "urn:uuid:274aa7a0-0d33-4ec1-8d40-6db311d4758f"
      },
      "status": "completed",
      "subject": {
        "reference": "urn:uuid:9b652481-2b6f-4128-bb14-b0e86d89bbde"
      },
      "context": {
        "reference": "urn:uuid:e0b44df7-4273-4657-9fb3-8fbaf1ee1ea4"
      },
      "authored": "2021-04-06T11:33:34+00:00",
      "item": [ {
        "linkId": "Tx221807",
        "text": "STRING:to'Immediatethreatstolife(SPA/OOHversion)'-'Majorbloodloss'stem",
        "answer": [ {
          "valueString": "\"present\""
        } ]
      } ]
    }
  }, {
    "fullUrl": "urn:uuid:274aa7a0-0d33-4ec1-8d40-6db311d4758f",
    "resource": {
      "resourceType": "Questionnaire",
      "id": "274aa7a0-0d33-4ec1-8d40-6db311d4758f",
      "identifier": [ {
        "value": "59132"
      } ],
      "version": "2021-04-06T11:33:34.963Z",
      "status": "active",
      "experimental": false,
      "date": "2021-04-06T11:33:34+00:00",
      "publisher": "User ID: 'MCDONALDD' User name: 'Denzle McDonald' User skill set: 'T3'",
      "lastReviewDate": "2021-04-06",
      "subjectType": [ "Patient" ],
      "item": [ {
        "linkId": "59132",
        "prefix": "400",
        "text": "STRING:to'Immediatethreatstolife(SPA/OOHversion)'-'Majorbloodloss'stem",
        "type": "choice",
        "required": true,
        "repeats": false,
        "option": [ {
          "valueString": "\"present\", Selected: true"
        } ]
      } ]
    }
  }, {
    "fullUrl": "urn:uuid:03803b83-f78b-422b-87a8-ff3dccd771a4",
    "resource": {
      "resourceType": "QuestionnaireResponse",
      "id": "03803b83-f78b-422b-87a8-ff3dccd771a4",
      "identifier": {
        "value": "59132"
      },
      "questionnaire": {
        "reference": "urn:uuid:1ce7eb38-ecf5-423e-8c59-1960a9e8731f"
      },
      "status": "completed",
      "subject": {
        "reference": "urn:uuid:9b652481-2b6f-4128-bb14-b0e86d89bbde"
      },
      "context": {
        "reference": "urn:uuid:e0b44df7-4273-4657-9fb3-8fbaf1ee1ea4"
      },
      "authored": "2021-04-06T11:33:34+00:00"
    }
  }, {
    "fullUrl": "urn:uuid:1ce7eb38-ecf5-423e-8c59-1960a9e8731f",
    "resource": {
      "resourceType": "Questionnaire",
      "id": "1ce7eb38-ecf5-423e-8c59-1960a9e8731f",
      "identifier": [ {
        "value": "59132"
      } ],
      "version": "2021-04-06T11:33:34.963Z",
      "status": "active",
      "experimental": false,
      "date": "2021-04-06T11:33:34+00:00",
      "publisher": "User ID: 'MCDONALDD' User name: 'Denzle McDonald' User skill set: 'T3'",
      "lastReviewDate": "2021-04-06",
      "subjectType": [ "Patient" ]
    }
  }, {
    "fullUrl": "urn:uuid:37f3e036-7819-43b1-90dd-b93af5a90672",
    "resource": {
      "resourceType": "QuestionnaireResponse",
      "id": "37f3e036-7819-43b1-90dd-b93af5a90672",
      "identifier": {
        "value": "59132"
      },
      "questionnaire": {
        "reference": "urn:uuid:0d2f55d3-a4ae-4466-849a-c20c0e8ebffc"
      },
      "status": "completed",
      "subject": {
        "reference": "urn:uuid:9b652481-2b6f-4128-bb14-b0e86d89bbde"
      },
      "context": {
        "reference": "urn:uuid:e0b44df7-4273-4657-9fb3-8fbaf1ee1ea4"
      },
      "authored": "2021-04-06T11:33:34+00:00",
      "item": [ {
        "linkId": "Tx221799",
        "text": "STRING:injury,illnessorlabourestablishedinEntryFlow",
        "answer": [ {
          "valueString": "\"present\""
        } ]
      } ]
    }
  }, {
    "fullUrl": "urn:uuid:0d2f55d3-a4ae-4466-849a-c20c0e8ebffc",
    "resource": {
      "resourceType": "Questionnaire",
      "id": "0d2f55d3-a4ae-4466-849a-c20c0e8ebffc",
      "identifier": [ {
        "value": "59132"
      } ],
      "version": "2021-04-06T11:33:34.963Z",
      "status": "active",
      "experimental": false,
      "date": "2021-04-06T11:33:34+00:00",
      "publisher": "User ID: 'MCDONALDD' User name: 'Denzle McDonald' User skill set: 'T3'",
      "lastReviewDate": "2021-04-06",
      "subjectType": [ "Patient" ],
      "item": [ {
        "linkId": "59132",
        "prefix": "0",
        "text": "STRING:injury,illnessorlabourestablishedinEntryFlow",
        "type": "choice",
        "required": true,
        "repeats": false,
        "option": [ {
          "valueString": "\"present\", Selected: true"
        } ]
      } ]
    }
  }, {
    "fullUrl": "urn:uuid:28338d75-8843-42fc-be03-124d96027e98",
    "resource": {
      "resourceType": "QuestionnaireResponse",
      "id": "28338d75-8843-42fc-be03-124d96027e98",
      "identifier": {
        "value": "59132"
      },
      "questionnaire": {
        "reference": "urn:uuid:3afc38ac-ffcb-4f11-8f0d-044c17a28270"
      },
      "status": "completed",
      "subject": {
        "reference": "urn:uuid:9b652481-2b6f-4128-bb14-b0e86d89bbde"
      },
      "context": {
        "reference": "urn:uuid:e0b44df7-4273-4657-9fb3-8fbaf1ee1ea4"
      },
      "authored": "2021-04-06T11:33:34+00:00",
      "item": [ {
        "linkId": "Tx221421",
        "text": "Have you been bleeding RED BLOOD very heavily IN THE LAST 30 MINUTES?",
        "answer": [ {
          "valueString": "no"
        } ]
      } ]
    }
  }, {
    "fullUrl": "urn:uuid:3afc38ac-ffcb-4f11-8f0d-044c17a28270",
    "resource": {
      "resourceType": "Questionnaire",
      "id": "3afc38ac-ffcb-4f11-8f0d-044c17a28270",
      "identifier": [ {
        "value": "59132"
      } ],
      "version": "2021-04-06T11:33:34.963Z",
      "status": "active",
      "experimental": false,
      "date": "2021-04-06T11:33:34+00:00",
      "publisher": "User ID: 'MCDONALDD' User name: 'Denzle McDonald' User skill set: 'T3'",
      "lastReviewDate": "2021-04-06",
      "subjectType": [ "Patient" ],
      "item": [ {
        "linkId": "59132",
        "prefix": "200",
        "text": "Have you been bleeding RED BLOOD very heavily IN THE LAST 30 MINUTES?",
        "type": "choice",
        "required": true,
        "repeats": false,
        "option": [ {
          "valueString": "yes, Selected: false"
        }, {
          "valueString": "not sure, Selected: false"
        }, {
          "valueString": "no, Selected: true"
        } ]
      } ]
    }
  }, {
    "fullUrl": "urn:uuid:682bb223-dc66-42bd-8823-bf221567b20c",
    "resource": {
      "resourceType": "QuestionnaireResponse",
      "id": "682bb223-dc66-42bd-8823-bf221567b20c",
      "identifier": {
        "value": "59132"
      },
      "questionnaire": {
        "reference": "urn:uuid:b3226266-455c-42ed-9a15-e4ae2129cf96"
      },
      "status": "completed",
      "subject": {
        "reference": "urn:uuid:9b652481-2b6f-4128-bb14-b0e86d89bbde"
      },
      "context": {
        "reference": "urn:uuid:e0b44df7-4273-4657-9fb3-8fbaf1ee1ea4"
      },
      "authored": "2021-04-06T11:33:34+00:00",
      "item": [ {
        "linkId": "Tx221343",
        "text": "SocialConcernsExcluded",
        "answer": [ {
          "valueString": "*"
        } ]
      } ]
    }
  }, {
    "fullUrl": "urn:uuid:b3226266-455c-42ed-9a15-e4ae2129cf96",
    "resource": {
      "resourceType": "Questionnaire",
      "id": "b3226266-455c-42ed-9a15-e4ae2129cf96",
      "identifier": [ {
        "value": "59132"
      } ],
      "version": "2021-04-06T11:33:34.963Z",
      "status": "active",
      "experimental": false,
      "date": "2021-04-06T11:33:34+00:00",
      "publisher": "User ID: 'MCDONALDD' User name: 'Denzle McDonald' User skill set: 'T3'",
      "lastReviewDate": "2021-04-06",
      "subjectType": [ "Patient" ],
      "item": [ {
        "linkId": "59132",
        "prefix": "2600",
        "text": "SocialConcernsExcluded",
        "type": "choice",
        "required": true,
        "repeats": false,
        "option": [ {
          "valueString": "==\"present\", Selected: false"
        }, {
          "valueString": "*, Selected: true"
        } ]
      } ]
    }
  }, {
    "fullUrl": "urn:uuid:53cdeb6a-07bb-4199-b06c-3ad7b2c931fc",
    "resource": {
      "resourceType": "QuestionnaireResponse",
      "id": "53cdeb6a-07bb-4199-b06c-3ad7b2c931fc",
      "identifier": {
        "value": "59132"
      },
      "questionnaire": {
        "reference": "urn:uuid:6633aafa-1af8-4ef8-98a5-bfc9b8c4ec22"
      },
      "status": "completed",
      "subject": {
        "reference": "urn:uuid:9b652481-2b6f-4128-bb14-b0e86d89bbde"
      },
      "context": {
        "reference": "urn:uuid:e0b44df7-4273-4657-9fb3-8fbaf1ee1ea4"
      },
      "authored": "2021-04-06T11:33:34+00:00",
      "item": [ {
        "linkId": "Tx130011",
        "text": "What is the main problem?",
        "answer": [ {
          "valueString": "illness or other health problem (specify)"
        } ]
      } ]
    }
  }, {
    "fullUrl": "urn:uuid:6633aafa-1af8-4ef8-98a5-bfc9b8c4ec22",
    "resource": {
      "resourceType": "Questionnaire",
      "id": "6633aafa-1af8-4ef8-98a5-bfc9b8c4ec22",
      "identifier": [ {
        "value": "59132"
      } ],
      "version": "2021-04-06T11:33:34.963Z",
      "status": "active",
      "experimental": false,
      "date": "2021-04-06T11:33:34+00:00",
      "publisher": "User ID: 'MCDONALDD' User name: 'Denzle McDonald' User skill set: 'T3'",
      "lastReviewDate": "2021-04-06",
      "subjectType": [ "Patient" ],
      "item": [ {
        "linkId": "59132",
        "prefix": "2500",
        "text": "What is the main problem?",
        "type": "choice",
        "required": true,
        "repeats": false,
        "option": [ {
          "valueString": "the individual has been told to follow a particular course of action (specify), Selected: false"
        }, {
          "valueString": "the individual is an identified frequent caller, Selected: false"
        }, {
          "valueString": "injury (specify), Selected: false"
        }, {
          "valueString": "illness or other health problem (specify), Selected: true"
        }, {
          "valueString": "child protection/vulnerable adult concern, Selected: false"
        }, {
          "valueString": "social or domestic emergency, Selected: false"
        }, {
          "valueString": "the environment potentially poses an immediate threat to life (specify), Selected: false"
        } ]
      } ]
    }
  }, {
    "fullUrl": "urn:uuid:d6c133bd-86c9-4120-bd0a-ee44d09a2c6c",
    "resource": {
      "resourceType": "QuestionnaireResponse",
      "id": "d6c133bd-86c9-4120-bd0a-ee44d09a2c6c",
      "identifier": {
        "value": "59132"
      },
      "questionnaire": {
        "reference": "urn:uuid:60556eb1-6544-4bf6-aeb4-402b9a169c20"
      },
      "status": "completed",
      "subject": {
        "reference": "urn:uuid:9b652481-2b6f-4128-bb14-b0e86d89bbde"
      },
      "context": {
        "reference": "urn:uuid:e0b44df7-4273-4657-9fb3-8fbaf1ee1ea4"
      },
      "authored": "2021-04-06T11:33:34+00:00"
    }
  }, {
    "fullUrl": "urn:uuid:60556eb1-6544-4bf6-aeb4-402b9a169c20",
    "resource": {
      "resourceType": "Questionnaire",
      "id": "60556eb1-6544-4bf6-aeb4-402b9a169c20",
      "identifier": [ {
        "value": "59132"
      } ],
      "version": "2021-04-06T11:33:34.963Z",
      "status": "active",
      "experimental": false,
      "date": "2021-04-06T11:33:34+00:00",
      "publisher": "User ID: 'MCDONALDD' User name: 'Denzle McDonald' User skill set: 'T3'",
      "lastReviewDate": "2021-04-06",
      "subjectType": [ "Patient" ]
    }
  }, {
    "fullUrl": "urn:uuid:d163701c-bcf6-4be6-9146-1bdc988afe0e",
    "resource": {
      "resourceType": "QuestionnaireResponse",
      "id": "d163701c-bcf6-4be6-9146-1bdc988afe0e",
      "identifier": {
        "value": "59132"
      },
      "questionnaire": {
        "reference": "urn:uuid:72aad04d-f27b-4a6d-8d7d-1f1aef82de9c"
      },
      "status": "completed",
      "subject": {
        "reference": "urn:uuid:9b652481-2b6f-4128-bb14-b0e86d89bbde"
      },
      "context": {
        "reference": "urn:uuid:e0b44df7-4273-4657-9fb3-8fbaf1ee1ea4"
      },
      "authored": "2021-04-06T11:33:34+00:00",
      "item": [ {
        "linkId": "Tx61025",
        "text": "Are you so breathless that speaking more than a few words is impossible?",
        "answer": [ {
          "valueString": "no"
        } ]
      } ]
    }
  }, {
    "fullUrl": "urn:uuid:72aad04d-f27b-4a6d-8d7d-1f1aef82de9c",
    "resource": {
      "resourceType": "Questionnaire",
      "id": "72aad04d-f27b-4a6d-8d7d-1f1aef82de9c",
      "identifier": [ {
        "value": "59132"
      } ],
      "version": "2021-04-06T11:33:34.963Z",
      "status": "active",
      "experimental": false,
      "date": "2021-04-06T11:33:34+00:00",
      "publisher": "User ID: 'MCDONALDD' User name: 'Denzle McDonald' User skill set: 'T3'",
      "lastReviewDate": "2021-04-06",
      "subjectType": [ "Patient" ],
      "item": [ {
        "linkId": "59132",
        "prefix": "0",
        "text": "Are you so breathless that speaking more than a few words is impossible?",
        "type": "choice",
        "required": true,
        "repeats": false,
        "option": [ {
          "valueString": "yes, Selected: false"
        }, {
          "valueString": "not sure, Selected: false"
        }, {
          "valueString": "no, Selected: true"
        } ]
      } ]
    }
  }, {
    "fullUrl": "urn:uuid:528b4bdb-56bd-40b1-bea7-805b441259ed",
    "resource": {
      "resourceType": "QuestionnaireResponse",
      "id": "528b4bdb-56bd-40b1-bea7-805b441259ed",
      "identifier": {
        "value": "59132"
      },
      "questionnaire": {
        "reference": "urn:uuid:3c130dff-e337-4501-863d-7c163b74dbf5"
      },
      "status": "completed",
      "subject": {
        "reference": "urn:uuid:9b652481-2b6f-4128-bb14-b0e86d89bbde"
      },
      "context": {
        "reference": "urn:uuid:e0b44df7-4273-4657-9fb3-8fbaf1ee1ea4"
      },
      "authored": "2021-04-06T11:33:34+00:00",
      "item": [ {
        "linkId": "Tx220845",
        "text": "SYSTEM_FLUPANDEMIC",
        "answer": [ {
          "valueString": "*"
        } ]
      } ]
    }
  }, {
    "fullUrl": "urn:uuid:3c130dff-e337-4501-863d-7c163b74dbf5",
    "resource": {
      "resourceType": "Questionnaire",
      "id": "3c130dff-e337-4501-863d-7c163b74dbf5",
      "identifier": [ {
        "value": "59132"
      } ],
      "version": "2021-04-06T11:33:34.963Z",
      "status": "active",
      "experimental": false,
      "date": "2021-04-06T11:33:34+00:00",
      "publisher": "User ID: 'MCDONALDD' User name: 'Denzle McDonald' User skill set: 'T3'",
      "lastReviewDate": "2021-04-06",
      "subjectType": [ "Patient" ],
      "item": [ {
        "linkId": "59132",
        "prefix": "100",
        "text": "SYSTEM_FLUPANDEMIC",
        "type": "choice",
        "required": true,
        "repeats": false,
        "option": [ {
          "valueString": "==\"pandemic\", Selected: false"
        }, {
          "valueString": "*, Selected: true"
        } ]
      } ]
    }
  }, {
    "fullUrl": "urn:uuid:faf9fdff-4eea-4fd2-8a5e-d868a6f6795d",
    "resource": {
      "resourceType": "QuestionnaireResponse",
      "id": "faf9fdff-4eea-4fd2-8a5e-d868a6f6795d",
      "identifier": {
        "value": "59132"
      },
      "questionnaire": {
        "reference": "urn:uuid:e86e1c34-e8fd-4148-9788-37695474f27a"
      },
      "status": "completed",
      "subject": {
        "reference": "urn:uuid:9b652481-2b6f-4128-bb14-b0e86d89bbde"
      },
      "context": {
        "reference": "urn:uuid:e0b44df7-4273-4657-9fb3-8fbaf1ee1ea4"
      },
      "authored": "2021-04-06T11:33:34+00:00",
      "item": [ {
        "linkId": "Tx220044",
        "text": "WHAT IS SAID TO BE THE MAIN REASON FOR THIS CONTACT?",
        "answer": [ {
          "valueString": "more"
        } ]
      } ]
    }
  }, {
    "fullUrl": "urn:uuid:e86e1c34-e8fd-4148-9788-37695474f27a",
    "resource": {
      "resourceType": "Questionnaire",
      "id": "e86e1c34-e8fd-4148-9788-37695474f27a",
      "identifier": [ {
        "value": "59132"
      } ],
      "version": "2021-04-06T11:33:34.963Z",
      "status": "active",
      "experimental": false,
      "date": "2021-04-06T11:33:34+00:00",
      "publisher": "User ID: 'MCDONALDD' User name: 'Denzle McDonald' User skill set: 'T3'",
      "lastReviewDate": "2021-04-06",
      "subjectType": [ "Patient" ],
      "item": [ {
        "linkId": "59132",
        "prefix": "5000",
        "text": "WHAT IS SAID TO BE THE MAIN REASON FOR THIS CONTACT?",
        "type": "choice",
        "required": true,
        "repeats": false,
        "option": [ {
          "valueString": "a probable allergic reaction now, Selected: false"
        }, {
          "valueString": "chest or upper back pain, Selected: false"
        }, {
          "valueString": "a probable fit or seizure within the last 12 hours, Selected: false"
        }, {
          "valueString": "a suicide attempt, Selected: false"
        }, {
          "valueString": "new confusion now, Selected: false"
        }, {
          "valueString": "a probable stroke or mini stroke, Selected: false"
        }, {
          "valueString": "more, Selected: true"
        } ]
      } ]
    }
  }, {
    "fullUrl": "urn:uuid:f1a6aa4e-a327-4650-a641-84fe38bdc66d",
    "resource": {
      "resourceType": "QuestionnaireResponse",
      "id": "f1a6aa4e-a327-4650-a641-84fe38bdc66d",
      "identifier": {
        "value": "59132"
      },
      "questionnaire": {
        "reference": "urn:uuid:471cbe85-84bf-4e8e-9678-30fc7246f88a"
      },
      "status": "completed",
      "subject": {
        "reference": "urn:uuid:9b652481-2b6f-4128-bb14-b0e86d89bbde"
      },
      "context": {
        "reference": "urn:uuid:e0b44df7-4273-4657-9fb3-8fbaf1ee1ea4"
      },
      "authored": "2021-04-06T11:33:34+00:00",
      "item": [ {
        "linkId": "Tx223029",
        "text": "WHAT IS SAID TO BE THE MAIN REASON FOR THIS CONTACT?",
        "answer": [ {
          "valueString": "none of the above"
        } ]
      } ]
    }
  }, {
    "fullUrl": "urn:uuid:471cbe85-84bf-4e8e-9678-30fc7246f88a",
    "resource": {
      "resourceType": "Questionnaire",
      "id": "471cbe85-84bf-4e8e-9678-30fc7246f88a",
      "identifier": [ {
        "value": "59132"
      } ],
      "version": "2021-04-06T11:33:34.963Z",
      "status": "active",
      "experimental": false,
      "date": "2021-04-06T11:33:34+00:00",
      "publisher": "User ID: 'MCDONALDD' User name: 'Denzle McDonald' User skill set: 'T3'",
      "lastReviewDate": "2021-04-06",
      "subjectType": [ "Patient" ],
      "item": [ {
        "linkId": "59132",
        "prefix": "4100",
        "text": "WHAT IS SAID TO BE THE MAIN REASON FOR THIS CONTACT?",
        "type": "choice",
        "required": true,
        "repeats": false,
        "option": [ {
          "valueString": "a diabetic hypo (low blood sugar) or a diabetic hyper (high blood sugar), Selected: false"
        }, {
          "valueString": "recovery from an ICD (implanted cardioverter defibrillator) shock, Selected: false"
        }, {
          "valueString": "none of the above, Selected: true"
        } ]
      } ]
    }
  }, {
    "fullUrl": "urn:uuid:e8678519-78b6-49a6-ac5c-5be380089f36",
    "resource": {
      "resourceType": "QuestionnaireResponse",
      "id": "e8678519-78b6-49a6-ac5c-5be380089f36",
      "identifier": {
        "value": "59132"
      },
      "questionnaire": {
        "reference": "urn:uuid:74258b18-ebd7-4d26-8f7a-8ab95424c9f7"
      },
      "status": "completed",
      "subject": {
        "reference": "urn:uuid:9b652481-2b6f-4128-bb14-b0e86d89bbde"
      },
      "context": {
        "reference": "urn:uuid:e0b44df7-4273-4657-9fb3-8fbaf1ee1ea4"
      },
      "authored": "2021-04-06T11:33:34+00:00",
      "item": [ {
        "linkId": "Tx223142",
        "text": "Does the skin on the chest, back or abdomen feel a normal temperature?",
        "answer": [ {
          "valueString": "yes - normal, warm or hot"
        } ]
      } ]
    }
  }, {
    "fullUrl": "urn:uuid:74258b18-ebd7-4d26-8f7a-8ab95424c9f7",
    "resource": {
      "resourceType": "Questionnaire",
      "id": "74258b18-ebd7-4d26-8f7a-8ab95424c9f7",
      "identifier": [ {
        "value": "59132"
      } ],
      "version": "2021-04-06T11:33:34.963Z",
      "status": "active",
      "experimental": false,
      "date": "2021-04-06T11:33:34+00:00",
      "publisher": "User ID: 'MCDONALDD' User name: 'Denzle McDonald' User skill set: 'T3'",
      "lastReviewDate": "2021-04-06",
      "subjectType": [ "Patient" ],
      "item": [ {
        "linkId": "59132",
        "prefix": "4400",
        "text": "Does the skin on the chest, back or abdomen feel a normal temperature?",
        "type": "choice",
        "required": true,
        "repeats": false,
        "option": [ {
          "valueString": "yes - normal, warm or hot, Selected: true"
        }, {
          "valueString": "not sure, Selected: false"
        }, {
          "valueString": "no - cool OR cold, Selected: false"
        }, {
          "valueString": "not safe to touch, Selected: false"
        } ]
      } ]
    }
  }, {
    "fullUrl": "urn:uuid:6576dd0c-3979-4cac-bb9d-9b1ea6482f25",
    "resource": {
      "resourceType": "QuestionnaireResponse",
      "id": "6576dd0c-3979-4cac-bb9d-9b1ea6482f25",
      "identifier": {
        "value": "59132"
      },
      "questionnaire": {
        "reference": "urn:uuid:9b6d9349-2f62-4e0e-9fb0-d597748de626"
      },
      "status": "completed",
      "subject": {
        "reference": "urn:uuid:9b652481-2b6f-4128-bb14-b0e86d89bbde"
      },
      "context": {
        "reference": "urn:uuid:e0b44df7-4273-4657-9fb3-8fbaf1ee1ea4"
      },
      "authored": "2021-04-06T11:33:34+00:00",
      "item": [ {
        "linkId": "Tx221724",
        "text": "STRING:ShockAsked",
        "answer": [ {
          "valueString": "\"present\""
        } ]
      } ]
    }
  }, {
    "fullUrl": "urn:uuid:9b6d9349-2f62-4e0e-9fb0-d597748de626",
    "resource": {
      "resourceType": "Questionnaire",
      "id": "9b6d9349-2f62-4e0e-9fb0-d597748de626",
      "identifier": [ {
        "value": "59132"
      } ],
      "version": "2021-04-06T11:33:34.963Z",
      "status": "active",
      "experimental": false,
      "date": "2021-04-06T11:33:34+00:00",
      "publisher": "User ID: 'MCDONALDD' User name: 'Denzle McDonald' User skill set: 'T3'",
      "lastReviewDate": "2021-04-06",
      "subjectType": [ "Patient" ],
      "item": [ {
        "linkId": "59132",
        "prefix": "3300",
        "text": "STRING:ShockAsked",
        "type": "choice",
        "required": true,
        "repeats": false,
        "option": [ {
          "valueString": "\"present\", Selected: true"
        } ]
      } ]
    }
  }, {
    "fullUrl": "urn:uuid:c836d30d-270f-4bbb-95ae-1003f7d34e7e",
    "resource": {
      "resourceType": "QuestionnaireResponse",
      "id": "c836d30d-270f-4bbb-95ae-1003f7d34e7e",
      "identifier": {
        "value": "59132"
      },
      "questionnaire": {
        "reference": "urn:uuid:da69bd14-67fd-44a4-93f8-de53aff86d60"
      },
      "status": "completed",
      "subject": {
        "reference": "urn:uuid:9b652481-2b6f-4128-bb14-b0e86d89bbde"
      },
      "context": {
        "reference": "urn:uuid:e0b44df7-4273-4657-9fb3-8fbaf1ee1ea4"
      },
      "authored": "2021-04-06T11:33:34+00:00"
    }
  }, {
    "fullUrl": "urn:uuid:da69bd14-67fd-44a4-93f8-de53aff86d60",
    "resource": {
      "resourceType": "Questionnaire",
      "id": "da69bd14-67fd-44a4-93f8-de53aff86d60",
      "identifier": [ {
        "value": "59132"
      } ],
      "version": "2021-04-06T11:33:34.963Z",
      "status": "active",
      "experimental": false,
      "date": "2021-04-06T11:33:34+00:00",
      "publisher": "User ID: 'MCDONALDD' User name: 'Denzle McDonald' User skill set: 'T3'",
      "lastReviewDate": "2021-04-06",
      "subjectType": [ "Patient" ]
    }
  }, {
    "fullUrl": "urn:uuid:dfe6b6b7-dae0-4a80-8dfa-adda6f2bdc37",
    "resource": {
      "resourceType": "QuestionnaireResponse",
      "id": "dfe6b6b7-dae0-4a80-8dfa-adda6f2bdc37",
      "identifier": {
        "value": "59132"
      },
      "questionnaire": {
        "reference": "urn:uuid:d212f16d-bd1c-403c-9c5e-c272ec1689a6"
      },
      "status": "completed",
      "subject": {
        "reference": "urn:uuid:9b652481-2b6f-4128-bb14-b0e86d89bbde"
      },
      "context": {
        "reference": "urn:uuid:e0b44df7-4273-4657-9fb3-8fbaf1ee1ea4"
      },
      "authored": "2021-04-06T11:33:34+00:00",
      "item": [ {
        "linkId": "Tx223272",
        "text": "SYSTEM_VHF",
        "answer": [ {
          "valueString": "*"
        } ]
      } ]
    }
  }, {
    "fullUrl": "urn:uuid:d212f16d-bd1c-403c-9c5e-c272ec1689a6",
    "resource": {
      "resourceType": "Questionnaire",
      "id": "d212f16d-bd1c-403c-9c5e-c272ec1689a6",
      "identifier": [ {
        "value": "59132"
      } ],
      "version": "2021-04-06T11:33:34.963Z",
      "status": "active",
      "experimental": false,
      "date": "2021-04-06T11:33:34+00:00",
      "publisher": "User ID: 'MCDONALDD' User name: 'Denzle McDonald' User skill set: 'T3'",
      "lastReviewDate": "2021-04-06",
      "subjectType": [ "Patient" ],
      "item": [ {
        "linkId": "59132",
        "prefix": "0",
        "text": "SYSTEM_VHF",
        "type": "choice",
        "required": true,
        "repeats": false,
        "option": [ {
          "valueString": "==\"vhf\", Selected: false"
        }, {
          "valueString": "*, Selected: true"
        } ]
      } ]
    }
  }, {
    "fullUrl": "urn:uuid:77778490-3172-43ac-9397-87487d4200d4",
    "resource": {
      "resourceType": "QuestionnaireResponse",
      "id": "77778490-3172-43ac-9397-87487d4200d4",
      "identifier": {
        "value": "59132"
      },
      "questionnaire": {
        "reference": "urn:uuid:6a9a14c0-bf0f-4407-954e-3e6dd493d12b"
      },
      "status": "completed",
      "subject": {
        "reference": "urn:uuid:9b652481-2b6f-4128-bb14-b0e86d89bbde"
      },
      "context": {
        "reference": "urn:uuid:e0b44df7-4273-4657-9fb3-8fbaf1ee1ea4"
      },
      "authored": "2021-04-06T11:33:34+00:00",
      "item": [ {
        "linkId": "Tx222416",
        "text": "Have you actually vomited?",
        "answer": [ {
          "valueString": "no"
        } ]
      } ]
    }
  }, {
    "fullUrl": "urn:uuid:6a9a14c0-bf0f-4407-954e-3e6dd493d12b",
    "resource": {
      "resourceType": "Questionnaire",
      "id": "6a9a14c0-bf0f-4407-954e-3e6dd493d12b",
      "identifier": [ {
        "value": "59132"
      } ],
      "version": "2021-04-06T11:33:34.963Z",
      "status": "active",
      "experimental": false,
      "date": "2021-04-06T11:33:34+00:00",
      "publisher": "User ID: 'MCDONALDD' User name: 'Denzle McDonald' User skill set: 'T3'",
      "lastReviewDate": "2021-04-06",
      "subjectType": [ "Patient" ],
      "item": [ {
        "linkId": "59132",
        "prefix": "30400",
        "text": "Have you actually vomited?",
        "type": "choice",
        "required": true,
        "repeats": false,
        "option": [ {
          "valueString": "yes, Selected: false"
        }, {
          "valueString": "not sure, Selected: false"
        }, {
          "valueString": "no, Selected: true"
        } ]
      } ]
    }
  }, {
    "fullUrl": "urn:uuid:3488d9f9-6fc5-4fb6-9093-60b0aca98515",
    "resource": {
      "resourceType": "QuestionnaireResponse",
      "id": "3488d9f9-6fc5-4fb6-9093-60b0aca98515",
      "identifier": {
        "value": "59132"
      },
      "questionnaire": {
        "reference": "urn:uuid:8efbdf9f-3f83-41ad-8720-ef730be66f4f"
      },
      "status": "completed",
      "subject": {
        "reference": "urn:uuid:9b652481-2b6f-4128-bb14-b0e86d89bbde"
      },
      "context": {
        "reference": "urn:uuid:e0b44df7-4273-4657-9fb3-8fbaf1ee1ea4"
      },
      "authored": "2021-04-06T11:33:34+00:00",
      "item": [ {
        "linkId": "Tx220964",
        "text": "Have you got diarrhoea as well?",
        "answer": [ {
          "valueString": "no"
        } ]
      } ]
    }
  }, {
    "fullUrl": "urn:uuid:8efbdf9f-3f83-41ad-8720-ef730be66f4f",
    "resource": {
      "resourceType": "Questionnaire",
      "id": "8efbdf9f-3f83-41ad-8720-ef730be66f4f",
      "identifier": [ {
        "value": "59132"
      } ],
      "version": "2021-04-06T11:33:34.963Z",
      "status": "active",
      "experimental": false,
      "date": "2021-04-06T11:33:34+00:00",
      "publisher": "User ID: 'MCDONALDD' User name: 'Denzle McDonald' User skill set: 'T3'",
      "lastReviewDate": "2021-04-06",
      "subjectType": [ "Patient" ],
      "item": [ {
        "linkId": "59132",
        "prefix": "100",
        "text": "Have you got diarrhoea as well?",
        "type": "choice",
        "required": true,
        "repeats": false,
        "option": [ {
          "valueString": "yes, Selected: false"
        }, {
          "valueString": "not sure, Selected: false"
        }, {
          "valueString": "no, Selected: true"
        } ]
      } ]
    }
  }, {
    "fullUrl": "urn:uuid:b52ca5bc-3b2f-4108-aa86-5a841cacb5be",
    "resource": {
      "resourceType": "QuestionnaireResponse",
      "id": "b52ca5bc-3b2f-4108-aa86-5a841cacb5be",
      "identifier": {
        "value": "59132"
      },
      "questionnaire": {
        "reference": "urn:uuid:ab770b9a-aa32-47bf-8ae3-b3ec3f815dc4"
      },
      "status": "completed",
      "subject": {
        "reference": "urn:uuid:9b652481-2b6f-4128-bb14-b0e86d89bbde"
      },
      "context": {
        "reference": "urn:uuid:e0b44df7-4273-4657-9fb3-8fbaf1ee1ea4"
      },
      "authored": "2021-04-06T11:33:34+00:00",
      "item": [ {
        "linkId": "Tx221277",
        "text": "Vomiting",
        "answer": [ {
          "valueString": "*"
        } ]
      } ]
    }
  }, {
    "fullUrl": "urn:uuid:ab770b9a-aa32-47bf-8ae3-b3ec3f815dc4",
    "resource": {
      "resourceType": "Questionnaire",
      "id": "ab770b9a-aa32-47bf-8ae3-b3ec3f815dc4",
      "identifier": [ {
        "value": "59132"
      } ],
      "version": "2021-04-06T11:33:34.963Z",
      "status": "active",
      "experimental": false,
      "date": "2021-04-06T11:33:34+00:00",
      "publisher": "User ID: 'MCDONALDD' User name: 'Denzle McDonald' User skill set: 'T3'",
      "lastReviewDate": "2021-04-06",
      "subjectType": [ "Patient" ],
      "item": [ {
        "linkId": "59132",
        "prefix": "400",
        "text": "Vomiting",
        "type": "choice",
        "required": true,
        "repeats": false,
        "option": [ {
          "valueString": "==\"present\", Selected: false"
        }, {
          "valueString": "*, Selected: true"
        } ]
      } ]
    }
  }, {
    "fullUrl": "urn:uuid:c9a85889-9f0f-4398-8ffc-1e1f5f770cc7",
    "resource": {
      "resourceType": "QuestionnaireResponse",
      "id": "c9a85889-9f0f-4398-8ffc-1e1f5f770cc7",
      "identifier": {
        "value": "59132"
      },
      "questionnaire": {
        "reference": "urn:uuid:a2ce1629-a950-4c75-916d-b3b978ee7834"
      },
      "status": "completed",
      "subject": {
        "reference": "urn:uuid:9b652481-2b6f-4128-bb14-b0e86d89bbde"
      },
      "context": {
        "reference": "urn:uuid:e0b44df7-4273-4657-9fb3-8fbaf1ee1ea4"
      },
      "authored": "2021-04-06T11:33:34+00:00",
      "item": [ {
        "linkId": "Tx221183",
        "text": "Did the symptoms come on after drinking alcohol?",
        "answer": [ {
          "valueString": "no"
        } ]
      } ]
    }
  }, {
    "fullUrl": "urn:uuid:a2ce1629-a950-4c75-916d-b3b978ee7834",
    "resource": {
      "resourceType": "Questionnaire",
      "id": "a2ce1629-a950-4c75-916d-b3b978ee7834",
      "identifier": [ {
        "value": "59132"
      } ],
      "version": "2021-04-06T11:33:34.963Z",
      "status": "active",
      "experimental": false,
      "date": "2021-04-06T11:33:34+00:00",
      "publisher": "User ID: 'MCDONALDD' User name: 'Denzle McDonald' User skill set: 'T3'",
      "lastReviewDate": "2021-04-06",
      "subjectType": [ "Patient" ],
      "item": [ {
        "linkId": "59132",
        "prefix": "300",
        "text": "Did the symptoms come on after drinking alcohol?",
        "type": "choice",
        "required": true,
        "repeats": false,
        "option": [ {
          "valueString": "yes, Selected: false"
        }, {
          "valueString": "not sure, Selected: false"
        }, {
          "valueString": "no, Selected: true"
        } ]
      } ]
    }
  }, {
    "fullUrl": "urn:uuid:0c7f1ce9-53a2-46f6-aa43-3cc85dd25201",
    "resource": {
      "resourceType": "QuestionnaireResponse",
      "id": "0c7f1ce9-53a2-46f6-aa43-3cc85dd25201",
      "identifier": {
        "value": "59132"
      },
      "questionnaire": {
        "reference": "urn:uuid:cb516d9e-7577-405a-8072-92aa04ab5652"
      },
      "status": "completed",
      "subject": {
        "reference": "urn:uuid:9b652481-2b6f-4128-bb14-b0e86d89bbde"
      },
      "context": {
        "reference": "urn:uuid:e0b44df7-4273-4657-9fb3-8fbaf1ee1ea4"
      },
      "authored": "2021-04-06T11:33:34+00:00",
      "item": [ {
        "linkId": "Tx221277",
        "text": "Vomiting",
        "answer": [ {
          "valueString": "*"
        } ]
      } ]
    }
  }, {
    "fullUrl": "urn:uuid:cb516d9e-7577-405a-8072-92aa04ab5652",
    "resource": {
      "resourceType": "Questionnaire",
      "id": "cb516d9e-7577-405a-8072-92aa04ab5652",
      "identifier": [ {
        "value": "59132"
      } ],
      "version": "2021-04-06T11:33:34.963Z",
      "status": "active",
      "experimental": false,
      "date": "2021-04-06T11:33:34+00:00",
      "publisher": "User ID: 'MCDONALDD' User name: 'Denzle McDonald' User skill set: 'T3'",
      "lastReviewDate": "2021-04-06",
      "subjectType": [ "Patient" ],
      "item": [ {
        "linkId": "59132",
        "prefix": "1000",
        "text": "Vomiting",
        "type": "choice",
        "required": true,
        "repeats": false,
        "option": [ {
          "valueString": "==\"present\", Selected: false"
        }, {
          "valueString": "*, Selected: true"
        } ]
      } ]
    }
  }, {
    "fullUrl": "urn:uuid:4de83fd0-d4fe-4250-ad59-a9d8cf2145d4",
    "resource": {
      "resourceType": "QuestionnaireResponse",
      "id": "4de83fd0-d4fe-4250-ad59-a9d8cf2145d4",
      "identifier": {
        "value": "59132"
      },
      "questionnaire": {
        "reference": "urn:uuid:6cc635bf-1f70-48cb-b6ac-0b98f17009e6"
      },
      "status": "completed",
      "subject": {
        "reference": "urn:uuid:9b652481-2b6f-4128-bb14-b0e86d89bbde"
      },
      "context": {
        "reference": "urn:uuid:e0b44df7-4273-4657-9fb3-8fbaf1ee1ea4"
      },
      "authored": "2021-04-06T11:33:34+00:00",
      "item": [ {
        "linkId": "Tx220825",
        "text": "Have you also got any pain in the abdomen?",
        "answer": [ {
          "valueString": "yes"
        } ]
      } ]
    }
  }, {
    "fullUrl": "urn:uuid:6cc635bf-1f70-48cb-b6ac-0b98f17009e6",
    "resource": {
      "resourceType": "Questionnaire",
      "id": "6cc635bf-1f70-48cb-b6ac-0b98f17009e6",
      "identifier": [ {
        "value": "59132"
      } ],
      "version": "2021-04-06T11:33:34.963Z",
      "status": "active",
      "experimental": false,
      "date": "2021-04-06T11:33:34+00:00",
      "publisher": "User ID: 'MCDONALDD' User name: 'Denzle McDonald' User skill set: 'T3'",
      "lastReviewDate": "2021-04-06",
      "subjectType": [ "Patient" ],
      "item": [ {
        "linkId": "59132",
        "prefix": "1500",
        "text": "Have you also got any pain in the abdomen?",
        "type": "choice",
        "required": true,
        "repeats": false,
        "option": [ {
          "valueString": "yes, Selected: true"
        }, {
          "valueString": "not sure, Selected: false"
        }, {
          "valueString": "no, Selected: false"
        } ]
      } ]
    }
  }, {
    "fullUrl": "urn:uuid:37c7b40b-c3aa-4d41-b44d-d0081bff2368",
    "resource": {
      "resourceType": "QuestionnaireResponse",
      "id": "37c7b40b-c3aa-4d41-b44d-d0081bff2368",
      "identifier": {
        "value": "59132"
      },
      "questionnaire": {
        "reference": "urn:uuid:5a56c635-6e2e-42ae-bca7-05b306175ae1"
      },
      "status": "completed",
      "subject": {
        "reference": "urn:uuid:9b652481-2b6f-4128-bb14-b0e86d89bbde"
      },
      "context": {
        "reference": "urn:uuid:e0b44df7-4273-4657-9fb3-8fbaf1ee1ea4"
      },
      "authored": "2021-04-06T11:33:34+00:00",
      "item": [ {
        "linkId": "Tx224927",
        "text": "STRING:VomitingAnd/OrNauseaWithAbdominalPainPW",
        "answer": [ {
          "valueString": "\"present\""
        } ]
      } ]
    }
  }, {
    "fullUrl": "urn:uuid:5a56c635-6e2e-42ae-bca7-05b306175ae1",
    "resource": {
      "resourceType": "Questionnaire",
      "id": "5a56c635-6e2e-42ae-bca7-05b306175ae1",
      "identifier": [ {
        "value": "59132"
      } ],
      "version": "2021-04-06T11:33:34.963Z",
      "status": "active",
      "experimental": false,
      "date": "2021-04-06T11:33:34+00:00",
      "publisher": "User ID: 'MCDONALDD' User name: 'Denzle McDonald' User skill set: 'T3'",
      "lastReviewDate": "2021-04-06",
      "subjectType": [ "Patient" ],
      "item": [ {
        "linkId": "59132",
        "prefix": "64600",
        "text": "STRING:VomitingAnd/OrNauseaWithAbdominalPainPW",
        "type": "choice",
        "required": true,
        "repeats": false,
        "option": [ {
          "valueString": "\"present\", Selected: true"
        } ]
      } ]
    }
  }, {
    "fullUrl": "urn:uuid:b46a4a54-6716-4f6f-a2e9-24d28e183d4b",
    "resource": {
      "resourceType": "QuestionnaireResponse",
      "id": "b46a4a54-6716-4f6f-a2e9-24d28e183d4b",
      "identifier": {
        "value": "59132"
      },
      "questionnaire": {
        "reference": "urn:uuid:d3319697-a041-42c1-8ae5-3a40afd5bf56"
      },
      "status": "completed",
      "subject": {
        "reference": "urn:uuid:9b652481-2b6f-4128-bb14-b0e86d89bbde"
      },
      "context": {
        "reference": "urn:uuid:e0b44df7-4273-4657-9fb3-8fbaf1ee1ea4"
      },
      "authored": "2021-04-06T11:33:34+00:00",
      "item": [ {
        "linkId": "Tx224907",
        "text": "STRING:GITSymptomWithAbdominalPain",
        "answer": [ {
          "valueString": "\"present\""
        } ]
      } ]
    }
  }, {
    "fullUrl": "urn:uuid:d3319697-a041-42c1-8ae5-3a40afd5bf56",
    "resource": {
      "resourceType": "Questionnaire",
      "id": "d3319697-a041-42c1-8ae5-3a40afd5bf56",
      "identifier": [ {
        "value": "59132"
      } ],
      "version": "2021-04-06T11:33:34.963Z",
      "status": "active",
      "experimental": false,
      "date": "2021-04-06T11:33:34+00:00",
      "publisher": "User ID: 'MCDONALDD' User name: 'Denzle McDonald' User skill set: 'T3'",
      "lastReviewDate": "2021-04-06",
      "subjectType": [ "Patient" ],
      "item": [ {
        "linkId": "59132",
        "prefix": "64700",
        "text": "STRING:GITSymptomWithAbdominalPain",
        "type": "choice",
        "required": true,
        "repeats": false,
        "option": [ {
          "valueString": "\"present\", Selected: true"
        } ]
      } ]
    }
  }, {
    "fullUrl": "urn:uuid:4ce57052-3d79-47e6-843a-b8efc92f2d55",
    "resource": {
      "resourceType": "QuestionnaireResponse",
      "id": "4ce57052-3d79-47e6-843a-b8efc92f2d55",
      "identifier": {
        "value": "59132"
      },
      "questionnaire": {
        "reference": "urn:uuid:2c11fc92-27c3-4b6c-ba7c-c6b20f25b1a1"
      },
      "status": "completed",
      "subject": {
        "reference": "urn:uuid:9b652481-2b6f-4128-bb14-b0e86d89bbde"
      },
      "context": {
        "reference": "urn:uuid:e0b44df7-4273-4657-9fb3-8fbaf1ee1ea4"
      },
      "authored": "2021-04-06T11:33:34+00:00"
    }
  }, {
    "fullUrl": "urn:uuid:2c11fc92-27c3-4b6c-ba7c-c6b20f25b1a1",
    "resource": {
      "resourceType": "Questionnaire",
      "id": "2c11fc92-27c3-4b6c-ba7c-c6b20f25b1a1",
      "identifier": [ {
        "value": "59132"
      } ],
      "version": "2021-04-06T11:33:34.963Z",
      "status": "active",
      "experimental": false,
      "date": "2021-04-06T11:33:34+00:00",
      "publisher": "User ID: 'MCDONALDD' User name: 'Denzle McDonald' User skill set: 'T3'",
      "lastReviewDate": "2021-04-06",
      "subjectType": [ "Patient" ]
    }
  }, {
    "fullUrl": "urn:uuid:076c1a00-f0b1-4218-ae8e-ae43a1bf4a59",
    "resource": {
      "resourceType": "QuestionnaireResponse",
      "id": "076c1a00-f0b1-4218-ae8e-ae43a1bf4a59",
      "identifier": {
        "value": "59132"
      },
      "questionnaire": {
        "reference": "urn:uuid:a09fa45b-c29a-4ac6-82e3-38943399fec9"
      },
      "status": "completed",
      "subject": {
        "reference": "urn:uuid:9b652481-2b6f-4128-bb14-b0e86d89bbde"
      },
      "context": {
        "reference": "urn:uuid:e0b44df7-4273-4657-9fb3-8fbaf1ee1ea4"
      },
      "authored": "2021-04-06T11:33:34+00:00",
      "item": [ {
        "linkId": "Tx221039",
        "text": "PATIENT_AGEGROUP",
        "answer": [ {
          "valueString": "==\"CHILD\""
        } ]
      } ]
    }
  }, {
    "fullUrl": "urn:uuid:a09fa45b-c29a-4ac6-82e3-38943399fec9",
    "resource": {
      "resourceType": "Questionnaire",
      "id": "a09fa45b-c29a-4ac6-82e3-38943399fec9",
      "identifier": [ {
        "value": "59132"
      } ],
      "version": "2021-04-06T11:33:34.963Z",
      "status": "active",
      "experimental": false,
      "date": "2021-04-06T11:33:34+00:00",
      "publisher": "User ID: 'MCDONALDD' User name: 'Denzle McDonald' User skill set: 'T3'",
      "lastReviewDate": "2021-04-06",
      "subjectType": [ "Patient" ],
      "item": [ {
        "linkId": "59132",
        "prefix": "0",
        "text": "PATIENT_AGEGROUP",
        "type": "choice",
        "required": true,
        "repeats": false,
        "option": [ {
          "valueString": "==\"ADULT\", Selected: false"
        }, {
          "valueString": "==\"CHILD\", Selected: true"
        }, {
          "valueString": "==\"TODDLER\", Selected: false"
        }, {
          "valueString": "==\"INFANT\", Selected: false"
        }, {
          "valueString": "==\"NEONATE\", Selected: false"
        }, {
          "valueString": "*, Selected: false"
        } ]
      } ]
    }
  }, {
    "fullUrl": "urn:uuid:74e73559-a45e-4410-ad98-e301fa71761b",
    "resource": {
      "resourceType": "QuestionnaireResponse",
      "id": "74e73559-a45e-4410-ad98-e301fa71761b",
      "identifier": {
        "value": "59132"
      },
      "questionnaire": {
        "reference": "urn:uuid:265f7d9f-fda8-41e7-8e31-b2e0b9141f20"
      },
      "status": "completed",
      "subject": {
        "reference": "urn:uuid:9b652481-2b6f-4128-bb14-b0e86d89bbde"
      },
      "context": {
        "reference": "urn:uuid:e0b44df7-4273-4657-9fb3-8fbaf1ee1ea4"
      },
      "authored": "2021-04-06T11:33:34+00:00",
      "item": [ {
        "linkId": "Tx224919",
        "text": "PATIENT_AGE",
        "answer": [ {
          "valueString": "<11"
        } ]
      } ]
    }
  }, {
    "fullUrl": "urn:uuid:265f7d9f-fda8-41e7-8e31-b2e0b9141f20",
    "resource": {
      "resourceType": "Questionnaire",
      "id": "265f7d9f-fda8-41e7-8e31-b2e0b9141f20",
      "identifier": [ {
        "value": "59132"
      } ],
      "version": "2021-04-06T11:33:34.963Z",
      "status": "active",
      "experimental": false,
      "date": "2021-04-06T11:33:34+00:00",
      "publisher": "User ID: 'MCDONALDD' User name: 'Denzle McDonald' User skill set: 'T3'",
      "lastReviewDate": "2021-04-06",
      "subjectType": [ "Patient" ],
      "item": [ {
        "linkId": "59132",
        "prefix": "15300",
        "text": "PATIENT_AGE",
        "type": "choice",
        "required": true,
        "repeats": false,
        "option": [ {
          "valueString": "<11, Selected: true"
        }, {
          "valueString": "<13, Selected: false"
        }, {
          "valueString": ">=13, Selected: false"
        }, {
          "valueString": "*, Selected: false"
        } ]
      } ]
    }
  }, {
    "fullUrl": "urn:uuid:c1482587-66c2-41cc-b14d-bef8518c1e20",
    "resource": {
      "resourceType": "QuestionnaireResponse",
      "id": "c1482587-66c2-41cc-b14d-bef8518c1e20",
      "identifier": {
        "value": "59132"
      },
      "questionnaire": {
        "reference": "urn:uuid:06635846-a212-49a8-93fb-2911ff96b5f9"
      },
      "status": "completed",
      "subject": {
        "reference": "urn:uuid:9b652481-2b6f-4128-bb14-b0e86d89bbde"
      },
      "context": {
        "reference": "urn:uuid:e0b44df7-4273-4657-9fb3-8fbaf1ee1ea4"
      },
      "authored": "2021-04-06T11:33:34+00:00",
      "item": [ {
        "linkId": "Tx224498",
        "text": "STRING:Under11",
        "answer": [ {
          "valueString": "\"present\""
        } ]
      } ]
    }
  }, {
    "fullUrl": "urn:uuid:06635846-a212-49a8-93fb-2911ff96b5f9",
    "resource": {
      "resourceType": "Questionnaire",
      "id": "06635846-a212-49a8-93fb-2911ff96b5f9",
      "identifier": [ {
        "value": "59132"
      } ],
      "version": "2021-04-06T11:33:34.963Z",
      "status": "active",
      "experimental": false,
      "date": "2021-04-06T11:33:34+00:00",
      "publisher": "User ID: 'MCDONALDD' User name: 'Denzle McDonald' User skill set: 'T3'",
      "lastReviewDate": "2021-04-06",
      "subjectType": [ "Patient" ],
      "item": [ {
        "linkId": "59132",
        "prefix": "14800",
        "text": "STRING:Under11",
        "type": "choice",
        "required": true,
        "repeats": false,
        "option": [ {
          "valueString": "\"present\", Selected: true"
        } ]
      } ]
    }
  }, {
    "fullUrl": "urn:uuid:c3928130-afe6-43e8-8d42-74a95f486660",
    "resource": {
      "resourceType": "QuestionnaireResponse",
      "id": "c3928130-afe6-43e8-8d42-74a95f486660",
      "identifier": {
        "value": "59132"
      },
      "questionnaire": {
        "reference": "urn:uuid:ee5c6cda-77bd-4da0-89c0-5a58bb1bc6af"
      },
      "status": "completed",
      "subject": {
        "reference": "urn:uuid:9b652481-2b6f-4128-bb14-b0e86d89bbde"
      },
      "context": {
        "reference": "urn:uuid:e0b44df7-4273-4657-9fb3-8fbaf1ee1ea4"
      },
      "authored": "2021-04-06T11:33:34+00:00",
      "item": [ {
        "linkId": "Tx224906",
        "text": "AbdominalPainPW",
        "answer": [ {
          "valueString": "*"
        } ]
      } ]
    }
  }, {
    "fullUrl": "urn:uuid:ee5c6cda-77bd-4da0-89c0-5a58bb1bc6af",
    "resource": {
      "resourceType": "Questionnaire",
      "id": "ee5c6cda-77bd-4da0-89c0-5a58bb1bc6af",
      "identifier": [ {
        "value": "59132"
      } ],
      "version": "2021-04-06T11:33:34.963Z",
      "status": "active",
      "experimental": false,
      "date": "2021-04-06T11:33:34+00:00",
      "publisher": "User ID: 'MCDONALDD' User name: 'Denzle McDonald' User skill set: 'T3'",
      "lastReviewDate": "2021-04-06",
      "subjectType": [ "Patient" ],
      "item": [ {
        "linkId": "59132",
        "prefix": "15600",
        "text": "AbdominalPainPW",
        "type": "choice",
        "required": true,
        "repeats": false,
        "option": [ {
          "valueString": "==\"present\", Selected: false"
        }, {
          "valueString": "*, Selected: true"
        } ]
      } ]
    }
  }, {
    "fullUrl": "urn:uuid:2a709291-cc40-41fb-a3ef-e6ac2aa6f5eb",
    "resource": {
      "resourceType": "QuestionnaireResponse",
      "id": "2a709291-cc40-41fb-a3ef-e6ac2aa6f5eb",
      "identifier": {
        "value": "59132"
      },
      "questionnaire": {
        "reference": "urn:uuid:0811a079-699b-48d9-bd37-503e67eb1321"
      },
      "status": "completed",
      "subject": {
        "reference": "urn:uuid:9b652481-2b6f-4128-bb14-b0e86d89bbde"
      },
      "context": {
        "reference": "urn:uuid:e0b44df7-4273-4657-9fb3-8fbaf1ee1ea4"
      },
      "authored": "2021-04-06T11:33:34+00:00",
      "item": [ {
        "linkId": "Tx225151",
        "text": "RectalBleedingwithAbdominalPainPW",
        "answer": [ {
          "valueString": "*"
        } ]
      } ]
    }
  }, {
    "fullUrl": "urn:uuid:0811a079-699b-48d9-bd37-503e67eb1321",
    "resource": {
      "resourceType": "Questionnaire",
      "id": "0811a079-699b-48d9-bd37-503e67eb1321",
      "identifier": [ {
        "value": "59132"
      } ],
      "version": "2021-04-06T11:33:34.963Z",
      "status": "active",
      "experimental": false,
      "date": "2021-04-06T11:33:34+00:00",
      "publisher": "User ID: 'MCDONALDD' User name: 'Denzle McDonald' User skill set: 'T3'",
      "lastReviewDate": "2021-04-06",
      "subjectType": [ "Patient" ],
      "item": [ {
        "linkId": "59132",
        "prefix": "21300",
        "text": "RectalBleedingwithAbdominalPainPW",
        "type": "choice",
        "required": true,
        "repeats": false,
        "option": [ {
          "valueString": "==\"present\", Selected: false"
        }, {
          "valueString": "*, Selected: true"
        } ]
      } ]
    }
  }, {
    "fullUrl": "urn:uuid:c7ba7999-4569-43c1-9fe8-6e6328dd51c4",
    "resource": {
      "resourceType": "QuestionnaireResponse",
      "id": "c7ba7999-4569-43c1-9fe8-6e6328dd51c4",
      "identifier": {
        "value": "59132"
      },
      "questionnaire": {
        "reference": "urn:uuid:e009de1c-edbe-4647-a09f-3c656e209235"
      },
      "status": "completed",
      "subject": {
        "reference": "urn:uuid:9b652481-2b6f-4128-bb14-b0e86d89bbde"
      },
      "context": {
        "reference": "urn:uuid:e0b44df7-4273-4657-9fb3-8fbaf1ee1ea4"
      },
      "authored": "2021-04-06T11:33:34+00:00",
      "item": [ {
        "linkId": "Tx224908",
        "text": "GITSymptomWithAbdominalPain",
        "answer": [ {
          "valueString": "==\"present\""
        } ]
      } ]
    }
  }, {
    "fullUrl": "urn:uuid:e009de1c-edbe-4647-a09f-3c656e209235",
    "resource": {
      "resourceType": "Questionnaire",
      "id": "e009de1c-edbe-4647-a09f-3c656e209235",
      "identifier": [ {
        "value": "59132"
      } ],
      "version": "2021-04-06T11:33:34.963Z",
      "status": "active",
      "experimental": false,
      "date": "2021-04-06T11:33:34+00:00",
      "publisher": "User ID: 'MCDONALDD' User name: 'Denzle McDonald' User skill set: 'T3'",
      "lastReviewDate": "2021-04-06",
      "subjectType": [ "Patient" ],
      "item": [ {
        "linkId": "59132",
        "prefix": "15700",
        "text": "GITSymptomWithAbdominalPain",
        "type": "choice",
        "required": true,
        "repeats": false,
        "option": [ {
          "valueString": "==\"present\", Selected: true"
        }, {
          "valueString": "*, Selected: false"
        } ]
      } ]
    }
  }, {
    "fullUrl": "urn:uuid:48d4389b-6080-4e04-a2be-2c557c8d51bf",
    "resource": {
      "resourceType": "QuestionnaireResponse",
      "id": "48d4389b-6080-4e04-a2be-2c557c8d51bf",
      "identifier": {
        "value": "59132"
      },
      "questionnaire": {
        "reference": "urn:uuid:37bb2f66-8c1b-4325-860d-a7ea2a45c4e6"
      },
      "status": "completed",
      "subject": {
        "reference": "urn:uuid:9b652481-2b6f-4128-bb14-b0e86d89bbde"
      },
      "context": {
        "reference": "urn:uuid:e0b44df7-4273-4657-9fb3-8fbaf1ee1ea4"
      },
      "authored": "2021-04-06T11:33:34+00:00"
    }
  }, {
    "fullUrl": "urn:uuid:37bb2f66-8c1b-4325-860d-a7ea2a45c4e6",
    "resource": {
      "resourceType": "Questionnaire",
      "id": "37bb2f66-8c1b-4325-860d-a7ea2a45c4e6",
      "identifier": [ {
        "value": "59132"
      } ],
      "version": "2021-04-06T11:33:34.963Z",
      "status": "active",
      "experimental": false,
      "date": "2021-04-06T11:33:34+00:00",
      "publisher": "User ID: 'MCDONALDD' User name: 'Denzle McDonald' User skill set: 'T3'",
      "lastReviewDate": "2021-04-06",
      "subjectType": [ "Patient" ]
    }
  }, {
    "fullUrl": "urn:uuid:e4265e39-182d-4eef-8689-df8d919ea48b",
    "resource": {
      "resourceType": "QuestionnaireResponse",
      "id": "e4265e39-182d-4eef-8689-df8d919ea48b",
      "identifier": {
        "value": "59132"
      },
      "questionnaire": {
        "reference": "urn:uuid:6c303b02-2b69-4b6b-a7a8-a1fc50ae32d1"
      },
      "status": "completed",
      "subject": {
        "reference": "urn:uuid:9b652481-2b6f-4128-bb14-b0e86d89bbde"
      },
      "context": {
        "reference": "urn:uuid:e0b44df7-4273-4657-9fb3-8fbaf1ee1ea4"
      },
      "authored": "2021-04-06T11:33:34+00:00",
      "item": [ {
        "linkId": "Tx221039",
        "text": "PATIENT_AGEGROUP",
        "answer": [ {
          "valueString": "==\"CHILD\""
        } ]
      } ]
    }
  }, {
    "fullUrl": "urn:uuid:6c303b02-2b69-4b6b-a7a8-a1fc50ae32d1",
    "resource": {
      "resourceType": "Questionnaire",
      "id": "6c303b02-2b69-4b6b-a7a8-a1fc50ae32d1",
      "identifier": [ {
        "value": "59132"
      } ],
      "version": "2021-04-06T11:33:34.963Z",
      "status": "active",
      "experimental": false,
      "date": "2021-04-06T11:33:34+00:00",
      "publisher": "User ID: 'MCDONALDD' User name: 'Denzle McDonald' User skill set: 'T3'",
      "lastReviewDate": "2021-04-06",
      "subjectType": [ "Patient" ],
      "item": [ {
        "linkId": "59132",
        "prefix": "0",
        "text": "PATIENT_AGEGROUP",
        "type": "choice",
        "required": true,
        "repeats": false,
        "option": [ {
          "valueString": "==\"ADULT\", Selected: false"
        }, {
          "valueString": "==\"CHILD\", Selected: true"
        }, {
          "valueString": "==\"TODDLER\", Selected: false"
        }, {
          "valueString": "==\"INFANT\", Selected: false"
        }, {
          "valueString": "==\"NEONATE\", Selected: false"
        }, {
          "valueString": "*, Selected: false"
        } ]
      } ]
    }
  }, {
    "fullUrl": "urn:uuid:6df8efd3-e264-4bfb-8e21-efe2708682d5",
    "resource": {
      "resourceType": "QuestionnaireResponse",
      "id": "6df8efd3-e264-4bfb-8e21-efe2708682d5",
      "identifier": {
        "value": "59132"
      },
      "questionnaire": {
        "reference": "urn:uuid:6d183423-fe64-4d78-9842-bfa6adc60d04"
      },
      "status": "completed",
      "subject": {
        "reference": "urn:uuid:9b652481-2b6f-4128-bb14-b0e86d89bbde"
      },
      "context": {
        "reference": "urn:uuid:e0b44df7-4273-4657-9fb3-8fbaf1ee1ea4"
      },
      "authored": "2021-04-06T11:33:34+00:00",
      "item": [ {
        "linkId": "Tx220156",
        "text": "How bad is the pain?",
        "answer": [ {
          "valueString": "bad enough to interfere with normal activity"
        } ]
      } ]
    }
  }, {
    "fullUrl": "urn:uuid:6d183423-fe64-4d78-9842-bfa6adc60d04",
    "resource": {
      "resourceType": "Questionnaire",
      "id": "6d183423-fe64-4d78-9842-bfa6adc60d04",
      "identifier": [ {
        "value": "59132"
      } ],
      "version": "2021-04-06T11:33:34.963Z",
      "status": "active",
      "experimental": false,
      "date": "2021-04-06T11:33:34+00:00",
      "publisher": "User ID: 'MCDONALDD' User name: 'Denzle McDonald' User skill set: 'T3'",
      "lastReviewDate": "2021-04-06",
      "subjectType": [ "Patient" ],
      "item": [ {
        "linkId": "59132",
        "prefix": "6500",
        "text": "How bad is the pain?",
        "type": "choice",
        "required": true,
        "repeats": false,
        "option": [ {
          "valueString": "so bad that doing anything is impossible, Selected: false"
        }, {
          "valueString": "bad enough to interfere with normal activity, Selected: true"
        }, {
          "valueString": "neither of the above, Selected: false"
        } ]
      } ]
    }
  }, {
    "fullUrl": "urn:uuid:8998bc60-b6af-475a-aa87-99ac61a87653",
    "resource": {
      "resourceType": "QuestionnaireResponse",
      "id": "8998bc60-b6af-475a-aa87-99ac61a87653",
      "identifier": {
        "value": "59132"
      },
      "questionnaire": {
        "reference": "urn:uuid:ef4f008f-9827-4ff5-be70-0edea665a112"
      },
      "status": "completed",
      "subject": {
        "reference": "urn:uuid:9b652481-2b6f-4128-bb14-b0e86d89bbde"
      },
      "context": {
        "reference": "urn:uuid:e0b44df7-4273-4657-9fb3-8fbaf1ee1ea4"
      },
      "authored": "2021-04-06T11:33:34+00:00",
      "item": [ {
        "linkId": "Tx224664",
        "text": "STRING:ModeratePain",
        "answer": [ {
          "valueString": "\"present\""
        } ]
      } ]
    }
  }, {
    "fullUrl": "urn:uuid:ef4f008f-9827-4ff5-be70-0edea665a112",
    "resource": {
      "resourceType": "Questionnaire",
      "id": "ef4f008f-9827-4ff5-be70-0edea665a112",
      "identifier": [ {
        "value": "59132"
      } ],
      "version": "2021-04-06T11:33:34.963Z",
      "status": "active",
      "experimental": false,
      "date": "2021-04-06T11:33:34+00:00",
      "publisher": "User ID: 'MCDONALDD' User name: 'Denzle McDonald' User skill set: 'T3'",
      "lastReviewDate": "2021-04-06",
      "subjectType": [ "Patient" ],
      "item": [ {
        "linkId": "59132",
        "prefix": "6600",
        "text": "STRING:ModeratePain",
        "type": "choice",
        "required": true,
        "repeats": false,
        "option": [ {
          "valueString": "\"present\", Selected: true"
        } ]
      } ]
    }
  }, {
    "fullUrl": "urn:uuid:33424d15-6cc6-4b23-8403-92afdf9bd160",
    "resource": {
      "resourceType": "QuestionnaireResponse",
      "id": "33424d15-6cc6-4b23-8403-92afdf9bd160",
      "identifier": {
        "value": "59132"
      },
      "questionnaire": {
        "reference": "urn:uuid:c3738a4d-db48-49cb-ad82-aad25a534c91"
      },
      "status": "completed",
      "subject": {
        "reference": "urn:uuid:9b652481-2b6f-4128-bb14-b0e86d89bbde"
      },
      "context": {
        "reference": "urn:uuid:e0b44df7-4273-4657-9fb3-8fbaf1ee1ea4"
      },
      "authored": "2021-04-06T11:33:34+00:00",
      "item": [ {
        "linkId": "Tx170003",
        "text": "PATIENT_PARTY",
        "answer": [ {
          "valueString": "==1"
        } ]
      } ]
    }
  }, {
    "fullUrl": "urn:uuid:c3738a4d-db48-49cb-ad82-aad25a534c91",
    "resource": {
      "resourceType": "Questionnaire",
      "id": "c3738a4d-db48-49cb-ad82-aad25a534c91",
      "identifier": [ {
        "value": "59132"
      } ],
      "version": "2021-04-06T11:33:34.963Z",
      "status": "active",
      "experimental": false,
      "date": "2021-04-06T11:33:34+00:00",
      "publisher": "User ID: 'MCDONALDD' User name: 'Denzle McDonald' User skill set: 'T3'",
      "lastReviewDate": "2021-04-06",
      "subjectType": [ "Patient" ],
      "item": [ {
        "linkId": "59132",
        "prefix": "6800",
        "text": "PATIENT_PARTY",
        "type": "choice",
        "required": true,
        "repeats": false,
        "option": [ {
          "valueString": "==1, Selected: true"
        }, {
          "valueString": "==3, Selected: false"
        }, {
          "valueString": "*, Selected: false"
        } ]
      } ]
    }
  }, {
    "fullUrl": "urn:uuid:f9d9d59a-a489-40bf-a1ef-aecc08a27100",
    "resource": {
      "resourceType": "QuestionnaireResponse",
      "id": "f9d9d59a-a489-40bf-a1ef-aecc08a27100",
      "identifier": {
        "value": "59132"
      },
      "questionnaire": {
        "reference": "urn:uuid:97532097-0b37-45b4-b384-d8cba85116e3"
      },
      "status": "completed",
      "subject": {
        "reference": "urn:uuid:9b652481-2b6f-4128-bb14-b0e86d89bbde"
      },
      "context": {
        "reference": "urn:uuid:e0b44df7-4273-4657-9fb3-8fbaf1ee1ea4"
      },
      "authored": "2021-04-06T11:33:34+00:00",
      "item": [ {
        "linkId": "Tx224190",
        "text": "Are you so ill that you have stopped doing ALL of your usual activities?",
        "answer": [ {
          "valueString": "no - well enough to do MOST or all activities"
        } ]
      } ]
    }
  }, {
    "fullUrl": "urn:uuid:97532097-0b37-45b4-b384-d8cba85116e3",
    "resource": {
      "resourceType": "Questionnaire",
      "id": "97532097-0b37-45b4-b384-d8cba85116e3",
      "identifier": [ {
        "value": "59132"
      } ],
      "version": "2021-04-06T11:33:34.963Z",
      "status": "active",
      "experimental": false,
      "date": "2021-04-06T11:33:34+00:00",
      "publisher": "User ID: 'MCDONALDD' User name: 'Denzle McDonald' User skill set: 'T3'",
      "lastReviewDate": "2021-04-06",
      "subjectType": [ "Patient" ],
      "item": [ {
        "linkId": "59132",
        "prefix": "6900",
        "text": "Are you so ill that you have stopped doing ALL of your usual activities?",
        "type": "choice",
        "required": true,
        "repeats": false,
        "option": [ {
          "valueString": "yes - so ill they have stopped doing ALL normal activities, Selected: false"
        }, {
          "valueString": "no - unwell but able to do SOME normal activities, Selected: false"
        }, {
          "valueString": "no - well enough to do MOST or all activities, Selected: true"
        } ]
      } ]
    }
  }, {
    "fullUrl": "urn:uuid:c995af6d-3c59-4466-aa8d-890d8b8b1f72",
    "resource": {
      "resourceType": "QuestionnaireResponse",
      "id": "c995af6d-3c59-4466-aa8d-890d8b8b1f72",
      "identifier": {
        "value": "59132"
      },
      "questionnaire": {
        "reference": "urn:uuid:103c593d-01e0-4008-b2bf-a692d8dc464a"
      },
      "status": "completed",
      "subject": {
        "reference": "urn:uuid:9b652481-2b6f-4128-bb14-b0e86d89bbde"
      },
      "context": {
        "reference": "urn:uuid:e0b44df7-4273-4657-9fb3-8fbaf1ee1ea4"
      },
      "authored": "2021-04-06T11:33:34+00:00",
      "item": [ {
        "linkId": "Tx224916",
        "text": "FlankPainPW",
        "answer": [ {
          "valueString": "*"
        } ]
      } ]
    }
  }, {
    "fullUrl": "urn:uuid:103c593d-01e0-4008-b2bf-a692d8dc464a",
    "resource": {
      "resourceType": "Questionnaire",
      "id": "103c593d-01e0-4008-b2bf-a692d8dc464a",
      "identifier": [ {
        "value": "59132"
      } ],
      "version": "2021-04-06T11:33:34.963Z",
      "status": "active",
      "experimental": false,
      "date": "2021-04-06T11:33:34+00:00",
      "publisher": "User ID: 'MCDONALDD' User name: 'Denzle McDonald' User skill set: 'T3'",
      "lastReviewDate": "2021-04-06",
      "subjectType": [ "Patient" ],
      "item": [ {
        "linkId": "59132",
        "prefix": "26500",
        "text": "FlankPainPW",
        "type": "choice",
        "required": true,
        "repeats": false,
        "option": [ {
          "valueString": "==\"present\", Selected: false"
        }, {
          "valueString": "*, Selected: true"
        } ]
      } ]
    }
  }, {
    "fullUrl": "urn:uuid:eaedf098-3e3d-4ece-bf80-f31ba2fb8aa8",
    "resource": {
      "resourceType": "QuestionnaireResponse",
      "id": "eaedf098-3e3d-4ece-bf80-f31ba2fb8aa8",
      "identifier": {
        "value": "59132"
      },
      "questionnaire": {
        "reference": "urn:uuid:47c57891-aa1d-444a-a437-152f79427ccd"
      },
      "status": "completed",
      "subject": {
        "reference": "urn:uuid:9b652481-2b6f-4128-bb14-b0e86d89bbde"
      },
      "context": {
        "reference": "urn:uuid:e0b44df7-4273-4657-9fb3-8fbaf1ee1ea4"
      },
      "authored": "2021-04-06T11:33:34+00:00",
      "item": [ {
        "linkId": "Tx222766",
        "text": "PregnancyOver20Weeks",
        "answer": [ {
          "valueString": "*"
        } ]
      } ]
    }
  }, {
    "fullUrl": "urn:uuid:47c57891-aa1d-444a-a437-152f79427ccd",
    "resource": {
      "resourceType": "Questionnaire",
      "id": "47c57891-aa1d-444a-a437-152f79427ccd",
      "identifier": [ {
        "value": "59132"
      } ],
      "version": "2021-04-06T11:33:34.963Z",
      "status": "active",
      "experimental": false,
      "date": "2021-04-06T11:33:34+00:00",
      "publisher": "User ID: 'MCDONALDD' User name: 'Denzle McDonald' User skill set: 'T3'",
      "lastReviewDate": "2021-04-06",
      "subjectType": [ "Patient" ],
      "item": [ {
        "linkId": "59132",
        "prefix": "16100",
        "text": "PregnancyOver20Weeks",
        "type": "choice",
        "required": true,
        "repeats": false,
        "option": [ {
          "valueString": "==\"present\", Selected: false"
        }, {
          "valueString": "*, Selected: true"
        } ]
      } ]
    }
  }, {
    "fullUrl": "urn:uuid:979f3d53-18de-4733-bdb0-40d506ef89b0",
    "resource": {
      "resourceType": "QuestionnaireResponse",
      "id": "979f3d53-18de-4733-bdb0-40d506ef89b0",
      "identifier": {
        "value": "59132"
      },
      "questionnaire": {
        "reference": "urn:uuid:d5b12918-90c1-43e5-8b4e-e27fca6e640d"
      },
      "status": "completed",
      "subject": {
        "reference": "urn:uuid:9b652481-2b6f-4128-bb14-b0e86d89bbde"
      },
      "context": {
        "reference": "urn:uuid:e0b44df7-4273-4657-9fb3-8fbaf1ee1ea4"
      },
      "authored": "2021-04-06T11:33:34+00:00",
      "item": [ {
        "linkId": "Tx225151",
        "text": "RectalBleedingwithAbdominalPainPW",
        "answer": [ {
          "valueString": "*"
        } ]
      } ]
    }
  }, {
    "fullUrl": "urn:uuid:d5b12918-90c1-43e5-8b4e-e27fca6e640d",
    "resource": {
      "resourceType": "Questionnaire",
      "id": "d5b12918-90c1-43e5-8b4e-e27fca6e640d",
      "identifier": [ {
        "value": "59132"
      } ],
      "version": "2021-04-06T11:33:34.963Z",
      "status": "active",
      "experimental": false,
      "date": "2021-04-06T11:33:34+00:00",
      "publisher": "User ID: 'MCDONALDD' User name: 'Denzle McDonald' User skill set: 'T3'",
      "lastReviewDate": "2021-04-06",
      "subjectType": [ "Patient" ],
      "item": [ {
        "linkId": "59132",
        "prefix": "26200",
        "text": "RectalBleedingwithAbdominalPainPW",
        "type": "choice",
        "required": true,
        "repeats": false,
        "option": [ {
          "valueString": "==\"present\", Selected: false"
        }, {
          "valueString": "*, Selected: true"
        } ]
      } ]
    }
  }, {
    "fullUrl": "urn:uuid:6be864c1-0d3b-44c0-a58f-f3cab3bd2435",
    "resource": {
      "resourceType": "QuestionnaireResponse",
      "id": "6be864c1-0d3b-44c0-a58f-f3cab3bd2435",
      "identifier": {
        "value": "59132"
      },
      "questionnaire": {
        "reference": "urn:uuid:a2ffccbd-c4ea-49cb-8d33-681795a0164a"
      },
      "status": "completed",
      "subject": {
        "reference": "urn:uuid:9b652481-2b6f-4128-bb14-b0e86d89bbde"
      },
      "context": {
        "reference": "urn:uuid:e0b44df7-4273-4657-9fb3-8fbaf1ee1ea4"
      },
      "authored": "2021-04-06T11:33:34+00:00",
      "item": [ {
        "linkId": "Tx221119",
        "text": "SeverelyIll",
        "answer": [ {
          "valueString": "*"
        } ]
      } ]
    }
  }, {
    "fullUrl": "urn:uuid:a2ffccbd-c4ea-49cb-8d33-681795a0164a",
    "resource": {
      "resourceType": "Questionnaire",
      "id": "a2ffccbd-c4ea-49cb-8d33-681795a0164a",
      "identifier": [ {
        "value": "59132"
      } ],
      "version": "2021-04-06T11:33:34.963Z",
      "status": "active",
      "experimental": false,
      "date": "2021-04-06T11:33:34+00:00",
      "publisher": "User ID: 'MCDONALDD' User name: 'Denzle McDonald' User skill set: 'T3'",
      "lastReviewDate": "2021-04-06",
      "subjectType": [ "Patient" ],
      "item": [ {
        "linkId": "59132",
        "prefix": "7500",
        "text": "SeverelyIll",
        "type": "choice",
        "required": true,
        "repeats": false,
        "option": [ {
          "valueString": "==\"present\", Selected: false"
        }, {
          "valueString": "*, Selected: true"
        } ]
      } ]
    }
  }, {
    "fullUrl": "urn:uuid:0c56ceac-4872-4a9a-be0c-8a8ed83a6366",
    "resource": {
      "resourceType": "QuestionnaireResponse",
      "id": "0c56ceac-4872-4a9a-be0c-8a8ed83a6366",
      "identifier": {
        "value": "59132"
      },
      "questionnaire": {
        "reference": "urn:uuid:eeee4295-19c4-4b91-a156-fe578fae73c1"
      },
      "status": "completed",
      "subject": {
        "reference": "urn:uuid:9b652481-2b6f-4128-bb14-b0e86d89bbde"
      },
      "context": {
        "reference": "urn:uuid:e0b44df7-4273-4657-9fb3-8fbaf1ee1ea4"
      },
      "authored": "2021-04-06T11:33:34+00:00",
      "item": [ {
        "linkId": "Tx224934",
        "text": "GroinPainOrSwellingPWAbdominalPainPW",
        "answer": [ {
          "valueString": "*"
        } ]
      } ]
    }
  }, {
    "fullUrl": "urn:uuid:eeee4295-19c4-4b91-a156-fe578fae73c1",
    "resource": {
      "resourceType": "Questionnaire",
      "id": "eeee4295-19c4-4b91-a156-fe578fae73c1",
      "identifier": [ {
        "value": "59132"
      } ],
      "version": "2021-04-06T11:33:34.963Z",
      "status": "active",
      "experimental": false,
      "date": "2021-04-06T11:33:34+00:00",
      "publisher": "User ID: 'MCDONALDD' User name: 'Denzle McDonald' User skill set: 'T3'",
      "lastReviewDate": "2021-04-06",
      "subjectType": [ "Patient" ],
      "item": [ {
        "linkId": "59132",
        "prefix": "23300",
        "text": "GroinPainOrSwellingPWAbdominalPainPW",
        "type": "choice",
        "required": true,
        "repeats": false,
        "option": [ {
          "valueString": "==\"present\", Selected: false"
        }, {
          "valueString": "*, Selected: true"
        } ]
      } ]
    }
  }, {
    "fullUrl": "urn:uuid:13cad67a-5e79-43a4-b03b-3fddcb6352cf",
    "resource": {
      "resourceType": "QuestionnaireResponse",
      "id": "13cad67a-5e79-43a4-b03b-3fddcb6352cf",
      "identifier": {
        "value": "59132"
      },
      "questionnaire": {
        "reference": "urn:uuid:62358307-4505-4bac-ae83-c143fb5ecb26"
      },
      "status": "completed",
      "subject": {
        "reference": "urn:uuid:9b652481-2b6f-4128-bb14-b0e86d89bbde"
      },
      "context": {
        "reference": "urn:uuid:e0b44df7-4273-4657-9fb3-8fbaf1ee1ea4"
      },
      "authored": "2021-04-06T11:33:34+00:00",
      "item": [ {
        "linkId": "Tx224906",
        "text": "AbdominalPainPW",
        "answer": [ {
          "valueString": "*"
        } ]
      } ]
    }
  }, {
    "fullUrl": "urn:uuid:62358307-4505-4bac-ae83-c143fb5ecb26",
    "resource": {
      "resourceType": "Questionnaire",
      "id": "62358307-4505-4bac-ae83-c143fb5ecb26",
      "identifier": [ {
        "value": "59132"
      } ],
      "version": "2021-04-06T11:33:34.963Z",
      "status": "active",
      "experimental": false,
      "date": "2021-04-06T11:33:34+00:00",
      "publisher": "User ID: 'MCDONALDD' User name: 'Denzle McDonald' User skill set: 'T3'",
      "lastReviewDate": "2021-04-06",
      "subjectType": [ "Patient" ],
      "item": [ {
        "linkId": "59132",
        "prefix": "23400",
        "text": "AbdominalPainPW",
        "type": "choice",
        "required": true,
        "repeats": false,
        "option": [ {
          "valueString": "==\"present\", Selected: false"
        }, {
          "valueString": "*, Selected: true"
        } ]
      } ]
    }
  }, {
    "fullUrl": "urn:uuid:7a16fed7-9129-4602-bbb5-7c0b4b7b5043",
    "resource": {
      "resourceType": "QuestionnaireResponse",
      "id": "7a16fed7-9129-4602-bbb5-7c0b4b7b5043",
      "identifier": {
        "value": "59132"
      },
      "questionnaire": {
        "reference": "urn:uuid:f42ff7aa-efac-4386-8127-37600d1942b8"
      },
      "status": "completed",
      "subject": {
        "reference": "urn:uuid:9b652481-2b6f-4128-bb14-b0e86d89bbde"
      },
      "context": {
        "reference": "urn:uuid:e0b44df7-4273-4657-9fb3-8fbaf1ee1ea4"
      },
      "authored": "2021-04-06T11:33:34+00:00",
      "item": [ {
        "linkId": "Tx224928",
        "text": "VomitingAnd/OrNauseaWithAbdominalPainPW",
        "answer": [ {
          "valueString": "==\"present\""
        } ]
      } ]
    }
  }, {
    "fullUrl": "urn:uuid:f42ff7aa-efac-4386-8127-37600d1942b8",
    "resource": {
      "resourceType": "Questionnaire",
      "id": "f42ff7aa-efac-4386-8127-37600d1942b8",
      "identifier": [ {
        "value": "59132"
      } ],
      "version": "2021-04-06T11:33:34.963Z",
      "status": "active",
      "experimental": false,
      "date": "2021-04-06T11:33:34+00:00",
      "publisher": "User ID: 'MCDONALDD' User name: 'Denzle McDonald' User skill set: 'T3'",
      "lastReviewDate": "2021-04-06",
      "subjectType": [ "Patient" ],
      "item": [ {
        "linkId": "59132",
        "prefix": "23500",
        "text": "VomitingAnd/OrNauseaWithAbdominalPainPW",
        "type": "choice",
        "required": true,
        "repeats": false,
        "option": [ {
          "valueString": "==\"present\", Selected: true"
        }, {
          "valueString": "*, Selected: false"
        } ]
      } ]
    }
  }, {
    "fullUrl": "urn:uuid:72effe90-d99a-4fec-8c51-da625d374b5b",
    "resource": {
      "resourceType": "QuestionnaireResponse",
      "id": "72effe90-d99a-4fec-8c51-da625d374b5b",
      "identifier": {
        "value": "59132"
      },
      "questionnaire": {
        "reference": "urn:uuid:f3d3c018-6455-4572-9bb2-4f44836900c3"
      },
      "status": "completed",
      "subject": {
        "reference": "urn:uuid:9b652481-2b6f-4128-bb14-b0e86d89bbde"
      },
      "context": {
        "reference": "urn:uuid:e0b44df7-4273-4657-9fb3-8fbaf1ee1ea4"
      },
      "authored": "2021-04-06T11:33:34+00:00",
      "item": [ {
        "linkId": "Tx221017",
        "text": "PATIENT_GENDER",
        "answer": [ {
          "valueString": "==\"F\""
        } ]
      } ]
    }
  }, {
    "fullUrl": "urn:uuid:f3d3c018-6455-4572-9bb2-4f44836900c3",
    "resource": {
      "resourceType": "Questionnaire",
      "id": "f3d3c018-6455-4572-9bb2-4f44836900c3",
      "identifier": [ {
        "value": "59132"
      } ],
      "version": "2021-04-06T11:33:34.963Z",
      "status": "active",
      "experimental": false,
      "date": "2021-04-06T11:33:34+00:00",
      "publisher": "User ID: 'MCDONALDD' User name: 'Denzle McDonald' User skill set: 'T3'",
      "lastReviewDate": "2021-04-06",
      "subjectType": [ "Patient" ],
      "item": [ {
        "linkId": "59132",
        "prefix": "9000",
        "text": "PATIENT_GENDER",
        "type": "choice",
        "required": true,
        "repeats": false,
        "option": [ {
          "valueString": "==\"M\", Selected: false"
        }, {
          "valueString": "==\"F\", Selected: true"
        }, {
          "valueString": "==\"U\", Selected: false"
        }, {
          "valueString": "*, Selected: false"
        } ]
      } ]
    }
  }, {
    "fullUrl": "urn:uuid:5064af8d-a2ac-4f96-9af3-9c155060374b",
    "resource": {
      "resourceType": "QuestionnaireResponse",
      "id": "5064af8d-a2ac-4f96-9af3-9c155060374b",
      "identifier": {
        "value": "59132"
      },
      "questionnaire": {
        "reference": "urn:uuid:3c83847a-f45f-42c2-8c07-054192c05321"
      },
      "status": "completed",
      "subject": {
        "reference": "urn:uuid:9b652481-2b6f-4128-bb14-b0e86d89bbde"
      },
      "context": {
        "reference": "urn:uuid:e0b44df7-4273-4657-9fb3-8fbaf1ee1ea4"
      },
      "authored": "2021-04-06T11:33:34+00:00"
    }
  }, {
    "fullUrl": "urn:uuid:3c83847a-f45f-42c2-8c07-054192c05321",
    "resource": {
      "resourceType": "Questionnaire",
      "id": "3c83847a-f45f-42c2-8c07-054192c05321",
      "identifier": [ {
        "value": "59132"
      } ],
      "version": "2021-04-06T11:33:34.963Z",
      "status": "active",
      "experimental": false,
      "date": "2021-04-06T11:33:34+00:00",
      "publisher": "User ID: 'MCDONALDD' User name: 'Denzle McDonald' User skill set: 'T3'",
      "lastReviewDate": "2021-04-06",
      "subjectType": [ "Patient" ]
    }
  }, {
    "fullUrl": "urn:uuid:fe6abde6-02c9-485d-ad33-570f5066402d",
    "resource": {
      "resourceType": "QuestionnaireResponse",
      "id": "fe6abde6-02c9-485d-ad33-570f5066402d",
      "identifier": {
        "value": "59132"
      },
      "questionnaire": {
        "reference": "urn:uuid:62d17388-b4ce-4485-9c23-106845204cd7"
      },
      "status": "completed",
      "subject": {
        "reference": "urn:uuid:9b652481-2b6f-4128-bb14-b0e86d89bbde"
      },
      "context": {
        "reference": "urn:uuid:e0b44df7-4273-4657-9fb3-8fbaf1ee1ea4"
      },
      "authored": "2021-04-06T11:33:34+00:00",
      "item": [ {
        "linkId": "Tx221114",
        "text": "Pregnancy",
        "answer": [ {
          "valueString": "*"
        } ]
      } ]
    }
  }, {
    "fullUrl": "urn:uuid:62d17388-b4ce-4485-9c23-106845204cd7",
    "resource": {
      "resourceType": "Questionnaire",
      "id": "62d17388-b4ce-4485-9c23-106845204cd7",
      "identifier": [ {
        "value": "59132"
      } ],
      "version": "2021-04-06T11:33:34.963Z",
      "status": "active",
      "experimental": false,
      "date": "2021-04-06T11:33:34+00:00",
      "publisher": "User ID: 'MCDONALDD' User name: 'Denzle McDonald' User skill set: 'T3'",
      "lastReviewDate": "2021-04-06",
      "subjectType": [ "Patient" ],
      "item": [ {
        "linkId": "59132",
        "prefix": "64500",
        "text": "Pregnancy",
        "type": "choice",
        "required": true,
        "repeats": false,
        "option": [ {
          "valueString": "==\"present\", Selected: false"
        }, {
          "valueString": "*, Selected: true"
        } ]
      } ]
    }
  }, {
    "fullUrl": "urn:uuid:03189987-ee1e-4fe2-a879-3b4f82b73421",
    "resource": {
      "resourceType": "QuestionnaireResponse",
      "id": "03189987-ee1e-4fe2-a879-3b4f82b73421",
      "identifier": {
        "value": "59132"
      },
      "questionnaire": {
        "reference": "urn:uuid:243c532d-f063-47ae-bbe9-b06b4ed564fc"
      },
      "status": "completed",
      "subject": {
        "reference": "urn:uuid:9b652481-2b6f-4128-bb14-b0e86d89bbde"
      },
      "context": {
        "reference": "urn:uuid:e0b44df7-4273-4657-9fb3-8fbaf1ee1ea4"
      },
      "authored": "2021-04-06T11:33:34+00:00",
      "item": [ {
        "linkId": "Tx221338",
        "text": ">=11yearsConfirmed",
        "answer": [ {
          "valueString": "*"
        } ]
      } ]
    }
  }, {
    "fullUrl": "urn:uuid:243c532d-f063-47ae-bbe9-b06b4ed564fc",
    "resource": {
      "resourceType": "Questionnaire",
      "id": "243c532d-f063-47ae-bbe9-b06b4ed564fc",
      "identifier": [ {
        "value": "59132"
      } ],
      "version": "2021-04-06T11:33:34.963Z",
      "status": "active",
      "experimental": false,
      "date": "2021-04-06T11:33:34+00:00",
      "publisher": "User ID: 'MCDONALDD' User name: 'Denzle McDonald' User skill set: 'T3'",
      "lastReviewDate": "2021-04-06",
      "subjectType": [ "Patient" ],
      "item": [ {
        "linkId": "59132",
        "prefix": "65600",
        "text": ">=11yearsConfirmed",
        "type": "choice",
        "required": true,
        "repeats": false,
        "option": [ {
          "valueString": "==\"present\", Selected: false"
        }, {
          "valueString": "*, Selected: true"
        } ]
      } ]
    }
  }, {
    "fullUrl": "urn:uuid:7172a30f-f601-4d8d-bd32-baa3792efa71",
    "resource": {
      "resourceType": "QuestionnaireResponse",
      "id": "7172a30f-f601-4d8d-bd32-baa3792efa71",
      "identifier": {
        "value": "59132"
      },
      "questionnaire": {
        "reference": "urn:uuid:c5c6bbf2-c456-4208-93dc-81c837322522"
      },
      "status": "completed",
      "subject": {
        "reference": "urn:uuid:9b652481-2b6f-4128-bb14-b0e86d89bbde"
      },
      "context": {
        "reference": "urn:uuid:e0b44df7-4273-4657-9fb3-8fbaf1ee1ea4"
      },
      "authored": "2021-04-06T11:33:34+00:00",
      "item": [ {
        "linkId": "Tx221119",
        "text": "SeverelyIll",
        "answer": [ {
          "valueString": "*"
        } ]
      } ]
    }
  }, {
    "fullUrl": "urn:uuid:c5c6bbf2-c456-4208-93dc-81c837322522",
    "resource": {
      "resourceType": "Questionnaire",
      "id": "c5c6bbf2-c456-4208-93dc-81c837322522",
      "identifier": [ {
        "value": "59132"
      } ],
      "version": "2021-04-06T11:33:34.963Z",
      "status": "active",
      "experimental": false,
      "date": "2021-04-06T11:33:34+00:00",
      "publisher": "User ID: 'MCDONALDD' User name: 'Denzle McDonald' User skill set: 'T3'",
      "lastReviewDate": "2021-04-06",
      "subjectType": [ "Patient" ],
      "item": [ {
        "linkId": "59132",
        "prefix": "46200",
        "text": "SeverelyIll",
        "type": "choice",
        "required": true,
        "repeats": false,
        "option": [ {
          "valueString": "==\"present\", Selected: false"
        }, {
          "valueString": "*, Selected: true"
        } ]
      } ]
    }
  }, {
    "fullUrl": "urn:uuid:f45b4686-7bc6-46de-b29b-0e5103af9b8e",
    "resource": {
      "resourceType": "QuestionnaireResponse",
      "id": "f45b4686-7bc6-46de-b29b-0e5103af9b8e",
      "identifier": {
        "value": "59132"
      },
      "questionnaire": {
        "reference": "urn:uuid:36f5f52f-daeb-4150-a4b8-29fab9eab8ec"
      },
      "status": "completed",
      "subject": {
        "reference": "urn:uuid:9b652481-2b6f-4128-bb14-b0e86d89bbde"
      },
      "context": {
        "reference": "urn:uuid:e0b44df7-4273-4657-9fb3-8fbaf1ee1ea4"
      },
      "authored": "2021-04-06T11:33:34+00:00",
      "item": [ {
        "linkId": "Tx220947",
        "text": "SeverePain",
        "answer": [ {
          "valueString": "*"
        } ]
      } ]
    }
  }, {
    "fullUrl": "urn:uuid:36f5f52f-daeb-4150-a4b8-29fab9eab8ec",
    "resource": {
      "resourceType": "Questionnaire",
      "id": "36f5f52f-daeb-4150-a4b8-29fab9eab8ec",
      "identifier": [ {
        "value": "59132"
      } ],
      "version": "2021-04-06T11:33:34.963Z",
      "status": "active",
      "experimental": false,
      "date": "2021-04-06T11:33:34+00:00",
      "publisher": "User ID: 'MCDONALDD' User name: 'Denzle McDonald' User skill set: 'T3'",
      "lastReviewDate": "2021-04-06",
      "subjectType": [ "Patient" ],
      "item": [ {
        "linkId": "59132",
        "prefix": "64600",
        "text": "SeverePain",
        "type": "choice",
        "required": true,
        "repeats": false,
        "option": [ {
          "valueString": "==\"present\", Selected: false"
        }, {
          "valueString": "*, Selected: true"
        } ]
      } ]
    }
  }, {
    "fullUrl": "urn:uuid:7ea48683-4345-4380-a82d-4633bbb4f5e8",
    "resource": {
      "resourceType": "QuestionnaireResponse",
      "id": "7ea48683-4345-4380-a82d-4633bbb4f5e8",
      "identifier": {
        "value": "59132"
      },
      "questionnaire": {
        "reference": "urn:uuid:b36f1d48-d8c3-4838-9757-ccce53ba6fc6"
      },
      "status": "completed",
      "subject": {
        "reference": "urn:uuid:9b652481-2b6f-4128-bb14-b0e86d89bbde"
      },
      "context": {
        "reference": "urn:uuid:e0b44df7-4273-4657-9fb3-8fbaf1ee1ea4"
      },
      "authored": "2021-04-06T11:33:34+00:00",
      "item": [ {
        "linkId": "Tx220114",
        "text": "Have you taken anything that might be harmful or poisonous?",
        "answer": [ {
          "valueString": "no"
        } ]
      } ]
    }
  }, {
    "fullUrl": "urn:uuid:b36f1d48-d8c3-4838-9757-ccce53ba6fc6",
    "resource": {
      "resourceType": "Questionnaire",
      "id": "b36f1d48-d8c3-4838-9757-ccce53ba6fc6",
      "identifier": [ {
        "value": "59132"
      } ],
      "version": "2021-04-06T11:33:34.963Z",
      "status": "active",
      "experimental": false,
      "date": "2021-04-06T11:33:34+00:00",
      "publisher": "User ID: 'MCDONALDD' User name: 'Denzle McDonald' User skill set: 'T3'",
      "lastReviewDate": "2021-04-06",
      "subjectType": [ "Patient" ],
      "item": [ {
        "linkId": "59132",
        "prefix": "30300",
        "text": "Have you taken anything that might be harmful or poisonous?",
        "type": "choice",
        "required": true,
        "repeats": false,
        "option": [ {
          "valueString": "yes (specify substance if known), Selected: false"
        }, {
          "valueString": "not sure, Selected: false"
        }, {
          "valueString": "no, Selected: true"
        } ]
      } ]
    }
  }, {
    "fullUrl": "urn:uuid:8a6025bd-6c53-4cbd-8849-829dbb7b291c",
    "resource": {
      "resourceType": "QuestionnaireResponse",
      "id": "8a6025bd-6c53-4cbd-8849-829dbb7b291c",
      "identifier": {
        "value": "59132"
      },
      "questionnaire": {
        "reference": "urn:uuid:6eb476e0-88c6-4be5-abef-ae0cd6074394"
      },
      "status": "completed",
      "subject": {
        "reference": "urn:uuid:9b652481-2b6f-4128-bb14-b0e86d89bbde"
      },
      "context": {
        "reference": "urn:uuid:e0b44df7-4273-4657-9fb3-8fbaf1ee1ea4"
      },
      "authored": "2021-04-06T11:33:34+00:00",
      "item": [ {
        "linkId": "Tx221176",
        "text": "PregnancyUnder20Weeks",
        "answer": [ {
          "valueString": "*"
        } ]
      } ]
    }
  }, {
    "fullUrl": "urn:uuid:6eb476e0-88c6-4be5-abef-ae0cd6074394",
    "resource": {
      "resourceType": "Questionnaire",
      "id": "6eb476e0-88c6-4be5-abef-ae0cd6074394",
      "identifier": [ {
        "value": "59132"
      } ],
      "version": "2021-04-06T11:33:34.963Z",
      "status": "active",
      "experimental": false,
      "date": "2021-04-06T11:33:34+00:00",
      "publisher": "User ID: 'MCDONALDD' User name: 'Denzle McDonald' User skill set: 'T3'",
      "lastReviewDate": "2021-04-06",
      "subjectType": [ "Patient" ],
      "item": [ {
        "linkId": "59132",
        "prefix": "7700",
        "text": "PregnancyUnder20Weeks",
        "type": "choice",
        "required": true,
        "repeats": false,
        "option": [ {
          "valueString": "==\"present\", Selected: false"
        }, {
          "valueString": "*, Selected: true"
        } ]
      } ]
    }
  }, {
    "fullUrl": "urn:uuid:57bdf9da-f31f-411d-b74f-582b94d42124",
    "resource": {
      "resourceType": "QuestionnaireResponse",
      "id": "57bdf9da-f31f-411d-b74f-582b94d42124",
      "identifier": {
        "value": "59132"
      },
      "questionnaire": {
        "reference": "urn:uuid:acaf6c9d-60c5-4a0e-b42c-48793ee4ba3c"
      },
      "status": "completed",
      "subject": {
        "reference": "urn:uuid:9b652481-2b6f-4128-bb14-b0e86d89bbde"
      },
      "context": {
        "reference": "urn:uuid:e0b44df7-4273-4657-9fb3-8fbaf1ee1ea4"
      },
      "authored": "2021-04-06T11:33:34+00:00",
      "item": [ {
        "linkId": "Tx221338",
        "text": ">=11yearsConfirmed",
        "answer": [ {
          "valueString": "*"
        } ]
      } ]
    }
  }, {
    "fullUrl": "urn:uuid:acaf6c9d-60c5-4a0e-b42c-48793ee4ba3c",
    "resource": {
      "resourceType": "Questionnaire",
      "id": "acaf6c9d-60c5-4a0e-b42c-48793ee4ba3c",
      "identifier": [ {
        "value": "59132"
      } ],
      "version": "2021-04-06T11:33:34.963Z",
      "status": "active",
      "experimental": false,
      "date": "2021-04-06T11:33:34+00:00",
      "publisher": "User ID: 'MCDONALDD' User name: 'Denzle McDonald' User skill set: 'T3'",
      "lastReviewDate": "2021-04-06",
      "subjectType": [ "Patient" ],
      "item": [ {
        "linkId": "59132",
        "prefix": "8200",
        "text": ">=11yearsConfirmed",
        "type": "choice",
        "required": true,
        "repeats": false,
        "option": [ {
          "valueString": "==\"present\", Selected: false"
        }, {
          "valueString": "*, Selected: true"
        } ]
      } ]
    }
  }, {
    "fullUrl": "urn:uuid:29d028c1-c96b-4a5f-97c1-d31eb07be518",
    "resource": {
      "resourceType": "QuestionnaireResponse",
      "id": "29d028c1-c96b-4a5f-97c1-d31eb07be518",
      "identifier": {
        "value": "59132"
      },
      "questionnaire": {
        "reference": "urn:uuid:1563e578-4968-4c5e-be68-58ba14a01638"
      },
      "status": "completed",
      "subject": {
        "reference": "urn:uuid:9b652481-2b6f-4128-bb14-b0e86d89bbde"
      },
      "context": {
        "reference": "urn:uuid:e0b44df7-4273-4657-9fb3-8fbaf1ee1ea4"
      },
      "authored": "2021-04-06T11:33:34+00:00",
      "item": [ {
        "linkId": "Tx1033",
        "text": "Have you passed a bowel motion that looks like either of the following?",
        "answer": [ {
          "valueString": "no"
        } ]
      } ]
    }
  }, {
    "fullUrl": "urn:uuid:1563e578-4968-4c5e-be68-58ba14a01638",
    "resource": {
      "resourceType": "Questionnaire",
      "id": "1563e578-4968-4c5e-be68-58ba14a01638",
      "identifier": [ {
        "value": "59132"
      } ],
      "version": "2021-04-06T11:33:34.963Z",
      "status": "active",
      "experimental": false,
      "date": "2021-04-06T11:33:34+00:00",
      "publisher": "User ID: 'MCDONALDD' User name: 'Denzle McDonald' User skill set: 'T3'",
      "lastReviewDate": "2021-04-06",
      "subjectType": [ "Patient" ],
      "item": [ {
        "linkId": "59132",
        "prefix": "65200",
        "text": "Have you passed a bowel motion that looks like either of the following?",
        "type": "choice",
        "required": true,
        "repeats": false,
        "option": [ {
          "valueString": "black and tarry, Selected: false"
        }, {
          "valueString": "red or maroon, Selected: false"
        }, {
          "valueString": "not sure, Selected: false"
        }, {
          "valueString": "no, Selected: true"
        } ]
      } ]
    }
  }, {
    "fullUrl": "urn:uuid:3fd790d0-b4e0-46fa-b0ce-3cf13bd89386",
    "resource": {
      "resourceType": "QuestionnaireResponse",
      "id": "3fd790d0-b4e0-46fa-b0ce-3cf13bd89386",
      "identifier": {
        "value": "59132"
      },
      "questionnaire": {
        "reference": "urn:uuid:6c1402bc-3182-466b-8522-bb95d8b807af"
      },
      "status": "completed",
      "subject": {
        "reference": "urn:uuid:9b652481-2b6f-4128-bb14-b0e86d89bbde"
      },
      "context": {
        "reference": "urn:uuid:e0b44df7-4273-4657-9fb3-8fbaf1ee1ea4"
      },
      "authored": "2021-04-06T11:33:34+00:00",
      "item": [ {
        "linkId": "Tx223274",
        "text": "VHFSymptom",
        "answer": [ {
          "valueString": "*"
        } ]
      } ]
    }
  }, {
    "fullUrl": "urn:uuid:6c1402bc-3182-466b-8522-bb95d8b807af",
    "resource": {
      "resourceType": "Questionnaire",
      "id": "6c1402bc-3182-466b-8522-bb95d8b807af",
      "identifier": [ {
        "value": "59132"
      } ],
      "version": "2021-04-06T11:33:34.963Z",
      "status": "active",
      "experimental": false,
      "date": "2021-04-06T11:33:34+00:00",
      "publisher": "User ID: 'MCDONALDD' User name: 'Denzle McDonald' User skill set: 'T3'",
      "lastReviewDate": "2021-04-06",
      "subjectType": [ "Patient" ],
      "item": [ {
        "linkId": "59132",
        "prefix": "34000",
        "text": "VHFSymptom",
        "type": "choice",
        "required": true,
        "repeats": false,
        "option": [ {
          "valueString": "==\"present\", Selected: false"
        }, {
          "valueString": "*, Selected: true"
        } ]
      } ]
    }
  }, {
    "fullUrl": "urn:uuid:ee411b5a-8838-429e-98eb-824c0d8646db",
    "resource": {
      "resourceType": "QuestionnaireResponse",
      "id": "ee411b5a-8838-429e-98eb-824c0d8646db",
      "identifier": {
        "value": "59132"
      },
      "questionnaire": {
        "reference": "urn:uuid:4ea3d772-2662-4637-b09f-c92508926cd7"
      },
      "status": "completed",
      "subject": {
        "reference": "urn:uuid:9b652481-2b6f-4128-bb14-b0e86d89bbde"
      },
      "context": {
        "reference": "urn:uuid:e0b44df7-4273-4657-9fb3-8fbaf1ee1ea4"
      },
      "authored": "2021-04-06T11:33:34+00:00",
      "item": [ {
        "linkId": "Tx224075",
        "text": "SeverelyIllandConfused",
        "answer": [ {
          "valueString": "*"
        } ]
      } ]
    }
  }, {
    "fullUrl": "urn:uuid:4ea3d772-2662-4637-b09f-c92508926cd7",
    "resource": {
      "resourceType": "Questionnaire",
      "id": "4ea3d772-2662-4637-b09f-c92508926cd7",
      "identifier": [ {
        "value": "59132"
      } ],
      "version": "2021-04-06T11:33:34.963Z",
      "status": "active",
      "experimental": false,
      "date": "2021-04-06T11:33:34+00:00",
      "publisher": "User ID: 'MCDONALDD' User name: 'Denzle McDonald' User skill set: 'T3'",
      "lastReviewDate": "2021-04-06",
      "subjectType": [ "Patient" ],
      "item": [ {
        "linkId": "59132",
        "prefix": "47300",
        "text": "SeverelyIllandConfused",
        "type": "choice",
        "required": true,
        "repeats": false,
        "option": [ {
          "valueString": "==\"present\", Selected: false"
        }, {
          "valueString": "*, Selected: true"
        } ]
      } ]
    }
  }, {
    "fullUrl": "urn:uuid:7f47396b-f75d-47dd-a556-937c2236e38b",
    "resource": {
      "resourceType": "QuestionnaireResponse",
      "id": "7f47396b-f75d-47dd-a556-937c2236e38b",
      "identifier": {
        "value": "59132"
      },
      "questionnaire": {
        "reference": "urn:uuid:c96ad574-99b6-47b4-866c-a289ab04c26a"
      },
      "status": "completed",
      "subject": {
        "reference": "urn:uuid:9b652481-2b6f-4128-bb14-b0e86d89bbde"
      },
      "context": {
        "reference": "urn:uuid:e0b44df7-4273-4657-9fb3-8fbaf1ee1ea4"
      },
      "authored": "2021-04-06T11:33:34+00:00",
      "item": [ {
        "linkId": "Tx221119",
        "text": "SeverelyIll",
        "answer": [ {
          "valueString": "*"
        } ]
      } ]
    }
  }, {
    "fullUrl": "urn:uuid:c96ad574-99b6-47b4-866c-a289ab04c26a",
    "resource": {
      "resourceType": "Questionnaire",
      "id": "c96ad574-99b6-47b4-866c-a289ab04c26a",
      "identifier": [ {
        "value": "59132"
      } ],
      "version": "2021-04-06T11:33:34.963Z",
      "status": "active",
      "experimental": false,
      "date": "2021-04-06T11:33:34+00:00",
      "publisher": "User ID: 'MCDONALDD' User name: 'Denzle McDonald' User skill set: 'T3'",
      "lastReviewDate": "2021-04-06",
      "subjectType": [ "Patient" ],
      "item": [ {
        "linkId": "59132",
        "prefix": "55200",
        "text": "SeverelyIll",
        "type": "choice",
        "required": true,
        "repeats": false,
        "option": [ {
          "valueString": "==\"present\", Selected: false"
        }, {
          "valueString": "*, Selected: true"
        } ]
      } ]
    }
  }, {
    "fullUrl": "urn:uuid:2eb06e9e-f0a4-4d0e-906c-0abba11d10fe",
    "resource": {
      "resourceType": "QuestionnaireResponse",
      "id": "2eb06e9e-f0a4-4d0e-906c-0abba11d10fe",
      "identifier": {
        "value": "59132"
      },
      "questionnaire": {
        "reference": "urn:uuid:0369e2e5-89f3-411a-b656-bfed8e4262ae"
      },
      "status": "completed",
      "subject": {
        "reference": "urn:uuid:9b652481-2b6f-4128-bb14-b0e86d89bbde"
      },
      "context": {
        "reference": "urn:uuid:e0b44df7-4273-4657-9fb3-8fbaf1ee1ea4"
      },
      "authored": "2021-04-06T11:33:34+00:00",
      "item": [ {
        "linkId": "Tx223485",
        "text": "ConfusionDeclared",
        "answer": [ {
          "valueString": "*"
        } ]
      } ]
    }
  }, {
    "fullUrl": "urn:uuid:0369e2e5-89f3-411a-b656-bfed8e4262ae",
    "resource": {
      "resourceType": "Questionnaire",
      "id": "0369e2e5-89f3-411a-b656-bfed8e4262ae",
      "identifier": [ {
        "value": "59132"
      } ],
      "version": "2021-04-06T11:33:34.963Z",
      "status": "active",
      "experimental": false,
      "date": "2021-04-06T11:33:34+00:00",
      "publisher": "User ID: 'MCDONALDD' User name: 'Denzle McDonald' User skill set: 'T3'",
      "lastReviewDate": "2021-04-06",
      "subjectType": [ "Patient" ],
      "item": [ {
        "linkId": "59132",
        "prefix": "55600",
        "text": "ConfusionDeclared",
        "type": "choice",
        "required": true,
        "repeats": false,
        "option": [ {
          "valueString": "==\"present\", Selected: false"
        }, {
          "valueString": "*, Selected: true"
        } ]
      } ]
    }
  }, {
    "fullUrl": "urn:uuid:0e743f17-1a38-42d2-9afd-13a972220a6d",
    "resource": {
      "resourceType": "QuestionnaireResponse",
      "id": "0e743f17-1a38-42d2-9afd-13a972220a6d",
      "identifier": {
        "value": "59132"
      },
      "questionnaire": {
        "reference": "urn:uuid:50b9b254-856a-4497-883b-c4548d4a8cee"
      },
      "status": "completed",
      "subject": {
        "reference": "urn:uuid:9b652481-2b6f-4128-bb14-b0e86d89bbde"
      },
      "context": {
        "reference": "urn:uuid:e0b44df7-4273-4657-9fb3-8fbaf1ee1ea4"
      },
      "authored": "2021-04-06T11:33:34+00:00",
      "item": [ {
        "linkId": "Tx1213",
        "text": "Have you suddenly become confused OR more confused than usual?",
        "answer": [ {
          "valueString": "no"
        } ]
      } ]
    }
  }, {
    "fullUrl": "urn:uuid:50b9b254-856a-4497-883b-c4548d4a8cee",
    "resource": {
      "resourceType": "Questionnaire",
      "id": "50b9b254-856a-4497-883b-c4548d4a8cee",
      "identifier": [ {
        "value": "59132"
      } ],
      "version": "2021-04-06T11:33:34.963Z",
      "status": "active",
      "experimental": false,
      "date": "2021-04-06T11:33:34+00:00",
      "publisher": "User ID: 'MCDONALDD' User name: 'Denzle McDonald' User skill set: 'T3'",
      "lastReviewDate": "2021-04-06",
      "subjectType": [ "Patient" ],
      "item": [ {
        "linkId": "59132",
        "prefix": "55500",
        "text": "Have you suddenly become confused OR more confused than usual?",
        "type": "choice",
        "required": true,
        "repeats": false,
        "option": [ {
          "valueString": "yes, Selected: false"
        }, {
          "valueString": "not sure, Selected: false"
        }, {
          "valueString": "no, Selected: true"
        } ]
      } ]
    }
  }, {
    "fullUrl": "urn:uuid:65be0aad-833d-44fa-bd1b-50a37dad3777",
    "resource": {
      "resourceType": "QuestionnaireResponse",
      "id": "65be0aad-833d-44fa-bd1b-50a37dad3777",
      "identifier": {
        "value": "59132"
      },
      "questionnaire": {
        "reference": "urn:uuid:960af8ce-135e-408d-b311-2c1d082089ad"
      },
      "status": "completed",
      "subject": {
        "reference": "urn:uuid:9b652481-2b6f-4128-bb14-b0e86d89bbde"
      },
      "context": {
        "reference": "urn:uuid:e0b44df7-4273-4657-9fb3-8fbaf1ee1ea4"
      },
      "authored": "2021-04-06T11:33:34+00:00",
      "item": [ {
        "linkId": "Tx220164",
        "text": "Are you breathing faster or harder when doing nothing at all?",
        "answer": [ {
          "valueString": "no"
        } ]
      } ]
    }
  }, {
    "fullUrl": "urn:uuid:960af8ce-135e-408d-b311-2c1d082089ad",
    "resource": {
      "resourceType": "Questionnaire",
      "id": "960af8ce-135e-408d-b311-2c1d082089ad",
      "identifier": [ {
        "value": "59132"
      } ],
      "version": "2021-04-06T11:33:34.963Z",
      "status": "active",
      "experimental": false,
      "date": "2021-04-06T11:33:34+00:00",
      "publisher": "User ID: 'MCDONALDD' User name: 'Denzle McDonald' User skill set: 'T3'",
      "lastReviewDate": "2021-04-06",
      "subjectType": [ "Patient" ],
      "item": [ {
        "linkId": "59132",
        "prefix": "55400",
        "text": "Are you breathing faster or harder when doing nothing at all?",
        "type": "choice",
        "required": true,
        "repeats": false,
        "option": [ {
          "valueString": "yes, Selected: false"
        }, {
          "valueString": "not sure, Selected: false"
        }, {
          "valueString": "no, Selected: true"
        } ]
      } ]
    }
  }, {
    "fullUrl": "urn:uuid:8aa16bfe-882f-46b5-b6e8-0923719af148",
    "resource": {
      "resourceType": "QuestionnaireResponse",
      "id": "8aa16bfe-882f-46b5-b6e8-0923719af148",
      "identifier": {
        "value": "59132"
      },
      "questionnaire": {
        "reference": "urn:uuid:0434853c-aee0-4d5e-ab57-e5669165f93d"
      },
      "status": "completed",
      "subject": {
        "reference": "urn:uuid:9b652481-2b6f-4128-bb14-b0e86d89bbde"
      },
      "context": {
        "reference": "urn:uuid:e0b44df7-4273-4657-9fb3-8fbaf1ee1ea4"
      },
      "authored": "2021-04-06T11:33:34+00:00",
      "item": [ {
        "linkId": "Tx224697",
        "text": "ShoulderTipPainAsked",
        "answer": [ {
          "valueString": "*"
        } ]
      } ]
    }
  }, {
    "fullUrl": "urn:uuid:0434853c-aee0-4d5e-ab57-e5669165f93d",
    "resource": {
      "resourceType": "Questionnaire",
      "id": "0434853c-aee0-4d5e-ab57-e5669165f93d",
      "identifier": [ {
        "value": "59132"
      } ],
      "version": "2021-04-06T11:33:34.963Z",
      "status": "active",
      "experimental": false,
      "date": "2021-04-06T11:33:34+00:00",
      "publisher": "User ID: 'MCDONALDD' User name: 'Denzle McDonald' User skill set: 'T3'",
      "lastReviewDate": "2021-04-06",
      "subjectType": [ "Patient" ],
      "item": [ {
        "linkId": "59132",
        "prefix": "59300",
        "text": "ShoulderTipPainAsked",
        "type": "choice",
        "required": true,
        "repeats": false,
        "option": [ {
          "valueString": "==\"present\", Selected: false"
        }, {
          "valueString": "*, Selected: true"
        } ]
      } ]
    }
  }, {
    "fullUrl": "urn:uuid:44c499e7-899c-47e0-9437-8ce6767ec772",
    "resource": {
      "resourceType": "QuestionnaireResponse",
      "id": "44c499e7-899c-47e0-9437-8ce6767ec772",
      "identifier": {
        "value": "59132"
      },
      "questionnaire": {
        "reference": "urn:uuid:21784d11-b33c-40ae-ae29-bf8d2365ff12"
      },
      "status": "completed",
      "subject": {
        "reference": "urn:uuid:9b652481-2b6f-4128-bb14-b0e86d89bbde"
      },
      "context": {
        "reference": "urn:uuid:e0b44df7-4273-4657-9fb3-8fbaf1ee1ea4"
      },
      "authored": "2021-04-06T11:33:34+00:00",
      "item": [ {
        "linkId": "Tx1513",
        "text": "Have you got either of the following problems?",
        "answer": [ {
          "valueString": "no"
        } ]
      } ]
    }
  }, {
    "fullUrl": "urn:uuid:21784d11-b33c-40ae-ae29-bf8d2365ff12",
    "resource": {
      "resourceType": "Questionnaire",
      "id": "21784d11-b33c-40ae-ae29-bf8d2365ff12",
      "identifier": [ {
        "value": "59132"
      } ],
      "version": "2021-04-06T11:33:34.963Z",
      "status": "active",
      "experimental": false,
      "date": "2021-04-06T11:33:34+00:00",
      "publisher": "User ID: 'MCDONALDD' User name: 'Denzle McDonald' User skill set: 'T3'",
      "lastReviewDate": "2021-04-06",
      "subjectType": [ "Patient" ],
      "item": [ {
        "linkId": "59132",
        "prefix": "11000",
        "text": "Have you got either of the following problems?",
        "type": "choice",
        "required": true,
        "repeats": false,
        "option": [ {
          "valueString": "new pain in the TIP of a shoulder as well, Selected: false"
        }, {
          "valueString": "pain in the lower right side of the abdomen, Selected: false"
        }, {
          "valueString": "not sure, Selected: false"
        }, {
          "valueString": "no, Selected: true"
        } ]
      } ]
    }
  }, {
    "fullUrl": "urn:uuid:eee5ccd7-ad69-457d-86dd-d93464e52171",
    "resource": {
      "resourceType": "QuestionnaireResponse",
      "id": "eee5ccd7-ad69-457d-86dd-d93464e52171",
      "identifier": {
        "value": "59132"
      },
      "questionnaire": {
        "reference": "urn:uuid:44a4d29e-4047-4ce5-9e35-9a48bcc56441"
      },
      "status": "completed",
      "subject": {
        "reference": "urn:uuid:9b652481-2b6f-4128-bb14-b0e86d89bbde"
      },
      "context": {
        "reference": "urn:uuid:e0b44df7-4273-4657-9fb3-8fbaf1ee1ea4"
      },
      "authored": "2021-04-06T11:33:34+00:00",
      "item": [ {
        "linkId": "Tx3481",
        "text": "Has the pain been there ALL THE TIME for MORE THAN 4 HOURS?",
        "answer": [ {
          "valueString": "no (LESS THAN 4 hours)"
        } ]
      } ]
    }
  }, {
    "fullUrl": "urn:uuid:44a4d29e-4047-4ce5-9e35-9a48bcc56441",
    "resource": {
      "resourceType": "Questionnaire",
      "id": "44a4d29e-4047-4ce5-9e35-9a48bcc56441",
      "identifier": [ {
        "value": "59132"
      } ],
      "version": "2021-04-06T11:33:34.963Z",
      "status": "active",
      "experimental": false,
      "date": "2021-04-06T11:33:34+00:00",
      "publisher": "User ID: 'MCDONALDD' User name: 'Denzle McDonald' User skill set: 'T3'",
      "lastReviewDate": "2021-04-06",
      "subjectType": [ "Patient" ],
      "item": [ {
        "linkId": "59132",
        "prefix": "13000",
        "text": "Has the pain been there ALL THE TIME for MORE THAN 4 HOURS?",
        "type": "choice",
        "required": true,
        "repeats": false,
        "option": [ {
          "valueString": "yes (4 hours or MORE), Selected: false"
        }, {
          "valueString": "not sure, Selected: false"
        }, {
          "valueString": "no (LESS THAN 4 hours), Selected: true"
        } ]
      } ]
    }
  }, {
    "fullUrl": "urn:uuid:374920a8-7837-4d67-b740-d20c63239bbc",
    "resource": {
      "resourceType": "QuestionnaireResponse",
      "id": "374920a8-7837-4d67-b740-d20c63239bbc",
      "identifier": {
        "value": "59132"
      },
      "questionnaire": {
        "reference": "urn:uuid:45bdcbf7-d36f-40c6-bbd7-c3d044e4f1a7"
      },
      "status": "completed",
      "subject": {
        "reference": "urn:uuid:9b652481-2b6f-4128-bb14-b0e86d89bbde"
      },
      "context": {
        "reference": "urn:uuid:e0b44df7-4273-4657-9fb3-8fbaf1ee1ea4"
      },
      "authored": "2021-04-06T11:33:34+00:00",
      "item": [ {
        "linkId": "Tx1178",
        "text": "Have you been diagnosed with diabetes?",
        "answer": [ {
          "valueString": "no"
        } ]
      } ]
    }
  }, {
    "fullUrl": "urn:uuid:45bdcbf7-d36f-40c6-bbd7-c3d044e4f1a7",
    "resource": {
      "resourceType": "Questionnaire",
      "id": "45bdcbf7-d36f-40c6-bbd7-c3d044e4f1a7",
      "identifier": [ {
        "value": "59132"
      } ],
      "version": "2021-04-06T11:33:34.963Z",
      "status": "active",
      "experimental": false,
      "date": "2021-04-06T11:33:34+00:00",
      "publisher": "User ID: 'MCDONALDD' User name: 'Denzle McDonald' User skill set: 'T3'",
      "lastReviewDate": "2021-04-06",
      "subjectType": [ "Patient" ],
      "item": [ {
        "linkId": "59132",
        "prefix": "13700",
        "text": "Have you been diagnosed with diabetes?",
        "type": "choice",
        "required": true,
        "repeats": false,
        "option": [ {
          "valueString": "yes, Selected: false"
        }, {
          "valueString": "not sure, Selected: false"
        }, {
          "valueString": "no, Selected: true"
        } ]
      } ]
    }
  }, {
    "fullUrl": "urn:uuid:d96cdefd-9504-4997-b8e7-c2a6e94d8f8b",
    "resource": {
      "resourceType": "QuestionnaireResponse",
      "id": "d96cdefd-9504-4997-b8e7-c2a6e94d8f8b",
      "identifier": {
        "value": "59132"
      },
      "questionnaire": {
        "reference": "urn:uuid:72df2f46-9b38-40d7-afb3-ca71cc6e0356"
      },
      "status": "completed",
      "subject": {
        "reference": "urn:uuid:9b652481-2b6f-4128-bb14-b0e86d89bbde"
      },
      "context": {
        "reference": "urn:uuid:e0b44df7-4273-4657-9fb3-8fbaf1ee1ea4"
      },
      "authored": "2021-04-06T11:33:34+00:00",
      "item": [ {
        "linkId": "Tx220906",
        "text": "Have you got pain in the back or side between the ribs and hips?",
        "answer": [ {
          "valueString": "yes"
        } ]
      } ]
    }
  }, {
    "fullUrl": "urn:uuid:72df2f46-9b38-40d7-afb3-ca71cc6e0356",
    "resource": {
      "resourceType": "Questionnaire",
      "id": "72df2f46-9b38-40d7-afb3-ca71cc6e0356",
      "identifier": [ {
        "value": "59132"
      } ],
      "version": "2021-04-06T11:33:34.963Z",
      "status": "active",
      "experimental": false,
      "date": "2021-04-06T11:33:34+00:00",
      "publisher": "User ID: 'MCDONALDD' User name: 'Denzle McDonald' User skill set: 'T3'",
      "lastReviewDate": "2021-04-06",
      "subjectType": [ "Patient" ],
      "item": [ {
        "linkId": "59132",
        "prefix": "14400",
        "text": "Have you got pain in the back or side between the ribs and hips?",
        "type": "choice",
        "required": true,
        "repeats": false,
        "option": [ {
          "valueString": "yes, Selected: true"
        }, {
          "valueString": "not sure, Selected: false"
        }, {
          "valueString": "no, Selected: false"
        } ]
      } ]
    }
  }, {
    "fullUrl": "urn:uuid:8b7daa84-6d3e-44d1-9062-8d9ff02ccf1d",
    "resource": {
      "resourceType": "QuestionnaireResponse",
      "id": "8b7daa84-6d3e-44d1-9062-8d9ff02ccf1d",
      "identifier": {
        "value": "59132"
      },
      "questionnaire": {
        "reference": "urn:uuid:9a3bffc1-df80-4c78-b64e-235ff7151786"
      },
      "status": "completed",
      "subject": {
        "reference": "urn:uuid:9b652481-2b6f-4128-bb14-b0e86d89bbde"
      },
      "context": {
        "reference": "urn:uuid:e0b44df7-4273-4657-9fb3-8fbaf1ee1ea4"
      },
      "authored": "2021-04-06T11:33:34+00:00",
      "item": [ {
        "linkId": "Tx1122",
        "text": "Have you felt hot or feverish at any time in the last 12 hours?",
        "answer": [ {
          "valueString": "yes - temperature not taken"
        } ]
      } ]
    }
  }, {
    "fullUrl": "urn:uuid:9a3bffc1-df80-4c78-b64e-235ff7151786",
    "resource": {
      "resourceType": "Questionnaire",
      "id": "9a3bffc1-df80-4c78-b64e-235ff7151786",
      "identifier": [ {
        "value": "59132"
      } ],
      "version": "2021-04-06T11:33:34.963Z",
      "status": "active",
      "experimental": false,
      "date": "2021-04-06T11:33:34+00:00",
      "publisher": "User ID: 'MCDONALDD' User name: 'Denzle McDonald' User skill set: 'T3'",
      "lastReviewDate": "2021-04-06",
      "subjectType": [ "Patient" ],
      "item": [ {
        "linkId": "59132",
        "prefix": "14700",
        "text": "Have you felt hot or feverish at any time in the last 12 hours?",
        "type": "choice",
        "required": true,
        "repeats": false,
        "option": [ {
          "valueString": "yes - temperature not taken, Selected: true"
        }, {
          "valueString": "yes - temperature taken (specify), Selected: false"
        }, {
          "valueString": "not sure, Selected: false"
        }, {
          "valueString": "no, Selected: false"
        } ]
      } ]
    }
  }, {
    "fullUrl": "urn:uuid:9efcf2b6-83b8-47c4-b03c-7d0b7b45ce6d",
    "resource": {
      "resourceType": "QuestionnaireResponse",
      "id": "9efcf2b6-83b8-47c4-b03c-7d0b7b45ce6d",
      "identifier": {
        "value": "59132"
      },
      "questionnaire": {
        "reference": "urn:uuid:139728a2-85a7-4753-82fc-1458b7f92157"
      },
      "status": "completed",
      "subject": {
        "reference": "urn:uuid:9b652481-2b6f-4128-bb14-b0e86d89bbde"
      },
      "context": {
        "reference": "urn:uuid:e0b44df7-4273-4657-9fb3-8fbaf1ee1ea4"
      },
      "authored": "2021-04-06T11:33:34+00:00",
      "item": [ {
        "linkId": "Tx1320",
        "text": "Have you got a new red rash all over, like sunburn?",
        "answer": [ {
          "valueString": "no"
        } ]
      } ]
    }
  }, {
    "fullUrl": "urn:uuid:139728a2-85a7-4753-82fc-1458b7f92157",
    "resource": {
      "resourceType": "Questionnaire",
      "id": "139728a2-85a7-4753-82fc-1458b7f92157",
      "identifier": [ {
        "value": "59132"
      } ],
      "version": "2021-04-06T11:33:34.963Z",
      "status": "active",
      "experimental": false,
      "date": "2021-04-06T11:33:34+00:00",
      "publisher": "User ID: 'MCDONALDD' User name: 'Denzle McDonald' User skill set: 'T3'",
      "lastReviewDate": "2021-04-06",
      "subjectType": [ "Patient" ],
      "item": [ {
        "linkId": "59132",
        "prefix": "14800",
        "text": "Have you got a new red rash all over, like sunburn?",
        "type": "choice",
        "required": true,
        "repeats": false,
        "option": [ {
          "valueString": "yes, Selected: false"
        }, {
          "valueString": "not sure, Selected: false"
        }, {
          "valueString": "no, Selected: true"
        } ]
      } ]
    }
  }, {
    "fullUrl": "urn:uuid:c076b305-6a32-4fff-b4ac-280efefdceec",
    "resource": {
      "resourceType": "QuestionnaireResponse",
      "id": "c076b305-6a32-4fff-b4ac-280efefdceec",
      "identifier": {
        "value": "59132"
      },
      "questionnaire": {
        "reference": "urn:uuid:7dc69788-dacf-4e7f-96d8-8f7ae083335f"
      },
      "status": "completed",
      "subject": {
        "reference": "urn:uuid:9b652481-2b6f-4128-bb14-b0e86d89bbde"
      },
      "context": {
        "reference": "urn:uuid:e0b44df7-4273-4657-9fb3-8fbaf1ee1ea4"
      },
      "authored": "2021-04-06T11:33:34+00:00",
      "item": [ {
        "linkId": "Tx221449",
        "text": "STRING:SDPCFullPrimaryCareassessmentandprescribingcapability",
        "answer": [ {
          "valueString": "\"PC full Primary Care assessment and prescribing capability\""
        } ]
      } ]
    }
  }, {
    "fullUrl": "urn:uuid:7dc69788-dacf-4e7f-96d8-8f7ae083335f",
    "resource": {
      "resourceType": "Questionnaire",
      "id": "7dc69788-dacf-4e7f-96d8-8f7ae083335f",
      "identifier": [ {
        "value": "59132"
      } ],
      "version": "2021-04-06T11:33:34.963Z",
      "status": "active",
      "experimental": false,
      "date": "2021-04-06T11:33:34+00:00",
      "publisher": "User ID: 'MCDONALDD' User name: 'Denzle McDonald' User skill set: 'T3'",
      "lastReviewDate": "2021-04-06",
      "subjectType": [ "Patient" ],
      "item": [ {
        "linkId": "59132",
        "prefix": "14900",
        "text": "STRING:SDPCFullPrimaryCareassessmentandprescribingcapability",
        "type": "choice",
        "required": true,
        "repeats": false,
        "option": [ {
          "valueString": "\"PC full Primary Care assessment and prescribing capability\", Selected: true"
        } ]
      } ]
    }
  }, {
    "fullUrl": "urn:uuid:c3e9c1ee-862c-4ca1-a9ed-ff74ddd26ce3",
    "resource": {
      "resourceType": "QuestionnaireResponse",
      "id": "c3e9c1ee-862c-4ca1-a9ed-ff74ddd26ce3",
      "identifier": {
        "value": "59132"
      },
      "questionnaire": {
        "reference": "urn:uuid:6d0d43be-6da4-4072-b4c7-f58eccbe5f55"
      },
      "status": "completed",
      "subject": {
        "reference": "urn:uuid:9b652481-2b6f-4128-bb14-b0e86d89bbde"
      },
      "context": {
        "reference": "urn:uuid:e0b44df7-4273-4657-9fb3-8fbaf1ee1ea4"
      },
      "authored": "2021-04-06T11:33:34+00:00"
    }
  }, {
    "fullUrl": "urn:uuid:6d0d43be-6da4-4072-b4c7-f58eccbe5f55",
    "resource": {
      "resourceType": "Questionnaire",
      "id": "6d0d43be-6da4-4072-b4c7-f58eccbe5f55",
      "identifier": [ {
        "value": "59132"
      } ],
      "version": "2021-04-06T11:33:34.963Z",
      "status": "active",
      "experimental": false,
      "date": "2021-04-06T11:33:34+00:00",
      "publisher": "User ID: 'MCDONALDD' User name: 'Denzle McDonald' User skill set: 'T3'",
      "lastReviewDate": "2021-04-06",
      "subjectType": [ "Patient" ]
    }
  }, {
    "fullUrl": "urn:uuid:a494aa04-165b-4973-9322-781aca2afbce",
    "resource": {
      "resourceType": "QuestionnaireResponse",
      "id": "a494aa04-165b-4973-9322-781aca2afbce",
      "identifier": {
        "value": "59132"
      },
      "questionnaire": {
        "reference": "urn:uuid:6b324ae3-f95b-4917-8251-cbd53c26e148"
      },
      "status": "completed",
      "subject": {
        "reference": "urn:uuid:9b652481-2b6f-4128-bb14-b0e86d89bbde"
      },
      "context": {
        "reference": "urn:uuid:e0b44df7-4273-4657-9fb3-8fbaf1ee1ea4"
      },
      "authored": "2021-04-06T11:33:34+00:00"
    }
  }, {
    "fullUrl": "urn:uuid:6b324ae3-f95b-4917-8251-cbd53c26e148",
    "resource": {
      "resourceType": "Questionnaire",
      "id": "6b324ae3-f95b-4917-8251-cbd53c26e148",
      "identifier": [ {
        "value": "59132"
      } ],
      "version": "2021-04-06T11:33:34.963Z",
      "status": "active",
      "experimental": false,
      "date": "2021-04-06T11:33:34+00:00",
      "publisher": "User ID: 'MCDONALDD' User name: 'Denzle McDonald' User skill set: 'T3'",
      "lastReviewDate": "2021-04-06",
      "subjectType": [ "Patient" ]
    }
  }, {
    "fullUrl": "urn:uuid:ee4da509-567d-4070-966d-0c46a2d54aa8",
    "resource": {
      "resourceType": "QuestionnaireResponse",
      "id": "ee4da509-567d-4070-966d-0c46a2d54aa8",
      "identifier": {
        "value": "59132"
      },
      "questionnaire": {
        "reference": "urn:uuid:aa14db75-0b8a-4076-8a2c-9e18c75a0de0"
      },
      "status": "completed",
      "subject": {
        "reference": "urn:uuid:9b652481-2b6f-4128-bb14-b0e86d89bbde"
      },
      "context": {
        "reference": "urn:uuid:e0b44df7-4273-4657-9fb3-8fbaf1ee1ea4"
      },
      "authored": "2021-04-06T11:33:34+00:00"
    }
  }, {
    "fullUrl": "urn:uuid:aa14db75-0b8a-4076-8a2c-9e18c75a0de0",
    "resource": {
      "resourceType": "Questionnaire",
      "id": "aa14db75-0b8a-4076-8a2c-9e18c75a0de0",
      "identifier": [ {
        "value": "59132"
      } ],
      "version": "2021-04-06T11:33:34.963Z",
      "status": "active",
      "experimental": false,
      "date": "2021-04-06T11:33:34+00:00",
      "publisher": "User ID: 'MCDONALDD' User name: 'Denzle McDonald' User skill set: 'T3'",
      "lastReviewDate": "2021-04-06",
      "subjectType": [ "Patient" ]
    }
  }, {
    "fullUrl": "urn:uuid:c8019a9c-a5ef-42e2-80ac-6c395792d831",
    "resource": {
      "resourceType": "QuestionnaireResponse",
      "id": "c8019a9c-a5ef-42e2-80ac-6c395792d831",
      "identifier": {
        "value": "59132"
      },
      "questionnaire": {
        "reference": "urn:uuid:4a2e805a-7a53-46f5-84a4-6a02f927a1c5"
      },
      "status": "completed",
      "subject": {
        "reference": "urn:uuid:9b652481-2b6f-4128-bb14-b0e86d89bbde"
      },
      "context": {
        "reference": "urn:uuid:e0b44df7-4273-4657-9fb3-8fbaf1ee1ea4"
      },
      "authored": "2021-04-06T11:33:34+00:00"
    }
  }, {
    "fullUrl": "urn:uuid:4a2e805a-7a53-46f5-84a4-6a02f927a1c5",
    "resource": {
      "resourceType": "Questionnaire",
      "id": "4a2e805a-7a53-46f5-84a4-6a02f927a1c5",
      "identifier": [ {
        "value": "59132"
      } ],
      "version": "2021-04-06T11:33:34.963Z",
      "status": "active",
      "experimental": false,
      "date": "2021-04-06T11:33:34+00:00",
      "publisher": "User ID: 'MCDONALDD' User name: 'Denzle McDonald' User skill set: 'T3'",
      "lastReviewDate": "2021-04-06",
      "subjectType": [ "Patient" ]
    }
  }, {
    "fullUrl": "urn:uuid:30e87cf5-2e4a-47bd-9343-6c033a4d15af",
    "resource": {
      "resourceType": "QuestionnaireResponse",
      "id": "30e87cf5-2e4a-47bd-9343-6c033a4d15af",
      "identifier": {
        "value": "59132"
      },
      "questionnaire": {
        "reference": "urn:uuid:efbb1c2f-b1fa-4b45-b37a-25194f4ff346"
      },
      "status": "completed",
      "subject": {
        "reference": "urn:uuid:9b652481-2b6f-4128-bb14-b0e86d89bbde"
      },
      "context": {
        "reference": "urn:uuid:e0b44df7-4273-4657-9fb3-8fbaf1ee1ea4"
      },
      "authored": "2021-04-06T11:33:34+00:00"
    }
  }, {
    "fullUrl": "urn:uuid:efbb1c2f-b1fa-4b45-b37a-25194f4ff346",
    "resource": {
      "resourceType": "Questionnaire",
      "id": "efbb1c2f-b1fa-4b45-b37a-25194f4ff346",
      "identifier": [ {
        "value": "59132"
      } ],
      "version": "2021-04-06T11:33:34.963Z",
      "status": "active",
      "experimental": false,
      "date": "2021-04-06T11:33:34+00:00",
      "publisher": "User ID: 'MCDONALDD' User name: 'Denzle McDonald' User skill set: 'T3'",
      "lastReviewDate": "2021-04-06",
      "subjectType": [ "Patient" ]
    }
  }, {
    "fullUrl": "urn:uuid:c5211b63-af02-44a4-aa4a-883b5cbf14e7",
    "resource": {
      "resourceType": "Observation",
      "id": "c5211b63-af02-44a4-aa4a-883b5cbf14e7",
      "status": "final",
      "code": {
        "coding": [ {
          "system": "http://snomed.info/sct",
          "code": "33962009",
          "display": "Presenting complaint"
        } ]
      },
      "subject": {
        "reference": "urn:uuid:9b652481-2b6f-4128-bb14-b0e86d89bbde"
      },
      "context": {
        "reference": "urn:uuid:e0b44df7-4273-4657-9fb3-8fbaf1ee1ea4"
      },
      "valueString": "Pharmacy ITK Testing"
    }
  }, {
    "fullUrl": "urn:uuid:22c30e7b-99c6-4641-b495-abed70174ac6",
    "resource": {
      "resourceType": "PractitionerRole",
      "id": "22c30e7b-99c6-4641-b495-abed70174ac6",
      "practitioner": {
        "reference": "urn:uuid:89e203ef-7b0b-487e-b3cf-14204c9af844"
      },
      "organization": {
        "reference": "urn:uuid:c8a40a88-1c81-4bd2-93c7-4ec1a5fa0029"
      },
      "code": [ {
        "coding": [ {
          "system": "2.16.840.1.113883.2.1.3.2.4.17.339",
          "code": "DOCTOR",
          "display": "Doctor"
        } ]
      } ]
    }
  }, {
    "fullUrl": "urn:uuid:c8a40a88-1c81-4bd2-93c7-4ec1a5fa0029",
    "resource": {
      "resourceType": "Organization",
      "id": "c8a40a88-1c81-4bd2-93c7-4ec1a5fa0029",
      "identifier": [ {
        "value": "RYE"
      } ],
      "name": "1.SCAS Administrator (SCAS111)"
    }
  }, {
    "fullUrl": "urn:uuid:16cd8b3c-aa36-431e-90f3-6cb1ea5df736",
    "resource": {
      "resourceType": "PractitionerRole",
      "id": "16cd8b3c-aa36-431e-90f3-6cb1ea5df736",
      "practitioner": {
        "reference": "urn:uuid:6f92312e-dc3c-41cc-b274-b47be52c4593"
      },
      "organization": {
        "reference": "urn:uuid:ddeb30a1-d719-46db-ae6c-b9c3e5d75c0e"
      },
      "code": [ {
        "coding": [ {
          "system": "2.16.840.1.113883.2.1.3.2.4.17.196",
          "code": "R0010",
          "display": "Medical Director"
        } ]
      } ]
    }
  }, {
    "fullUrl": "urn:uuid:ddeb30a1-d719-46db-ae6c-b9c3e5d75c0e",
    "resource": {
      "resourceType": "Organization",
      "id": "ddeb30a1-d719-46db-ae6c-b9c3e5d75c0e",
      "identifier": [ {
        "value": "RYE"
      } ],
      "name": "SCAS111"
    }
  }, {
    "fullUrl": "urn:uuid:1aa9e3e9-b742-4f87-809a-5af0788e84b6",
    "resource": {
      "resourceType": "RelatedPerson",
      "id": "1aa9e3e9-b742-4f87-809a-5af0788e84b6",
      "patient": {
        "reference": "urn:uuid:9b652481-2b6f-4128-bb14-b0e86d89bbde"
      },
      "relationship": {
        "coding": [ {
          "system": "http://hl7.org/fhir/v2/0131",
          "code": "C",
          "display": "Emergency Contact"
        } ]
      },
      "telecom": [ {
        "system": "phone",
        "value": "tel:07948625625"
      } ]
    }
  }, {
    "fullUrl": "urn:uuid:05081fd6-8742-4630-93f8-c06d2eb1f3ee",
    "resource": {
      "resourceType": "Device",
      "id": "05081fd6-8742-4630-93f8-c06d2eb1f3ee",
      "model": "111 Adaptor",
      "version": "0.9.0"
    }
  }, {
    "fullUrl": "urn:uuid:bb469e7c-ae4b-4e02-a8f0-097f10a46352",
    "resource": {
      "resourceType": "List",
      "id": "bb469e7c-ae4b-4e02-a8f0-097f10a46352",
      "status": "current",
      "mode": "working",
      "title": "111 Report List",
      "code": {
        "coding": [ {
          "system": "http://snomed.info/sct",
          "code": "225390008",
          "display": "Triage"
        } ]
      },
      "subject": {
        "reference": "urn:uuid:9b652481-2b6f-4128-bb14-b0e86d89bbde"
      },
      "encounter": {
        "reference": "urn:uuid:e0b44df7-4273-4657-9fb3-8fbaf1ee1ea4"
      },
      "date": "2021-09-15T09:16:03+00:00",
      "source": {
        "reference": "urn:uuid:05081fd6-8742-4630-93f8-c06d2eb1f3ee"
      },
      "orderedBy": {
        "coding": [ {
          "system": "http://hl7.org/fhir/list-order",
          "code": "event-date",
          "display": "Sorted by Event Date"
        } ]
      },
      "entry": [ {
        "item": {
          "reference": "urn:uuid:ddeb30a1-d719-46db-ae6c-b9c3e5d75c0e"
        }
      }, {
        "item": {
          "reference": "urn:uuid:6f92312e-dc3c-41cc-b274-b47be52c4593"
        }
      }, {
        "item": {
          "reference": "urn:uuid:a614c4db-877d-4251-b25f-100e5015b15a"
        }
      }, {
        "item": {
          "reference": "urn:uuid:1b52f5dc-20e2-4994-9284-72f64082c05f"
        }
      }, {
        "item": {
          "reference": "urn:uuid:89e203ef-7b0b-487e-b3cf-14204c9af844"
        }
      }, {
        "item": {
          "reference": "urn:uuid:81eaa118-a0de-4265-8fbf-e70e2491bc22"
        }
      }, {
        "item": {
          "reference": "urn:uuid:c8a40a88-1c81-4bd2-93c7-4ec1a5fa0029"
        }
      }, {
        "item": {
          "reference": "urn:uuid:b3a873dc-d94e-4f5a-a60a-a88c4244a7d7"
        }
      }, {
        "item": {
          "reference": "urn:uuid:c6271046-043a-47cd-b87a-56fa60fc3046"
        }
      }, {
        "item": {
          "reference": "urn:uuid:c5211b63-af02-44a4-aa4a-883b5cbf14e7"
        }
      }, {
        "item": {
          "reference": "urn:uuid:1aa9e3e9-b742-4f87-809a-5af0788e84b6"
        }
      }, {
        "item": {
          "reference": "urn:uuid:cb516d9e-7577-405a-8072-92aa04ab5652"
        }
      }, {
        "item": {
          "reference": "urn:uuid:b36f1d48-d8c3-4838-9757-ccce53ba6fc6"
        }
      }, {
        "item": {
          "reference": "urn:uuid:9b6d9349-2f62-4e0e-9fb0-d597748de626"
        }
      }, {
        "item": {
          "reference": "urn:uuid:6576dd0c-3979-4cac-bb9d-9b1ea6482f25"
        }
      }, {
        "item": {
          "reference": "urn:uuid:37f3e036-7819-43b1-90dd-b93af5a90672"
        }
      }, {
        "item": {
          "reference": "urn:uuid:3c130dff-e337-4501-863d-7c163b74dbf5"
        }
      }, {
        "item": {
          "reference": "urn:uuid:74e73559-a45e-4410-ad98-e301fa71761b"
        }
      }, {
        "item": {
          "reference": "urn:uuid:65be0aad-833d-44fa-bd1b-50a37dad3777"
        }
      }, {
        "item": {
          "reference": "urn:uuid:eee5ccd7-ad69-457d-86dd-d93464e52171"
        }
      }, {
        "item": {
          "reference": "urn:uuid:47c57891-aa1d-444a-a437-152f79427ccd"
        }
      }, {
        "item": {
          "reference": "urn:uuid:b3226266-455c-42ed-9a15-e4ae2129cf96"
        }
      }, {
        "item": {
          "reference": "urn:uuid:03189987-ee1e-4fe2-a879-3b4f82b73421"
        }
      }, {
        "item": {
          "reference": "urn:uuid:da69bd14-67fd-44a4-93f8-de53aff86d60"
        }
      }, {
        "item": {
          "reference": "urn:uuid:6cc635bf-1f70-48cb-b6ac-0b98f17009e6"
        }
      }, {
        "item": {
          "reference": "urn:uuid:c1482587-66c2-41cc-b14d-bef8518c1e20"
        }
      }, {
        "item": {
          "reference": "urn:uuid:acaf6c9d-60c5-4a0e-b42c-48793ee4ba3c"
        }
      }, {
        "item": {
          "reference": "urn:uuid:72df2f46-9b38-40d7-afb3-ca71cc6e0356"
        }
      }, {
        "item": {
          "reference": "urn:uuid:8efbdf9f-3f83-41ad-8720-ef730be66f4f"
        }
      }, {
        "item": {
          "reference": "urn:uuid:f3d3c018-6455-4572-9bb2-4f44836900c3"
        }
      }, {
        "item": {
          "reference": "urn:uuid:7ea48683-4345-4380-a82d-4633bbb4f5e8"
        }
      }, {
        "item": {
          "reference": "urn:uuid:37c7b40b-c3aa-4d41-b44d-d0081bff2368"
        }
      }, {
        "item": {
          "reference": "urn:uuid:6c303b02-2b69-4b6b-a7a8-a1fc50ae32d1"
        }
      }, {
        "item": {
          "reference": "urn:uuid:77778490-3172-43ac-9397-87487d4200d4"
        }
      }, {
        "item": {
          "reference": "urn:uuid:0c56ceac-4872-4a9a-be0c-8a8ed83a6366"
        }
      }, {
        "item": {
          "reference": "urn:uuid:62d17388-b4ce-4485-9c23-106845204cd7"
        }
      }, {
        "item": {
          "reference": "urn:uuid:a2ffccbd-c4ea-49cb-8d33-681795a0164a"
        }
      }, {
        "item": {
          "reference": "urn:uuid:1ce7eb38-ecf5-423e-8c59-1960a9e8731f"
        }
      }, {
        "item": {
          "reference": "urn:uuid:ee5c6cda-77bd-4da0-89c0-5a58bb1bc6af"
        }
      }, {
        "item": {
          "reference": "urn:uuid:6d0d43be-6da4-4072-b4c7-f58eccbe5f55"
        }
      }, {
        "item": {
          "reference": "urn:uuid:e86e1c34-e8fd-4148-9788-37695474f27a"
        }
      }, {
        "item": {
          "reference": "urn:uuid:e4265e39-182d-4eef-8689-df8d919ea48b"
        }
      }, {
        "item": {
          "reference": "urn:uuid:103c593d-01e0-4008-b2bf-a692d8dc464a"
        }
      }, {
        "item": {
          "reference": "urn:uuid:eaedf098-3e3d-4ece-bf80-f31ba2fb8aa8"
        }
      }, {
        "item": {
          "reference": "urn:uuid:72effe90-d99a-4fec-8c51-da625d374b5b"
        }
      }, {
        "item": {
          "reference": "urn:uuid:076c1a00-f0b1-4218-ae8e-ae43a1bf4a59"
        }
      }, {
        "item": {
          "reference": "urn:uuid:c3928130-afe6-43e8-8d42-74a95f486660"
        }
      }, {
        "item": {
          "reference": "urn:uuid:6c1402bc-3182-466b-8522-bb95d8b807af"
        }
      }, {
        "item": {
          "reference": "urn:uuid:62358307-4505-4bac-ae83-c143fb5ecb26"
        }
      }, {
        "item": {
          "reference": "urn:uuid:d212f16d-bd1c-403c-9c5e-c272ec1689a6"
        }
      }, {
        "item": {
          "reference": "urn:uuid:0811a079-699b-48d9-bd37-503e67eb1321"
        }
      }, {
        "item": {
          "reference": "urn:uuid:7dc69788-dacf-4e7f-96d8-8f7ae083335f"
        }
      }, {
        "item": {
          "reference": "urn:uuid:6be864c1-0d3b-44c0-a58f-f3cab3bd2435"
        }
      }, {
        "item": {
          "reference": "urn:uuid:0434853c-aee0-4d5e-ab57-e5669165f93d"
        }
      }, {
        "item": {
          "reference": "urn:uuid:6eb476e0-88c6-4be5-abef-ae0cd6074394"
        }
      }, {
        "item": {
          "reference": "urn:uuid:4ea3d772-2662-4637-b09f-c92508926cd7"
        }
      }, {
        "item": {
          "reference": "urn:uuid:a2ce1629-a950-4c75-916d-b3b978ee7834"
        }
      }, {
        "item": {
          "reference": "urn:uuid:8998bc60-b6af-475a-aa87-99ac61a87653"
        }
      }, {
        "item": {
          "reference": "urn:uuid:3488d9f9-6fc5-4fb6-9093-60b0aca98515"
        }
      }, {
        "item": {
          "reference": "urn:uuid:e8678519-78b6-49a6-ac5c-5be380089f36"
        }
      }, {
        "item": {
          "reference": "urn:uuid:f45b4686-7bc6-46de-b29b-0e5103af9b8e"
        }
      }, {
        "item": {
          "reference": "urn:uuid:8a6025bd-6c53-4cbd-8849-829dbb7b291c"
        }
      }, {
        "item": {
          "reference": "urn:uuid:6d183423-fe64-4d78-9842-bfa6adc60d04"
        }
      }, {
        "item": {
          "reference": "urn:uuid:ee411b5a-8838-429e-98eb-824c0d8646db"
        }
      }, {
        "item": {
          "reference": "urn:uuid:48d4389b-6080-4e04-a2be-2c557c8d51bf"
        }
      }, {
        "item": {
          "reference": "urn:uuid:374920a8-7837-4d67-b740-d20c63239bbc"
        }
      }, {
        "item": {
          "reference": "urn:uuid:30e87cf5-2e4a-47bd-9343-6c033a4d15af"
        }
      }, {
        "item": {
          "reference": "urn:uuid:1563e578-4968-4c5e-be68-58ba14a01638"
        }
      }, {
        "item": {
          "reference": "urn:uuid:9a3bffc1-df80-4c78-b64e-235ff7151786"
        }
      }, {
        "item": {
          "reference": "urn:uuid:7f47396b-f75d-47dd-a556-937c2236e38b"
        }
      }, {
        "item": {
          "reference": "urn:uuid:ee4da509-567d-4070-966d-0c46a2d54aa8"
        }
      }, {
        "item": {
          "reference": "urn:uuid:74258b18-ebd7-4d26-8f7a-8ab95424c9f7"
        }
      }, {
        "item": {
          "reference": "urn:uuid:dfe6b6b7-dae0-4a80-8dfa-adda6f2bdc37"
        }
      }, {
        "item": {
          "reference": "urn:uuid:960af8ce-135e-408d-b311-2c1d082089ad"
        }
      }, {
        "item": {
          "reference": "urn:uuid:682bb223-dc66-42bd-8823-bf221567b20c"
        }
      }, {
        "item": {
          "reference": "urn:uuid:c076b305-6a32-4fff-b4ac-280efefdceec"
        }
      }, {
        "item": {
          "reference": "urn:uuid:28338d75-8843-42fc-be03-124d96027e98"
        }
      }, {
        "item": {
          "reference": "urn:uuid:fe6abde6-02c9-485d-ad33-570f5066402d"
        }
      }, {
        "item": {
          "reference": "urn:uuid:4de83fd0-d4fe-4250-ad59-a9d8cf2145d4"
        }
      }, {
        "item": {
          "reference": "urn:uuid:d5b12918-90c1-43e5-8b4e-e27fca6e640d"
        }
      }, {
        "item": {
          "reference": "urn:uuid:0d2f55d3-a4ae-4466-849a-c20c0e8ebffc"
        }
      }, {
        "item": {
          "reference": "urn:uuid:c5c6bbf2-c456-4208-93dc-81c837322522"
        }
      }, {
        "item": {
          "reference": "urn:uuid:139728a2-85a7-4753-82fc-1458b7f92157"
        }
      }, {
        "item": {
          "reference": "urn:uuid:b46a4a54-6716-4f6f-a2e9-24d28e183d4b"
        }
      }, {
        "item": {
          "reference": "urn:uuid:efbb1c2f-b1fa-4b45-b37a-25194f4ff346"
        }
      }, {
        "item": {
          "reference": "urn:uuid:a494aa04-165b-4973-9322-781aca2afbce"
        }
      }, {
        "item": {
          "reference": "urn:uuid:243c532d-f063-47ae-bbe9-b06b4ed564fc"
        }
      }, {
        "item": {
          "reference": "urn:uuid:7172a30f-f601-4d8d-bd32-baa3792efa71"
        }
      }, {
        "item": {
          "reference": "urn:uuid:29e05e2f-4a0e-482b-b511-c72a1fd7004c"
        }
      }, {
        "item": {
          "reference": "urn:uuid:274aa7a0-0d33-4ec1-8d40-6db311d4758f"
        }
      }, {
        "item": {
          "reference": "urn:uuid:c995af6d-3c59-4466-aa8d-890d8b8b1f72"
        }
      }, {
        "item": {
          "reference": "urn:uuid:29d028c1-c96b-4a5f-97c1-d31eb07be518"
        }
      }, {
        "item": {
          "reference": "urn:uuid:c96ad574-99b6-47b4-866c-a289ab04c26a"
        }
      }, {
        "item": {
          "reference": "urn:uuid:8b7daa84-6d3e-44d1-9062-8d9ff02ccf1d"
        }
      }, {
        "item": {
          "reference": "urn:uuid:3fd790d0-b4e0-46fa-b0ce-3cf13bd89386"
        }
      }, {
        "item": {
          "reference": "urn:uuid:c9a85889-9f0f-4398-8ffc-1e1f5f770cc7"
        }
      }, {
        "item": {
          "reference": "urn:uuid:c3e9c1ee-862c-4ca1-a9ed-ff74ddd26ce3"
        }
      }, {
        "item": {
          "reference": "urn:uuid:0c7f1ce9-53a2-46f6-aa43-3cc85dd25201"
        }
      }, {
        "item": {
          "reference": "urn:uuid:8aa16bfe-882f-46b5-b6e8-0923719af148"
        }
      }, {
        "item": {
          "reference": "urn:uuid:45bdcbf7-d36f-40c6-bbd7-c3d044e4f1a7"
        }
      }, {
        "item": {
          "reference": "urn:uuid:6df8efd3-e264-4bfb-8e21-efe2708682d5"
        }
      }, {
        "item": {
          "reference": "urn:uuid:e009de1c-edbe-4647-a09f-3c656e209235"
        }
      }, {
        "item": {
          "reference": "urn:uuid:5064af8d-a2ac-4f96-9af3-9c155060374b"
        }
      }, {
        "item": {
          "reference": "urn:uuid:471cbe85-84bf-4e8e-9678-30fc7246f88a"
        }
      }, {
        "item": {
          "reference": "urn:uuid:eeee4295-19c4-4b91-a156-fe578fae73c1"
        }
      }, {
        "item": {
          "reference": "urn:uuid:21784d11-b33c-40ae-ae29-bf8d2365ff12"
        }
      }, {
        "item": {
          "reference": "urn:uuid:5a56c635-6e2e-42ae-bca7-05b306175ae1"
        }
      }, {
        "item": {
          "reference": "urn:uuid:52dd5550-ecdd-430d-8013-430d5b22c84a"
        }
      }, {
        "item": {
          "reference": "urn:uuid:4a2e805a-7a53-46f5-84a4-6a02f927a1c5"
        }
      }, {
        "item": {
          "reference": "urn:uuid:4ce57052-3d79-47e6-843a-b8efc92f2d55"
        }
      }, {
        "item": {
          "reference": "urn:uuid:6b324ae3-f95b-4917-8251-cbd53c26e148"
        }
      }, {
        "item": {
          "reference": "urn:uuid:03803b83-f78b-422b-87a8-ff3dccd771a4"
        }
      }, {
        "item": {
          "reference": "urn:uuid:d163701c-bcf6-4be6-9146-1bdc988afe0e"
        }
      }, {
        "item": {
          "reference": "urn:uuid:d6c133bd-86c9-4120-bd0a-ee44d09a2c6c"
        }
      }, {
        "item": {
          "reference": "urn:uuid:0369e2e5-89f3-411a-b656-bfed8e4262ae"
        }
      }, {
        "item": {
          "reference": "urn:uuid:50b9b254-856a-4497-883b-c4548d4a8cee"
        }
      }, {
        "item": {
          "reference": "urn:uuid:53cdeb6a-07bb-4199-b06c-3ad7b2c931fc"
        }
      }, {
        "item": {
          "reference": "urn:uuid:37bb2f66-8c1b-4325-860d-a7ea2a45c4e6"
        }
      }, {
        "item": {
          "reference": "urn:uuid:2eb06e9e-f0a4-4d0e-906c-0abba11d10fe"
        }
      }, {
        "item": {
          "reference": "urn:uuid:d96cdefd-9504-4997-b8e7-c2a6e94d8f8b"
        }
      }, {
        "item": {
          "reference": "urn:uuid:2c11fc92-27c3-4b6c-ba7c-c6b20f25b1a1"
        }
      }, {
        "item": {
          "reference": "urn:uuid:ef4f008f-9827-4ff5-be70-0edea665a112"
        }
      }, {
        "item": {
          "reference": "urn:uuid:c8019a9c-a5ef-42e2-80ac-6c395792d831"
        }
      }, {
        "item": {
          "reference": "urn:uuid:7a16fed7-9129-4602-bbb5-7c0b4b7b5043"
        }
      }, {
        "item": {
          "reference": "urn:uuid:6a9a14c0-bf0f-4407-954e-3e6dd493d12b"
        }
      }, {
        "item": {
          "reference": "urn:uuid:06635846-a212-49a8-93fb-2911ff96b5f9"
        }
      }, {
        "item": {
          "reference": "urn:uuid:528b4bdb-56bd-40b1-bea7-805b441259ed"
        }
      }, {
        "item": {
          "reference": "urn:uuid:f1a6aa4e-a327-4650-a641-84fe38bdc66d"
        }
      }, {
        "item": {
          "reference": "urn:uuid:60556eb1-6544-4bf6-aeb4-402b9a169c20"
        }
      }, {
        "item": {
          "reference": "urn:uuid:33424d15-6cc6-4b23-8403-92afdf9bd160"
        }
      }, {
        "item": {
          "reference": "urn:uuid:36f5f52f-daeb-4150-a4b8-29fab9eab8ec"
        }
      }, {
        "item": {
          "reference": "urn:uuid:faf9fdff-4eea-4fd2-8a5e-d868a6f6795d"
        }
      }, {
        "item": {
          "reference": "urn:uuid:ab770b9a-aa32-47bf-8ae3-b3ec3f815dc4"
        }
      }, {
        "item": {
          "reference": "urn:uuid:44a4d29e-4047-4ce5-9e35-9a48bcc56441"
        }
      }, {
        "item": {
          "reference": "urn:uuid:aa14db75-0b8a-4076-8a2c-9e18c75a0de0"
        }
      }, {
        "item": {
          "reference": "urn:uuid:c7ba7999-4569-43c1-9fe8-6e6328dd51c4"
        }
      }, {
        "item": {
          "reference": "urn:uuid:44c499e7-899c-47e0-9437-8ce6767ec772"
        }
      }, {
        "item": {
          "reference": "urn:uuid:97532097-0b37-45b4-b384-d8cba85116e3"
        }
      }, {
        "item": {
          "reference": "urn:uuid:c3738a4d-db48-49cb-ad82-aad25a534c91"
        }
      }, {
        "item": {
          "reference": "urn:uuid:3afc38ac-ffcb-4f11-8f0d-044c17a28270"
        }
      }, {
        "item": {
          "reference": "urn:uuid:7f0dd54a-355f-437d-9dad-35e5d65443df"
        }
      }, {
        "item": {
          "reference": "urn:uuid:2a709291-cc40-41fb-a3ef-e6ac2aa6f5eb"
        }
      }, {
        "item": {
          "reference": "urn:uuid:c836d30d-270f-4bbb-95ae-1003f7d34e7e"
        }
      }, {
        "item": {
          "reference": "urn:uuid:0e743f17-1a38-42d2-9afd-13a972220a6d"
        }
      }, {
        "item": {
          "reference": "urn:uuid:d3319697-a041-42c1-8ae5-3a40afd5bf56"
        }
      }, {
        "item": {
          "reference": "urn:uuid:979f3d53-18de-4733-bdb0-40d506ef89b0"
        }
      }, {
        "item": {
          "reference": "urn:uuid:9efcf2b6-83b8-47c4-b03c-7d0b7b45ce6d"
        }
      }, {
        "item": {
          "reference": "urn:uuid:72aad04d-f27b-4a6d-8d7d-1f1aef82de9c"
        }
      }, {
        "item": {
          "reference": "urn:uuid:265f7d9f-fda8-41e7-8e31-b2e0b9141f20"
        }
      }, {
        "item": {
          "reference": "urn:uuid:a09fa45b-c29a-4ac6-82e3-38943399fec9"
        }
      }, {
        "item": {
          "reference": "urn:uuid:f42ff7aa-efac-4386-8127-37600d1942b8"
        }
      }, {
        "item": {
          "reference": "urn:uuid:6633aafa-1af8-4ef8-98a5-bfc9b8c4ec22"
        }
      }, {
        "item": {
          "reference": "urn:uuid:b52ca5bc-3b2f-4108-aa86-5a841cacb5be"
        }
      }, {
        "item": {
          "reference": "urn:uuid:13cad67a-5e79-43a4-b03b-3fddcb6352cf"
        }
      }, {
        "item": {
          "reference": "urn:uuid:3c83847a-f45f-42c2-8c07-054192c05321"
        }
      }, {
        "item": {
          "reference": "urn:uuid:f9d9d59a-a489-40bf-a1ef-aecc08a27100"
        }
      }, {
        "item": {
          "reference": "urn:uuid:57bdf9da-f31f-411d-b74f-582b94d42124"
        }
      }, {
        "item": {
          "reference": "urn:uuid:35c77523-bb84-435e-a413-ea89858730e7"
        }
      } ]
    }
  } ]
}