{
  "resourceType": "Bundle",
  "identifier": {
    "type": {
      "text": "ClinicalDocument VersionNumber"
    },
    "value": "1"
  },
  "type": "message",
  "entry": [ {
    "fullUrl": "urn:uuid:2F182787-CA39-46F8-9B1C-8E77F3050067",
    "resource": {
      "resourceType": "MessageHeader",
      "id": "2F182787-CA39-46F8-9B1C-8E77F3050067",
      "event": {
        "system": "https://fhir.nhs.uk/STU3/CodeSystem/EventType-1",
        "code": "referral-1",
        "display": "Referral"
      },
      "destination": [ {
        "endpoint": "urn:nhs-uk:addressing:ods:FDH68RPX:DOSServiceID:2000038407"
      } ],
      "timestamp": "2021-04-06T11:29:27.000+00:00",
      "source": {
        "name": "NHS 111 Adaptor",
        "endpoint": "http://localhost:8080/report"
      },
      "reason": {
        "coding": [ {
          "system": "urn:nhs-itk:ns:201005:interaction",
          "code": "urn:nhs-itk:interaction:primaryOutofHourRecipientNHS111CDADocument-v2-0"
        } ]
      }
    }
  }, {
    "fullUrl": "urn:uuid:1fbaa6fc-3e41-44db-93c7-cdf9e387d5db",
    "resource": {
      "resourceType": "Encounter",
      "id": "1fbaa6fc-3e41-44db-93c7-cdf9e387d5db",
      "identifier": [ {
        "system": "2.16.840.1.113883.2.1.3.2.4.18.34",
        "value": "CAC4BF79-AF64-47E2-8162-53438279E2F9"
      }, {
        "system": "2.16.840.1.113883.2.1.3.2.4.18.35",
        "value": "59263"
      }, {
        "system": "2.16.840.1.113883.2.1.3.2.4.18.49",
        "value": "CAC4BF79-AF64-47E2-8162-53438279E2F9"
      } ],
      "status": "finished",
      "type": [ {
        "text": "111 Encounter Referral"
      } ],
      "subject": {
        "reference": "urn:uuid:0f2c910d-1f5b-4fe9-97c7-a06371af4265"
      },
      "participant": [ {
        "type": [ {
          "coding": [ {
            "system": "http://hl7.org/fhir/ValueSet/encounter-participant-type",
            "code": "PPRF",
            "display": "Author"
          } ]
        } ],
        "individual": {
          "reference": "urn:uuid:5af9d5c7-f7b1-4948-99c8-b0c2688a0331"
        }
      }, {
        "type": [ {
          "text": "Informant"
        } ],
        "individual": {
          "reference": "urn:uuid:5c06f1b9-0c8a-42c8-8ae7-b0269eea4d8f"
        }
      }, {
        "type": [ {
          "coding": [ {
            "system": "http://hl7.org/fhir/ValueSet/encounter-participant-type",
            "code": "ATND",
            "display": "Responsible Party"
          } ]
        } ],
        "individual": {
          "reference": "urn:uuid:a1d0e7c5-2b7c-4fb7-9272-1ccec6f61a30"
        }
      } ],
      "period": {
        "start": "2021-04-06T11:29:27+00:00"
      },
      "location": [ {
        "location": {
          "reference": "urn:uuid:9a1ba560-46be-4c8c-a942-85b8745a77d5"
        },
        "status": "completed"
      } ],
      "serviceProvider": {
        "reference": "urn:uuid:4cbadf02-a30e-441d-8927-ab45dda85a0f"
      }
    }
  }, {
    "fullUrl": "urn:uuid:4cbadf02-a30e-441d-8927-ab45dda85a0f",
    "resource": {
      "resourceType": "Organization",
      "id": "4cbadf02-a30e-441d-8927-ab45dda85a0f",
      "active": true,
      "type": [ {
        "text": "CST"
      } ],
      "name": "SCAS111"
    }
  }, {
    "fullUrl": "urn:uuid:5af9d5c7-f7b1-4948-99c8-b0c2688a0331",
    "resource": {
      "resourceType": "Practitioner",
      "id": "5af9d5c7-f7b1-4948-99c8-b0c2688a0331",
      "active": true,
      "name": [ {
        "use": "official",
        "family": "Hadfield",
        "given": [ "Ryan" ]
      } ]
    }
  }, {
    "fullUrl": "urn:uuid:5c06f1b9-0c8a-42c8-8ae7-b0269eea4d8f",
    "resource": {
      "resourceType": "RelatedPerson",
      "id": "5c06f1b9-0c8a-42c8-8ae7-b0269eea4d8f",
      "active": true,
      "patient": {
        "reference": "urn:uuid:0f2c910d-1f5b-4fe9-97c7-a06371af4265"
      },
      "relationship": {
        "coding": [ {
          "system": "2.16.840.1.113883.2.1.3.2.4.16.45",
          "code": "99",
          "display": "Not specified"
        } ]
      },
      "name": [ {
        "text": "Test Caller (Carer - Home)"
      } ],
      "telecom": [ {
        "system": "phone",
        "value": "tel:07777888888",
        "use": "home"
      } ],
      "gender": "unknown"
    }
  }, {
    "fullUrl": "urn:uuid:a1d0e7c5-2b7c-4fb7-9272-1ccec6f61a30",
    "resource": {
      "resourceType": "Practitioner",
      "id": "a1d0e7c5-2b7c-4fb7-9272-1ccec6f61a30",
      "active": true,
      "name": [ {
        "use": "official",
        "family": "Black",
        "given": [ "John" ]
      } ]
    }
  }, {
    "fullUrl": "urn:uuid:9a1ba560-46be-4c8c-a942-85b8745a77d5",
    "resource": {
      "resourceType": "Location",
      "id": "9a1ba560-46be-4c8c-a942-85b8745a77d5",
      "name": "Incident Location",
      "address": {
        "type": "physical",
        "line": [ "12A", "Otter Close", "Bishopstoke", "Eastleigh", "Hampshire" ],
        "postalCode": "SO50 8NF"
      }
    }
  }, {
    "fullUrl": "urn:uuid:0f2c910d-1f5b-4fe9-97c7-a06371af4265",
    "resource": {
      "resourceType": "Patient",
      "id": "0f2c910d-1f5b-4fe9-97c7-a06371af4265",
      "identifier": [ {
        "extension": [ {
          "url": "https://fhir.hl7.org.uk/STU3/StructureDefinition/Extension-CareConnect-NHSNumberVerificationStatus-1",
          "valueCodeableConcept": {
            "coding": [ {
              "system": "https://fhir.hl7.org.uk/STU3/StructureDefinition/Extension-CareConnect-NHSNumberVerificationStatus-1",
              "code": "02"
            } ]
          }
        } ],
        "system": "https://fhir.nhs.uk/Id/nhs-number",
        "value": "0000000000"
      } ],
      "active": true,
      "name": [ {
        "use": "official",
        "family": "Testone",
        "given": [ "Test" ]
      } ],
      "telecom": [ {
        "system": "phone",
        "value": "tel:000000000000",
        "use": "home"
      }, {
        "system": "phone",
        "value": "tel:01111111111",
        "use": "mobile"
      }, {
        "system": "phone",
        "value": "tel:000000000000"
      } ],
      "gender": "female",
      "birthDate": "1980-01-01",
      "address": [ {
        "use": "home",
        "line": [ "Southern House", "Sparrowgrove", "Otterbourne", "Winchester", "Hampshire" ],
        "postalCode": "SO21 2RU"
      }, {
        "type": "physical",
        "line": [ "12A", "Otter Close", "Bishopstoke", "Eastleigh", "Hampshire" ],
        "postalCode": "SO50 8NF"
      } ]
    }
  }, {
    "fullUrl": "urn:uuid:92963a7f-2dc1-4259-a2ce-869f2c3853f4",
    "resource": {
      "resourceType": "HealthcareService",
      "id": "92963a7f-2dc1-4259-a2ce-869f2c3853f4",
      "active": true,
      "providedBy": {
        "reference": "urn:uuid:e7e41e09-2332-408a-9203-5db021b90e4f"
      },
      "location": [ {
        "reference": "urn:uuid:b6a12c05-1003-4445-b651-a3f101b015b2"
      } ],
      "name": "Lloyds Pharmacy, Stokewood Close, Fair Oak, Eastleigh"
    }
  }, {
    "fullUrl": "urn:uuid:b6a12c05-1003-4445-b651-a3f101b015b2",
    "resource": {
      "resourceType": "Location",
      "id": "b6a12c05-1003-4445-b651-a3f101b015b2",
      "managingOrganization": {
        "reference": "urn:uuid:e7e41e09-2332-408a-9203-5db021b90e4f"
      }
    }
  }, {
    "fullUrl": "urn:uuid:e7e41e09-2332-408a-9203-5db021b90e4f",
    "resource": {
      "resourceType": "Organization",
      "id": "e7e41e09-2332-408a-9203-5db021b90e4f",
      "identifier": [ {
        "value": "FDH68RPX"
      } ],
      "type": [ {
        "coding": [ {
          "code": "PRCP",
          "display": "Lloyds Pharmacy, Stokewood Close, Fair Oak, Eastleigh"
        } ]
      } ],
      "name": "Lloyds Pharmacy, Stokewood Close, Fair Oak, Eastleigh"
    }
  }, {
    "fullUrl": "urn:uuid:1d514346-9cf9-4e57-8678-23f77b06c997",
    "resource": {
      "resourceType": "ReferralRequest",
      "id": "1d514346-9cf9-4e57-8678-23f77b06c997",
      "status": "active",
      "intent": "plan",
      "priority": "routine",
      "subject": {
        "reference": "urn:uuid:0f2c910d-1f5b-4fe9-97c7-a06371af4265"
      },
      "context": {
        "reference": "urn:uuid:1fbaa6fc-3e41-44db-93c7-cdf9e387d5db"
      },
      "occurrencePeriod": {
        "start": "2022-04-07T07:52:14+00:00",
        "end": "2022-04-07T08:52:14+00:00"
      },
      "authoredOn": "2021-04-06T11:29:25+00:00",
      "requester": {
        "agent": {
          "reference": "urn:uuid:15fb9c0e-7216-4054-86c6-e76dd601233d"
        },
        "onBehalfOf": {
          "reference": "urn:uuid:4cbadf02-a30e-441d-8927-ab45dda85a0f"
        }
      },
      "recipient": [ {
        "reference": "urn:uuid:92963a7f-2dc1-4259-a2ce-869f2c3853f4"
      } ],
      "reasonReference": [ {
        "reference": "urn:uuid:86783f47-9214-4a81-aed1-377a80459fae"
      } ],
      "supportingInfo": [ {
        "reference": "urn:uuid:3e90c20b-ad24-470c-b56f-0857d3f06190"
      } ]
    }
  }, {
    "fullUrl": "urn:uuid:3e90c20b-ad24-470c-b56f-0857d3f06190",
    "resource": {
      "resourceType": "ProcedureRequest",
      "id": "3e90c20b-ad24-470c-b56f-0857d3f06190",
      "status": "active",
      "intent": "plan",
      "priority": "routine",
      "doNotPerform": false,
      "code": {
        "coding": [ {
          "system": "2.16.840.1.113883.2.1.3.2.4.17.325",
          "code": "Dx86",
          "display": "Repeat Prescription required within 12 hours"
        } ]
      },
      "subject": {
        "reference": "urn:uuid:0f2c910d-1f5b-4fe9-97c7-a06371af4265"
      },
      "occurrencePeriod": {
        "start": "2022-04-07T07:52:14+00:00",
        "end": "2022-04-07T08:52:14+00:00"
      },
      "reasonReference": [ {
        "reference": "urn:uuid:86783f47-9214-4a81-aed1-377a80459fae"
      } ]
    }
  }, {
    "fullUrl": "urn:uuid:52e9c311-caac-45e9-b5bd-1267c5bbf37f",
    "resource": {
      "resourceType": "Composition",
      "id": "52e9c311-caac-45e9-b5bd-1267c5bbf37f",
      "identifier": {
        "use": "usual",
        "value": "B66502CD-A9B4-4F3E-83EB-981F572C2C91"
      },
      "status": "final",
      "type": {
        "coding": [ {
          "system": "http://snomed.info/sct",
          "code": "371531000",
          "display": "Report of clinical encounter (record artifact)"
        } ]
      },
      "subject": {
        "reference": "urn:uuid:0f2c910d-1f5b-4fe9-97c7-a06371af4265"
      },
      "encounter": {
        "reference": "urn:uuid:1fbaa6fc-3e41-44db-93c7-cdf9e387d5db"
      },
      "date": "2022-04-07T07:52:14+00:00",
      "author": [ {
        "reference": "urn:uuid:5af9d5c7-f7b1-4948-99c8-b0c2688a0331"
      } ],
      "title": "111 Report",
      "confidentiality": "N",
      "section": [ {
        "section": [ {
          "title": "Patient's Reported Condition",
          "text": {
            "status": "generated",
            "div": "<div xmlns=\"http://www.w3.org/1999/xhtml\">&lt;content&gt;test&lt;/content&gt;\n                                                    &lt;br/&gt;</div>"
          }
        }, {
          "title": "Pathways Disposition",
          "text": {
            "status": "generated",
            "div": "<div xmlns=\"http://www.w3.org/1999/xhtml\">Repeat Prescription required within 12 hours (Dx86)                                         &lt;br/&gt;\n                                                    &lt;br/&gt;                                         Selected service: Lloyds Pharmacy, Stokewood Close, Fair Oak, Eastle&lt;br/&gt;</div>"
          }
        }, {
          "title": "Consultation Summary",
          "text": {
            "status": "generated",
            "div": "<div xmlns=\"http://www.w3.org/1999/xhtml\">Prescription request&lt;br/&gt;Not enough medication until surgery opens&lt;br/&gt;No medication available&lt;br/&gt;Next dose due within next 12 hours&lt;br/&gt;</div>"
          }
        }, {
          "title": "Pathways Assessment",
          "text": {
            "status": "generated",
            "div": "<div xmlns=\"http://www.w3.org/1999/xhtml\">Reason for call menu - continued to next list.&lt;br/&gt;A prescription request was the main reason for the contact.&lt;br/&gt;The main reason for the contact was not a new or worsening illness.&lt;br/&gt;The individual did not have enough medication to last until the surgery next opened.&lt;br/&gt;The medication was suitable for repeat prescribing without further consultation.&lt;br/&gt;The individual had no medication available.&lt;br/&gt;The next dose was due within 12 hours.&lt;br/&gt;Instructions given were: The individual needs a repeat prescription.&lt;br/&gt;Directory of Services referral: Lloyds Pharmacy, Stokewood Close, Fair Oak, Eastleigh&lt;br/&gt;</div>"
          }
        }, {
          "title": "Advice Given",
          "text": {
            "status": "generated",
            "div": "<div xmlns=\"http://www.w3.org/1999/xhtml\">IF THE RECOMMENDED TIMEFRAME FALLS OUTSIDE OPENING HOURS: I will arrange for a clinician to speak to the individual.&lt;br/&gt;\n                                                    &lt;br/&gt;</div>"
          }
        }, {
          "title": "Information And Advice Given"
        }, {
          "title": "Disposition",
          "text": {
            "status": "generated",
            "div": "<div xmlns=\"http://www.w3.org/1999/xhtml\">&lt;content&gt;Repeat Prescription required within 12 hours&lt;br/&gt;\n                                                    &lt;/content&gt;\n                                                    &lt;br/&gt;\n                                                    &lt;br/&gt;</div>"
          }
        } ]
      }, {
        "title": "CarePlan",
        "entry": [ {
          "reference": "urn:uuid:f0a56385-adad-40b2-a6b8-1e55dbcdbdf3"
        } ]
      }, {
        "title": "ReferralRequest",
        "entry": [ {
          "reference": "urn:uuid:1d514346-9cf9-4e57-8678-23f77b06c997"
        } ]
      }, {
        "title": "QuestionnaireResponse",
        "entry": [ {
          "reference": "urn:uuid:9e1a9ee5-9221-4700-a127-fd4bf987b6f3"
        } ]
      }, {
        "title": "QuestionnaireResponse",
        "entry": [ {
          "reference": "urn:uuid:eab58f2b-4e54-4eeb-a4f0-140f81edf758"
        } ]
      }, {
        "title": "QuestionnaireResponse",
        "entry": [ {
          "reference": "urn:uuid:0f632e8b-d919-4c68-a6eb-fd20f8bc52b3"
        } ]
      }, {
        "title": "QuestionnaireResponse",
        "entry": [ {
          "reference": "urn:uuid:a143998a-4a1d-4cef-96e1-5d1f83c50645"
        } ]
      }, {
        "title": "QuestionnaireResponse",
        "entry": [ {
          "reference": "urn:uuid:861effc6-95ae-4e13-a479-47e7af04d5bf"
        } ]
      }, {
        "title": "QuestionnaireResponse",
        "entry": [ {
          "reference": "urn:uuid:1d847df5-a165-4db1-9ee5-004b79820667"
        } ]
      }, {
        "title": "QuestionnaireResponse",
        "entry": [ {
          "reference": "urn:uuid:976f20dd-3028-40d6-9c08-cffe04f73ea3"
        } ]
      }, {
        "title": "QuestionnaireResponse",
        "entry": [ {
          "reference": "urn:uuid:8846c82d-1a4a-45a3-a870-7baab4bfab21"
        } ]
      }, {
        "title": "QuestionnaireResponse",
        "entry": [ {
          "reference": "urn:uuid:9d1980e0-174a-4f07-bb10-236a28923785"
        } ]
      }, {
        "title": "QuestionnaireResponse",
        "entry": [ {
          "reference": "urn:uuid:c1eeb92f-e088-4e41-aadd-8b075068695e"
        } ]
      }, {
        "title": "QuestionnaireResponse",
        "entry": [ {
          "reference": "urn:uuid:7682ea5e-e7f6-420b-942c-7b25d7b52473"
        } ]
      }, {
        "title": "QuestionnaireResponse",
        "entry": [ {
          "reference": "urn:uuid:05ef1fb5-6d56-4656-bd8e-0980ad6fde8b"
        } ]
      }, {
        "title": "QuestionnaireResponse",
        "entry": [ {
          "reference": "urn:uuid:8e44e8c4-2a4d-4059-91c1-e8877a939aee"
        } ]
      }, {
        "title": "QuestionnaireResponse",
        "entry": [ {
          "reference": "urn:uuid:65e767c8-f2d7-4bf3-9711-2b22125e95b4"
        } ]
      }, {
        "title": "QuestionnaireResponse",
        "entry": [ {
          "reference": "urn:uuid:1c90bff7-e342-4d90-9f6d-e097d26b95e0"
        } ]
      }, {
        "title": "QuestionnaireResponse",
        "entry": [ {
          "reference": "urn:uuid:abb6cba3-7fbc-40a3-98f6-3ec3384b6d37"
        } ]
      }, {
        "title": "QuestionnaireResponse",
        "entry": [ {
          "reference": "urn:uuid:ddae921b-b5da-47b2-a92f-6ef5696274b7"
        } ]
      }, {
        "title": "QuestionnaireResponse",
        "entry": [ {
          "reference": "urn:uuid:6ee3d2da-7ef1-4da6-b396-83f3ac97da45"
        } ]
      }, {
        "title": "QuestionnaireResponse",
        "entry": [ {
          "reference": "urn:uuid:5eaabbb5-0794-4519-a0b4-ced245e25f63"
        } ]
      }, {
        "title": "QuestionnaireResponse",
        "entry": [ {
          "reference": "urn:uuid:96e311a0-ac8b-4535-b169-c1a2b8376c34"
        } ]
      }, {
        "title": "QuestionnaireResponse",
        "entry": [ {
          "reference": "urn:uuid:af587217-e631-40d1-9a72-cb6083011a02"
        } ]
      }, {
        "title": "QuestionnaireResponse",
        "entry": [ {
          "reference": "urn:uuid:5e678a70-292a-45f5-94f0-0c45a21658a0"
        } ]
      }, {
        "title": "QuestionnaireResponse",
        "entry": [ {
          "reference": "urn:uuid:d5f01427-bf33-4cb6-8673-e4e0915c944d"
        } ]
      }, {
        "title": "QuestionnaireResponse",
        "entry": [ {
          "reference": "urn:uuid:efada9e8-ad33-49c8-a4d2-61452671d18e"
        } ]
      }, {
        "title": "QuestionnaireResponse",
        "entry": [ {
          "reference": "urn:uuid:15bc7e40-19e6-423c-b76a-590f5d1e7dde"
        } ]
      }, {
        "title": "QuestionnaireResponse",
        "entry": [ {
          "reference": "urn:uuid:15c8195e-79d0-4d70-80c1-faccdf3d228a"
        } ]
      }, {
        "title": "QuestionnaireResponse",
        "entry": [ {
          "reference": "urn:uuid:976b786b-c186-4fde-93b4-ee19002317f1"
        } ]
      }, {
        "title": "QuestionnaireResponse",
        "entry": [ {
          "reference": "urn:uuid:ef7ffa20-6292-4726-a250-a599bbb95dc5"
        } ]
      }, {
        "title": "QuestionnaireResponse",
        "entry": [ {
          "reference": "urn:uuid:6943c130-f7db-4c44-b217-8ae086196643"
        } ]
      }, {
        "title": "QuestionnaireResponse",
        "entry": [ {
          "reference": "urn:uuid:4be8120d-1386-4879-ac16-53484708af64"
        } ]
      }, {
        "title": "QuestionnaireResponse",
        "entry": [ {
          "reference": "urn:uuid:545be7e3-c329-444e-b360-f18690ab9627"
        } ]
      }, {
        "title": "QuestionnaireResponse",
        "entry": [ {
          "reference": "urn:uuid:3f1a5890-4833-4da2-99f2-233394a34204"
        } ]
      }, {
        "title": "QuestionnaireResponse",
        "entry": [ {
          "reference": "urn:uuid:b5d5859b-da49-4639-be46-9d37b9973f06"
        } ]
      }, {
        "title": "QuestionnaireResponse",
        "entry": [ {
          "reference": "urn:uuid:9e99278f-fa21-4ae4-84f4-658ce0f94e9a"
        } ]
      }, {
        "title": "QuestionnaireResponse",
        "entry": [ {
          "reference": "urn:uuid:661c25e4-62dc-483e-bf55-b6ed3616cca5"
        } ]
      }, {
        "title": "QuestionnaireResponse",
        "entry": [ {
          "reference": "urn:uuid:9f9ec9f3-e61f-4db8-b24d-1932773afb9d"
        } ]
      }, {
        "title": "QuestionnaireResponse",
        "entry": [ {
          "reference": "urn:uuid:34d93e55-9052-43b9-a0eb-0e7c85647ba8"
        } ]
      }, {
        "title": "QuestionnaireResponse",
        "entry": [ {
          "reference": "urn:uuid:a1677d1b-5c48-40da-b338-77f980e4e370"
        } ]
      }, {
        "title": "QuestionnaireResponse",
        "entry": [ {
          "reference": "urn:uuid:0b72c601-22b7-4abc-bb50-5eed702e050e"
        } ]
      }, {
        "title": "QuestionnaireResponse",
        "entry": [ {
          "reference": "urn:uuid:93db21b9-928a-4ba4-b822-0c8848b6afed"
        } ]
      }, {
        "title": "QuestionnaireResponse",
        "entry": [ {
          "reference": "urn:uuid:3e0b242d-c9a5-42c8-a54e-2d719b646516"
        } ]
      }, {
        "title": "QuestionnaireResponse",
        "entry": [ {
          "reference": "urn:uuid:de0412d4-5e39-4ad9-bebc-0bb1cb3a1643"
        } ]
      }, {
        "title": "QuestionnaireResponse",
        "entry": [ {
          "reference": "urn:uuid:79c75dc6-e125-451b-8115-928b00004962"
        } ]
      }, {
        "title": "QuestionnaireResponse",
        "entry": [ {
          "reference": "urn:uuid:f8373895-9ddd-4655-bad0-3a348f47ab0c"
        } ]
      }, {
        "title": "QuestionnaireResponse",
        "entry": [ {
          "reference": "urn:uuid:91dabed0-c2b6-4c79-b169-9670724351ae"
        } ]
      }, {
        "title": "QuestionnaireResponse",
        "entry": [ {
          "reference": "urn:uuid:335c7550-7c72-4e30-8db8-0455ce25e4a2"
        } ]
      }, {
        "title": "QuestionnaireResponse",
        "entry": [ {
          "reference": "urn:uuid:7d54221e-8752-42e9-bacc-bd65463ef731"
        } ]
      }, {
        "title": "QuestionnaireResponse",
        "entry": [ {
          "reference": "urn:uuid:ac70fd10-b4cf-4ebe-bd3d-b2d4d0a2857b"
        } ]
      }, {
        "title": "QuestionnaireResponse",
        "entry": [ {
          "reference": "urn:uuid:d1470a97-e9d9-4dc3-a2b8-406ffed401bd"
        } ]
      }, {
        "title": "QuestionnaireResponse",
        "entry": [ {
          "reference": "urn:uuid:707291be-4118-420c-ab9e-8382c8bcfbc2"
        } ]
      }, {
        "title": "QuestionnaireResponse",
        "entry": [ {
          "reference": "urn:uuid:362c8854-aeea-4654-8054-4ade92704aa2"
        } ]
      }, {
        "title": "QuestionnaireResponse",
        "entry": [ {
          "reference": "urn:uuid:ab07fd61-740e-4ce4-bc7f-1c00fcb8f183"
        } ]
      }, {
        "title": "QuestionnaireResponse",
        "entry": [ {
          "reference": "urn:uuid:d85a974b-a709-49a9-af53-697f07af1d4b"
        } ]
      }, {
        "title": "QuestionnaireResponse",
        "entry": [ {
          "reference": "urn:uuid:6318e8a5-29a8-40ab-98f3-e7c40a2f542a"
        } ]
      }, {
        "title": "QuestionnaireResponse",
        "entry": [ {
          "reference": "urn:uuid:1da96e69-d4d6-4986-9e88-ab6a2ea7e92f"
        } ]
      }, {
        "title": "QuestionnaireResponse",
        "entry": [ {
          "reference": "urn:uuid:2d657918-0bcd-42e5-9fe3-a5ff7d34e99f"
        } ]
      }, {
        "title": "QuestionnaireResponse",
        "entry": [ {
          "reference": "urn:uuid:98bb42f8-0f3b-4d80-98e4-c24ad70d723f"
        } ]
      }, {
        "title": "QuestionnaireResponse",
        "entry": [ {
          "reference": "urn:uuid:7d041b1d-c8fc-4673-93f9-82c31ba262cd"
        } ]
      }, {
        "title": "QuestionnaireResponse",
        "entry": [ {
          "reference": "urn:uuid:16540d38-efb0-4449-b7b9-0db1ed9bea98"
        } ]
      }, {
        "title": "QuestionnaireResponse",
        "entry": [ {
          "reference": "urn:uuid:dbdca931-ae2c-4b34-84ec-22677ef1f061"
        } ]
      }, {
        "title": "QuestionnaireResponse",
        "entry": [ {
          "reference": "urn:uuid:1d2bbed5-1f18-4133-a47d-5e5d6f998614"
        } ]
      } ]
    }
  }, {
    "fullUrl": "urn:uuid:f0a56385-adad-40b2-a6b8-1e55dbcdbdf3",
    "resource": {
      "resourceType": "CarePlan",
      "id": "f0a56385-adad-40b2-a6b8-1e55dbcdbdf3",
      "status": "completed",
      "intent": "plan",
      "title": "Information And Advice Given",
      "subject": {
        "reference": "urn:uuid:0f2c910d-1f5b-4fe9-97c7-a06371af4265"
      },
      "context": {
        "reference": "urn:uuid:1fbaa6fc-3e41-44db-93c7-cdf9e387d5db"
      },
      "period": {
        "start": "2021-04-06T11:29:27+00:00"
      },
      "addresses": [ {
        "reference": "urn:uuid:86783f47-9214-4a81-aed1-377a80459fae"
      } ]
    }
  }, {
    "fullUrl": "urn:uuid:80888eb3-3bb7-4971-ac42-aaca59e129d3",
    "resource": {
      "resourceType": "Consent",
      "id": "80888eb3-3bb7-4971-ac42-aaca59e129d3",
      "identifier": {
        "use": "usual",
        "value": "B66502CD-A9B4-4F3E-83EB-981F572C2C91"
      },
      "status": "active",
      "patient": {
        "reference": "urn:uuid:0f2c910d-1f5b-4fe9-97c7-a06371af4265"
      },
      "period": {
        "start": "2021-04-06T11:29:27+00:00"
      },
      "consentingParty": [ {
        "reference": "urn:uuid:0f2c910d-1f5b-4fe9-97c7-a06371af4265"
      } ],
      "action": [ {
        "coding": [ {
          "system": "http://snomed.info/sct",
          "code": "425691002",
          "display": "Consent given for electronic record sharing"
        } ],
        "text": "Consent given for electronic record sharing"
      } ],
      "organization": [ {
        "reference": "urn:uuid:4cbadf02-a30e-441d-8927-ab45dda85a0f"
      } ],
      "policyRule": "http://hl7.org/fhir/ConsentPolicy/opt-out",
      "data": [ {
        "meaning": "related",
        "reference": {
          "reference": "urn:uuid:1fbaa6fc-3e41-44db-93c7-cdf9e387d5db"
        }
      } ]
    }
  }, {
    "fullUrl": "urn:uuid:86783f47-9214-4a81-aed1-377a80459fae",
    "resource": {
      "resourceType": "Condition",
      "id": "86783f47-9214-4a81-aed1-377a80459fae",
      "clinicalStatus": "active",
      "verificationStatus": "unknown",
      "subject": {
        "reference": "urn:uuid:0f2c910d-1f5b-4fe9-97c7-a06371af4265"
      },
      "context": {
        "reference": "urn:uuid:1fbaa6fc-3e41-44db-93c7-cdf9e387d5db"
      },
      "evidence": [ {
        "detail": [ {
          "reference": "urn:uuid:9e1a9ee5-9221-4700-a127-fd4bf987b6f3"
        } ]
      }, {
        "detail": [ {
          "reference": "urn:uuid:eab58f2b-4e54-4eeb-a4f0-140f81edf758"
        } ]
      }, {
        "detail": [ {
          "reference": "urn:uuid:0f632e8b-d919-4c68-a6eb-fd20f8bc52b3"
        } ]
      }, {
        "detail": [ {
          "reference": "urn:uuid:a143998a-4a1d-4cef-96e1-5d1f83c50645"
        } ]
      }, {
        "detail": [ {
          "reference": "urn:uuid:861effc6-95ae-4e13-a479-47e7af04d5bf"
        } ]
      }, {
        "detail": [ {
          "reference": "urn:uuid:1d847df5-a165-4db1-9ee5-004b79820667"
        } ]
      }, {
        "detail": [ {
          "reference": "urn:uuid:976f20dd-3028-40d6-9c08-cffe04f73ea3"
        } ]
      }, {
        "detail": [ {
          "reference": "urn:uuid:8846c82d-1a4a-45a3-a870-7baab4bfab21"
        } ]
      }, {
        "detail": [ {
          "reference": "urn:uuid:9d1980e0-174a-4f07-bb10-236a28923785"
        } ]
      }, {
        "detail": [ {
          "reference": "urn:uuid:c1eeb92f-e088-4e41-aadd-8b075068695e"
        } ]
      }, {
        "detail": [ {
          "reference": "urn:uuid:7682ea5e-e7f6-420b-942c-7b25d7b52473"
        } ]
      }, {
        "detail": [ {
          "reference": "urn:uuid:05ef1fb5-6d56-4656-bd8e-0980ad6fde8b"
        } ]
      }, {
        "detail": [ {
          "reference": "urn:uuid:8e44e8c4-2a4d-4059-91c1-e8877a939aee"
        } ]
      }, {
        "detail": [ {
          "reference": "urn:uuid:65e767c8-f2d7-4bf3-9711-2b22125e95b4"
        } ]
      }, {
        "detail": [ {
          "reference": "urn:uuid:1c90bff7-e342-4d90-9f6d-e097d26b95e0"
        } ]
      }, {
        "detail": [ {
          "reference": "urn:uuid:abb6cba3-7fbc-40a3-98f6-3ec3384b6d37"
        } ]
      }, {
        "detail": [ {
          "reference": "urn:uuid:ddae921b-b5da-47b2-a92f-6ef5696274b7"
        } ]
      }, {
        "detail": [ {
          "reference": "urn:uuid:6ee3d2da-7ef1-4da6-b396-83f3ac97da45"
        } ]
      }, {
        "detail": [ {
          "reference": "urn:uuid:5eaabbb5-0794-4519-a0b4-ced245e25f63"
        } ]
      }, {
        "detail": [ {
          "reference": "urn:uuid:96e311a0-ac8b-4535-b169-c1a2b8376c34"
        } ]
      }, {
        "detail": [ {
          "reference": "urn:uuid:af587217-e631-40d1-9a72-cb6083011a02"
        } ]
      }, {
        "detail": [ {
          "reference": "urn:uuid:5e678a70-292a-45f5-94f0-0c45a21658a0"
        } ]
      }, {
        "detail": [ {
          "reference": "urn:uuid:d5f01427-bf33-4cb6-8673-e4e0915c944d"
        } ]
      }, {
        "detail": [ {
          "reference": "urn:uuid:efada9e8-ad33-49c8-a4d2-61452671d18e"
        } ]
      }, {
        "detail": [ {
          "reference": "urn:uuid:15bc7e40-19e6-423c-b76a-590f5d1e7dde"
        } ]
      }, {
        "detail": [ {
          "reference": "urn:uuid:15c8195e-79d0-4d70-80c1-faccdf3d228a"
        } ]
      }, {
        "detail": [ {
          "reference": "urn:uuid:976b786b-c186-4fde-93b4-ee19002317f1"
        } ]
      }, {
        "detail": [ {
          "reference": "urn:uuid:ef7ffa20-6292-4726-a250-a599bbb95dc5"
        } ]
      }, {
        "detail": [ {
          "reference": "urn:uuid:6943c130-f7db-4c44-b217-8ae086196643"
        } ]
      }, {
        "detail": [ {
          "reference": "urn:uuid:4be8120d-1386-4879-ac16-53484708af64"
        } ]
      }, {
        "detail": [ {
          "reference": "urn:uuid:545be7e3-c329-444e-b360-f18690ab9627"
        } ]
      }, {
        "detail": [ {
          "reference": "urn:uuid:3f1a5890-4833-4da2-99f2-233394a34204"
        } ]
      }, {
        "detail": [ {
          "reference": "urn:uuid:b5d5859b-da49-4639-be46-9d37b9973f06"
        } ]
      }, {
        "detail": [ {
          "reference": "urn:uuid:9e99278f-fa21-4ae4-84f4-658ce0f94e9a"
        } ]
      }, {
        "detail": [ {
          "reference": "urn:uuid:661c25e4-62dc-483e-bf55-b6ed3616cca5"
        } ]
      }, {
        "detail": [ {
          "reference": "urn:uuid:9f9ec9f3-e61f-4db8-b24d-1932773afb9d"
        } ]
      }, {
        "detail": [ {
          "reference": "urn:uuid:34d93e55-9052-43b9-a0eb-0e7c85647ba8"
        } ]
      }, {
        "detail": [ {
          "reference": "urn:uuid:a1677d1b-5c48-40da-b338-77f980e4e370"
        } ]
      }, {
        "detail": [ {
          "reference": "urn:uuid:0b72c601-22b7-4abc-bb50-5eed702e050e"
        } ]
      }, {
        "detail": [ {
          "reference": "urn:uuid:93db21b9-928a-4ba4-b822-0c8848b6afed"
        } ]
      }, {
        "detail": [ {
          "reference": "urn:uuid:3e0b242d-c9a5-42c8-a54e-2d719b646516"
        } ]
      }, {
        "detail": [ {
          "reference": "urn:uuid:de0412d4-5e39-4ad9-bebc-0bb1cb3a1643"
        } ]
      }, {
        "detail": [ {
          "reference": "urn:uuid:79c75dc6-e125-451b-8115-928b00004962"
        } ]
      }, {
        "detail": [ {
          "reference": "urn:uuid:f8373895-9ddd-4655-bad0-3a348f47ab0c"
        } ]
      }, {
        "detail": [ {
          "reference": "urn:uuid:91dabed0-c2b6-4c79-b169-9670724351ae"
        } ]
      }, {
        "detail": [ {
          "reference": "urn:uuid:335c7550-7c72-4e30-8db8-0455ce25e4a2"
        } ]
      }, {
        "detail": [ {
          "reference": "urn:uuid:7d54221e-8752-42e9-bacc-bd65463ef731"
        } ]
      }, {
        "detail": [ {
          "reference": "urn:uuid:ac70fd10-b4cf-4ebe-bd3d-b2d4d0a2857b"
        } ]
      }, {
        "detail": [ {
          "reference": "urn:uuid:d1470a97-e9d9-4dc3-a2b8-406ffed401bd"
        } ]
      }, {
        "detail": [ {
          "reference": "urn:uuid:707291be-4118-420c-ab9e-8382c8bcfbc2"
        } ]
      }, {
        "detail": [ {
          "reference": "urn:uuid:362c8854-aeea-4654-8054-4ade92704aa2"
        } ]
      }, {
        "detail": [ {
          "reference": "urn:uuid:ab07fd61-740e-4ce4-bc7f-1c00fcb8f183"
        } ]
      }, {
        "detail": [ {
          "reference": "urn:uuid:d85a974b-a709-49a9-af53-697f07af1d4b"
        } ]
      }, {
        "detail": [ {
          "reference": "urn:uuid:6318e8a5-29a8-40ab-98f3-e7c40a2f542a"
        } ]
      }, {
        "detail": [ {
          "reference": "urn:uuid:1da96e69-d4d6-4986-9e88-ab6a2ea7e92f"
        } ]
      }, {
        "detail": [ {
          "reference": "urn:uuid:2d657918-0bcd-42e5-9fe3-a5ff7d34e99f"
        } ]
      }, {
        "detail": [ {
          "reference": "urn:uuid:98bb42f8-0f3b-4d80-98e4-c24ad70d723f"
        } ]
      }, {
        "detail": [ {
          "reference": "urn:uuid:7d041b1d-c8fc-4673-93f9-82c31ba262cd"
        } ]
      }, {
        "detail": [ {
          "reference": "urn:uuid:16540d38-efb0-4449-b7b9-0db1ed9bea98"
        } ]
      }, {
        "detail": [ {
          "reference": "urn:uuid:dbdca931-ae2c-4b34-84ec-22677ef1f061"
        } ]
      }, {
        "detail": [ {
          "reference": "urn:uuid:1d2bbed5-1f18-4133-a47d-5e5d6f998614"
        } ]
      } ]
    }
  }, {
    "fullUrl": "urn:uuid:9e1a9ee5-9221-4700-a127-fd4bf987b6f3",
    "resource": {
      "resourceType": "QuestionnaireResponse",
      "id": "9e1a9ee5-9221-4700-a127-fd4bf987b6f3",
      "identifier": {
        "value": "59263"
      },
      "questionnaire": {
        "reference": "urn:uuid:57d705ed-0544-4c6d-bf21-50356756da98"
      },
      "status": "completed",
      "subject": {
        "reference": "urn:uuid:0f2c910d-1f5b-4fe9-97c7-a06371af4265"
      },
      "context": {
        "reference": "urn:uuid:1fbaa6fc-3e41-44db-93c7-cdf9e387d5db"
      },
      "authored": "2021-04-06T11:29:26+00:00",
      "item": [ {
        "linkId": "Tx220074",
        "text": "What is the reason for the contact?",
        "answer": [ {
          "valueString": "an injury or other health problem"
        } ]
      } ]
    }
  }, {
    "fullUrl": "urn:uuid:57d705ed-0544-4c6d-bf21-50356756da98",
    "resource": {
      "resourceType": "Questionnaire",
      "id": "57d705ed-0544-4c6d-bf21-50356756da98",
      "identifier": [ {
        "value": "59263"
      } ],
      "version": "2021-04-06T11:29:26.887Z",
      "status": "active",
      "experimental": false,
      "date": "2021-04-06T11:29:26+00:00",
      "publisher": "User ID: 'HADFIELDR' User name: 'Ryan Hadfield' User skill set: 'T3'",
      "lastReviewDate": "2021-04-06",
      "contact": [ {
        "telecom": [ {
          "system": "phone",
          "value": "07777 888888"
        } ]
      } ],
      "subjectType": [ "Patient" ],
      "item": [ {
        "linkId": "59263",
        "prefix": "5",
        "text": "What is the reason for the contact?",
        "type": "choice",
        "required": true,
        "repeats": false,
        "option": [ {
          "valueString": "an injury or other health problem, Selected: true"
        }, {
          "valueString": "labour or childbirth, Selected: false"
        }, {
          "valueString": "a need to access another healthcare service, Selected: false"
        }, {
          "valueString": "a healthcare professional requesting contact with another clinician, Selected: false"
        }, {
          "valueString": "a report of results or tests, Selected: false"
        }, {
          "valueString": "a possible failure of contraception, Selected: false"
        }, {
          "valueString": "more, Selected: false"
        } ]
      } ]
    }
  }, {
    "fullUrl": "urn:uuid:eab58f2b-4e54-4eeb-a4f0-140f81edf758",
    "resource": {
      "resourceType": "QuestionnaireResponse",
      "id": "eab58f2b-4e54-4eeb-a4f0-140f81edf758",
      "identifier": {
        "value": "59263"
      },
      "questionnaire": {
        "reference": "urn:uuid:be70e32a-aac5-4bbe-8970-d196eaa6f7c5"
      },
      "status": "completed",
      "subject": {
        "reference": "urn:uuid:0f2c910d-1f5b-4fe9-97c7-a06371af4265"
      },
      "context": {
        "reference": "urn:uuid:1fbaa6fc-3e41-44db-93c7-cdf9e387d5db"
      },
      "authored": "2021-04-06T11:29:26+00:00",
      "item": [ {
        "linkId": "Tx221807",
        "text": "STRING:to'Immediatethreatstolife(SPA/OOHversion)'-'Majorbloodloss'stem",
        "answer": [ {
          "valueString": "\"present\""
        } ]
      } ]
    }
  }, {
    "fullUrl": "urn:uuid:be70e32a-aac5-4bbe-8970-d196eaa6f7c5",
    "resource": {
      "resourceType": "Questionnaire",
      "id": "be70e32a-aac5-4bbe-8970-d196eaa6f7c5",
      "identifier": [ {
        "value": "59263"
      } ],
      "version": "2021-04-06T11:29:26.887Z",
      "status": "active",
      "experimental": false,
      "date": "2021-04-06T11:29:26+00:00",
      "publisher": "User ID: 'HADFIELDR' User name: 'Ryan Hadfield' User skill set: 'T3'",
      "lastReviewDate": "2021-04-06",
      "contact": [ {
        "telecom": [ {
          "system": "phone",
          "value": "07777 888888"
        } ]
      } ],
      "subjectType": [ "Patient" ],
      "item": [ {
        "linkId": "59263",
        "prefix": "200",
        "text": "STRING:to'Immediatethreatstolife(SPA/OOHversion)'-'Majorbloodloss'stem",
        "type": "choice",
        "required": true,
        "repeats": false,
        "option": [ {
          "valueString": "\"present\", Selected: true"
        } ]
      } ]
    }
  }, {
    "fullUrl": "urn:uuid:0f632e8b-d919-4c68-a6eb-fd20f8bc52b3",
    "resource": {
      "resourceType": "QuestionnaireResponse",
      "id": "0f632e8b-d919-4c68-a6eb-fd20f8bc52b3",
      "identifier": {
        "value": "59263"
      },
      "questionnaire": {
        "reference": "urn:uuid:47a59d1a-41b6-4817-b92f-33737be6b1ec"
      },
      "status": "completed",
      "subject": {
        "reference": "urn:uuid:0f2c910d-1f5b-4fe9-97c7-a06371af4265"
      },
      "context": {
        "reference": "urn:uuid:1fbaa6fc-3e41-44db-93c7-cdf9e387d5db"
      },
      "authored": "2021-04-06T11:29:26+00:00"
    }
  }, {
    "fullUrl": "urn:uuid:47a59d1a-41b6-4817-b92f-33737be6b1ec",
    "resource": {
      "resourceType": "Questionnaire",
      "id": "47a59d1a-41b6-4817-b92f-33737be6b1ec",
      "identifier": [ {
        "value": "59263"
      } ],
      "version": "2021-04-06T11:29:26.887Z",
      "status": "active",
      "experimental": false,
      "date": "2021-04-06T11:29:26+00:00",
      "publisher": "User ID: 'HADFIELDR' User name: 'Ryan Hadfield' User skill set: 'T3'",
      "lastReviewDate": "2021-04-06",
      "contact": [ {
        "telecom": [ {
          "system": "phone",
          "value": "07777 888888"
        } ]
      } ],
      "subjectType": [ "Patient" ]
    }
  }, {
    "fullUrl": "urn:uuid:a143998a-4a1d-4cef-96e1-5d1f83c50645",
    "resource": {
      "resourceType": "QuestionnaireResponse",
      "id": "a143998a-4a1d-4cef-96e1-5d1f83c50645",
      "identifier": {
        "value": "59263"
      },
      "questionnaire": {
        "reference": "urn:uuid:eead9233-bf96-4bfe-827a-22fd29bf07c9"
      },
      "status": "completed",
      "subject": {
        "reference": "urn:uuid:0f2c910d-1f5b-4fe9-97c7-a06371af4265"
      },
      "context": {
        "reference": "urn:uuid:1fbaa6fc-3e41-44db-93c7-cdf9e387d5db"
      },
      "authored": "2021-04-06T11:29:26+00:00",
      "item": [ {
        "linkId": "Tx221799",
        "text": "STRING:injury,illnessorlabourestablishedinEntryFlow",
        "answer": [ {
          "valueString": "\"present\""
        } ]
      } ]
    }
  }, {
    "fullUrl": "urn:uuid:eead9233-bf96-4bfe-827a-22fd29bf07c9",
    "resource": {
      "resourceType": "Questionnaire",
      "id": "eead9233-bf96-4bfe-827a-22fd29bf07c9",
      "identifier": [ {
        "value": "59263"
      } ],
      "version": "2021-04-06T11:29:26.887Z",
      "status": "active",
      "experimental": false,
      "date": "2021-04-06T11:29:26+00:00",
      "publisher": "User ID: 'HADFIELDR' User name: 'Ryan Hadfield' User skill set: 'T3'",
      "lastReviewDate": "2021-04-06",
      "contact": [ {
        "telecom": [ {
          "system": "phone",
          "value": "07777 888888"
        } ]
      } ],
      "subjectType": [ "Patient" ],
      "item": [ {
        "linkId": "59263",
        "prefix": "0",
        "text": "STRING:injury,illnessorlabourestablishedinEntryFlow",
        "type": "choice",
        "required": true,
        "repeats": false,
        "option": [ {
          "valueString": "\"present\", Selected: true"
        } ]
      } ]
    }
  }, {
    "fullUrl": "urn:uuid:861effc6-95ae-4e13-a479-47e7af04d5bf",
    "resource": {
      "resourceType": "QuestionnaireResponse",
      "id": "861effc6-95ae-4e13-a479-47e7af04d5bf",
      "identifier": {
        "value": "59263"
      },
      "questionnaire": {
        "reference": "urn:uuid:4b88e453-7f78-44be-9f84-6077152024bd"
      },
      "status": "completed",
      "subject": {
        "reference": "urn:uuid:0f2c910d-1f5b-4fe9-97c7-a06371af4265"
      },
      "context": {
        "reference": "urn:uuid:1fbaa6fc-3e41-44db-93c7-cdf9e387d5db"
      },
      "authored": "2021-04-06T11:29:26+00:00",
      "item": [ {
        "linkId": "Tx224120",
        "text": "Have you been bleeding RED BLOOD very heavily IN THE LAST 2 HOURS?"
      } ]
    }
  }, {
    "fullUrl": "urn:uuid:4b88e453-7f78-44be-9f84-6077152024bd",
    "resource": {
      "resourceType": "Questionnaire",
      "id": "4b88e453-7f78-44be-9f84-6077152024bd",
      "identifier": [ {
        "value": "59263"
      } ],
      "version": "2021-04-06T11:29:26.887Z",
      "status": "active",
      "experimental": false,
      "date": "2021-04-06T11:29:26+00:00",
      "publisher": "User ID: 'HADFIELDR' User name: 'Ryan Hadfield' User skill set: 'T3'",
      "lastReviewDate": "2021-04-06",
      "contact": [ {
        "telecom": [ {
          "system": "phone",
          "value": "07777 888888"
        } ]
      } ],
      "subjectType": [ "Patient" ],
      "item": [ {
        "linkId": "59263",
        "prefix": "10100",
        "text": "Have you been bleeding RED BLOOD very heavily IN THE LAST 2 HOURS?",
        "type": "choice",
        "required": true,
        "repeats": false,
        "option": [ {
          "valueString": "yes, Selected: false"
        }, {
          "valueString": "not sure, Selected: false"
        }, {
          "valueString": "no, Selected: false"
        } ]
      } ]
    }
  }, {
    "fullUrl": "urn:uuid:1d847df5-a165-4db1-9ee5-004b79820667",
    "resource": {
      "resourceType": "QuestionnaireResponse",
      "id": "1d847df5-a165-4db1-9ee5-004b79820667",
      "identifier": {
        "value": "59263"
      },
      "questionnaire": {
        "reference": "urn:uuid:1ca039af-76fe-4815-a09a-f83ed1e76ee3"
      },
      "status": "completed",
      "subject": {
        "reference": "urn:uuid:0f2c910d-1f5b-4fe9-97c7-a06371af4265"
      },
      "context": {
        "reference": "urn:uuid:1fbaa6fc-3e41-44db-93c7-cdf9e387d5db"
      },
      "authored": "2021-04-06T11:29:26+00:00",
      "item": [ {
        "linkId": "Tx220074",
        "text": "What is the reason for the contact?",
        "answer": [ {
          "valueString": "more"
        } ]
      } ]
    }
  }, {
    "fullUrl": "urn:uuid:1ca039af-76fe-4815-a09a-f83ed1e76ee3",
    "resource": {
      "resourceType": "Questionnaire",
      "id": "1ca039af-76fe-4815-a09a-f83ed1e76ee3",
      "identifier": [ {
        "value": "59263"
      } ],
      "version": "2021-04-06T11:29:26.887Z",
      "status": "active",
      "experimental": false,
      "date": "2021-04-06T11:29:26+00:00",
      "publisher": "User ID: 'HADFIELDR' User name: 'Ryan Hadfield' User skill set: 'T3'",
      "lastReviewDate": "2021-04-06",
      "contact": [ {
        "telecom": [ {
          "system": "phone",
          "value": "07777 888888"
        } ]
      } ],
      "subjectType": [ "Patient" ],
      "item": [ {
        "linkId": "59263",
        "prefix": "5",
        "text": "What is the reason for the contact?",
        "type": "choice",
        "required": true,
        "repeats": false,
        "option": [ {
          "valueString": "an injury or other health problem, Selected: false"
        }, {
          "valueString": "labour or childbirth, Selected: false"
        }, {
          "valueString": "a need to access another healthcare service, Selected: false"
        }, {
          "valueString": "a healthcare professional requesting contact with another clinician, Selected: false"
        }, {
          "valueString": "a report of results or tests, Selected: false"
        }, {
          "valueString": "a possible failure of contraception, Selected: false"
        }, {
          "valueString": "more, Selected: true"
        } ]
      } ]
    }
  }, {
    "fullUrl": "urn:uuid:976f20dd-3028-40d6-9c08-cffe04f73ea3",
    "resource": {
      "resourceType": "QuestionnaireResponse",
      "id": "976f20dd-3028-40d6-9c08-cffe04f73ea3",
      "identifier": {
        "value": "59263"
      },
      "questionnaire": {
        "reference": "urn:uuid:5316009f-52e1-481f-b0c5-7104024cc7d1"
      },
      "status": "completed",
      "subject": {
        "reference": "urn:uuid:0f2c910d-1f5b-4fe9-97c7-a06371af4265"
      },
      "context": {
        "reference": "urn:uuid:1fbaa6fc-3e41-44db-93c7-cdf9e387d5db"
      },
      "authored": "2021-04-06T11:29:26+00:00",
      "item": [ {
        "linkId": "Tx221793",
        "text": "STRING:to'Social&information'-further'Callreason'menu",
        "answer": [ {
          "valueString": "\"present\""
        } ]
      } ]
    }
  }, {
    "fullUrl": "urn:uuid:5316009f-52e1-481f-b0c5-7104024cc7d1",
    "resource": {
      "resourceType": "Questionnaire",
      "id": "5316009f-52e1-481f-b0c5-7104024cc7d1",
      "identifier": [ {
        "value": "59263"
      } ],
      "version": "2021-04-06T11:29:26.887Z",
      "status": "active",
      "experimental": false,
      "date": "2021-04-06T11:29:26+00:00",
      "publisher": "User ID: 'HADFIELDR' User name: 'Ryan Hadfield' User skill set: 'T3'",
      "lastReviewDate": "2021-04-06",
      "contact": [ {
        "telecom": [ {
          "system": "phone",
          "value": "07777 888888"
        } ]
      } ],
      "subjectType": [ "Patient" ],
      "item": [ {
        "linkId": "59263",
        "prefix": "600",
        "text": "STRING:to'Social&information'-further'Callreason'menu",
        "type": "choice",
        "required": true,
        "repeats": false,
        "option": [ {
          "valueString": "\"present\", Selected: true"
        } ]
      } ]
    }
  }, {
    "fullUrl": "urn:uuid:8846c82d-1a4a-45a3-a870-7baab4bfab21",
    "resource": {
      "resourceType": "QuestionnaireResponse",
      "id": "8846c82d-1a4a-45a3-a870-7baab4bfab21",
      "identifier": {
        "value": "59263"
      },
      "questionnaire": {
        "reference": "urn:uuid:cfbda41a-d439-41fa-b03e-079ed6bdc95d"
      },
      "status": "completed",
      "subject": {
        "reference": "urn:uuid:0f2c910d-1f5b-4fe9-97c7-a06371af4265"
      },
      "context": {
        "reference": "urn:uuid:1fbaa6fc-3e41-44db-93c7-cdf9e387d5db"
      },
      "authored": "2021-04-06T11:29:26+00:00"
    }
  }, {
    "fullUrl": "urn:uuid:cfbda41a-d439-41fa-b03e-079ed6bdc95d",
    "resource": {
      "resourceType": "Questionnaire",
      "id": "cfbda41a-d439-41fa-b03e-079ed6bdc95d",
      "identifier": [ {
        "value": "59263"
      } ],
      "version": "2021-04-06T11:29:26.887Z",
      "status": "active",
      "experimental": false,
      "date": "2021-04-06T11:29:26+00:00",
      "publisher": "User ID: 'HADFIELDR' User name: 'Ryan Hadfield' User skill set: 'T3'",
      "lastReviewDate": "2021-04-06",
      "contact": [ {
        "telecom": [ {
          "system": "phone",
          "value": "07777 888888"
        } ]
      } ],
      "subjectType": [ "Patient" ]
    }
  }, {
    "fullUrl": "urn:uuid:9d1980e0-174a-4f07-bb10-236a28923785",
    "resource": {
      "resourceType": "QuestionnaireResponse",
      "id": "9d1980e0-174a-4f07-bb10-236a28923785",
      "identifier": {
        "value": "59263"
      },
      "questionnaire": {
        "reference": "urn:uuid:5fa851c3-1e41-4f9f-9cb1-c10aef298f77"
      },
      "status": "completed",
      "subject": {
        "reference": "urn:uuid:0f2c910d-1f5b-4fe9-97c7-a06371af4265"
      },
      "context": {
        "reference": "urn:uuid:1fbaa6fc-3e41-44db-93c7-cdf9e387d5db"
      },
      "authored": "2021-04-06T11:29:26+00:00",
      "item": [ {
        "linkId": "Tx221804",
        "text": "STRING:transfertofurthermenuquestionestablishedinEntryFlow",
        "answer": [ {
          "valueString": "\"present\""
        } ]
      } ]
    }
  }, {
    "fullUrl": "urn:uuid:5fa851c3-1e41-4f9f-9cb1-c10aef298f77",
    "resource": {
      "resourceType": "Questionnaire",
      "id": "5fa851c3-1e41-4f9f-9cb1-c10aef298f77",
      "identifier": [ {
        "value": "59263"
      } ],
      "version": "2021-04-06T11:29:26.887Z",
      "status": "active",
      "experimental": false,
      "date": "2021-04-06T11:29:26+00:00",
      "publisher": "User ID: 'HADFIELDR' User name: 'Ryan Hadfield' User skill set: 'T3'",
      "lastReviewDate": "2021-04-06",
      "contact": [ {
        "telecom": [ {
          "system": "phone",
          "value": "07777 888888"
        } ]
      } ],
      "subjectType": [ "Patient" ],
      "item": [ {
        "linkId": "59263",
        "prefix": "41",
        "text": "STRING:transfertofurthermenuquestionestablishedinEntryFlow",
        "type": "choice",
        "required": true,
        "repeats": false,
        "option": [ {
          "valueString": "\"present\", Selected: true"
        } ]
      } ]
    }
  }, {
    "fullUrl": "urn:uuid:c1eeb92f-e088-4e41-aadd-8b075068695e",
    "resource": {
      "resourceType": "QuestionnaireResponse",
      "id": "c1eeb92f-e088-4e41-aadd-8b075068695e",
      "identifier": {
        "value": "59263"
      },
      "questionnaire": {
        "reference": "urn:uuid:2aed6116-271c-4b2c-9169-01e01a545d36"
      },
      "status": "completed",
      "subject": {
        "reference": "urn:uuid:0f2c910d-1f5b-4fe9-97c7-a06371af4265"
      },
      "context": {
        "reference": "urn:uuid:1fbaa6fc-3e41-44db-93c7-cdf9e387d5db"
      },
      "authored": "2021-04-06T11:29:26+00:00",
      "item": [ {
        "linkId": "Tx224998",
        "text": "SYSTEM_COVIDLEVEL2",
        "answer": [ {
          "valueString": "==\"covidlevel2\""
        } ]
      } ]
    }
  }, {
    "fullUrl": "urn:uuid:2aed6116-271c-4b2c-9169-01e01a545d36",
    "resource": {
      "resourceType": "Questionnaire",
      "id": "2aed6116-271c-4b2c-9169-01e01a545d36",
      "identifier": [ {
        "value": "59263"
      } ],
      "version": "2021-04-06T11:29:26.887Z",
      "status": "active",
      "experimental": false,
      "date": "2021-04-06T11:29:26+00:00",
      "publisher": "User ID: 'HADFIELDR' User name: 'Ryan Hadfield' User skill set: 'T3'",
      "lastReviewDate": "2021-04-06",
      "contact": [ {
        "telecom": [ {
          "system": "phone",
          "value": "07777 888888"
        } ]
      } ],
      "subjectType": [ "Patient" ],
      "item": [ {
        "linkId": "59263",
        "prefix": "5900",
        "text": "SYSTEM_COVIDLEVEL2",
        "type": "choice",
        "required": true,
        "repeats": false,
        "option": [ {
          "valueString": "==\"covidlevel2\", Selected: true"
        }, {
          "valueString": "*, Selected: false"
        } ]
      } ]
    }
  }, {
    "fullUrl": "urn:uuid:7682ea5e-e7f6-420b-942c-7b25d7b52473",
    "resource": {
      "resourceType": "QuestionnaireResponse",
      "id": "7682ea5e-e7f6-420b-942c-7b25d7b52473",
      "identifier": {
        "value": "59263"
      },
      "questionnaire": {
        "reference": "urn:uuid:4c39ed96-638e-4275-848e-9d6b8774ca76"
      },
      "status": "completed",
      "subject": {
        "reference": "urn:uuid:0f2c910d-1f5b-4fe9-97c7-a06371af4265"
      },
      "context": {
        "reference": "urn:uuid:1fbaa6fc-3e41-44db-93c7-cdf9e387d5db"
      },
      "authored": "2021-04-06T11:29:26+00:00",
      "item": [ {
        "linkId": "Tx225069",
        "text": "What is the reason for the contact?",
        "answer": [ {
          "valueString": "a prescription request"
        } ]
      } ]
    }
  }, {
    "fullUrl": "urn:uuid:4c39ed96-638e-4275-848e-9d6b8774ca76",
    "resource": {
      "resourceType": "Questionnaire",
      "id": "4c39ed96-638e-4275-848e-9d6b8774ca76",
      "identifier": [ {
        "value": "59263"
      } ],
      "version": "2021-04-06T11:29:26.887Z",
      "status": "active",
      "experimental": false,
      "date": "2021-04-06T11:29:26+00:00",
      "publisher": "User ID: 'HADFIELDR' User name: 'Ryan Hadfield' User skill set: 'T3'",
      "lastReviewDate": "2021-04-06",
      "contact": [ {
        "telecom": [ {
          "system": "phone",
          "value": "07777 888888"
        } ]
      } ],
      "subjectType": [ "Patient" ],
      "item": [ {
        "linkId": "59263",
        "prefix": "6000",
        "text": "What is the reason for the contact?",
        "type": "choice",
        "required": true,
        "repeats": false,
        "option": [ {
          "valueString": "a child protection/vulnerable adult concern (specify), Selected: false"
        }, {
          "valueString": "a social or domestic emergency, Selected: false"
        }, {
          "valueString": "a prescription request, Selected: true"
        }, {
          "valueString": "an appointment request, Selected: false"
        }, {
          "valueString": "a request for health or medication information, Selected: false"
        }, {
          "valueString": "public health alert information, Selected: false"
        } ]
      } ]
    }
  }, {
    "fullUrl": "urn:uuid:05ef1fb5-6d56-4656-bd8e-0980ad6fde8b",
    "resource": {
      "resourceType": "QuestionnaireResponse",
      "id": "05ef1fb5-6d56-4656-bd8e-0980ad6fde8b",
      "identifier": {
        "value": "59263"
      },
      "questionnaire": {
        "reference": "urn:uuid:1cb34fd1-1150-45e0-bd55-0ce6cc81e8ef"
      },
      "status": "completed",
      "subject": {
        "reference": "urn:uuid:0f2c910d-1f5b-4fe9-97c7-a06371af4265"
      },
      "context": {
        "reference": "urn:uuid:1fbaa6fc-3e41-44db-93c7-cdf9e387d5db"
      },
      "authored": "2021-04-06T11:29:26+00:00",
      "item": [ {
        "linkId": "Tx220957",
        "text": "Is this contact about a new or worsening illness?",
        "answer": [ {
          "valueString": "no"
        } ]
      } ]
    }
  }, {
    "fullUrl": "urn:uuid:1cb34fd1-1150-45e0-bd55-0ce6cc81e8ef",
    "resource": {
      "resourceType": "Questionnaire",
      "id": "1cb34fd1-1150-45e0-bd55-0ce6cc81e8ef",
      "identifier": [ {
        "value": "59263"
      } ],
      "version": "2021-04-06T11:29:26.887Z",
      "status": "active",
      "experimental": false,
      "date": "2021-04-06T11:29:26+00:00",
      "publisher": "User ID: 'HADFIELDR' User name: 'Ryan Hadfield' User skill set: 'T3'",
      "lastReviewDate": "2021-04-06",
      "contact": [ {
        "telecom": [ {
          "system": "phone",
          "value": "07777 888888"
        } ]
      } ],
      "subjectType": [ "Patient" ],
      "item": [ {
        "linkId": "59263",
        "prefix": "1400",
        "text": "Is this contact about a new or worsening illness?",
        "type": "choice",
        "required": true,
        "repeats": false,
        "option": [ {
          "valueString": "yes, Selected: false"
        }, {
          "valueString": "not sure, Selected: false"
        }, {
          "valueString": "no, Selected: true"
        } ]
      } ]
    }
  }, {
    "fullUrl": "urn:uuid:8e44e8c4-2a4d-4059-91c1-e8877a939aee",
    "resource": {
      "resourceType": "QuestionnaireResponse",
      "id": "8e44e8c4-2a4d-4059-91c1-e8877a939aee",
      "identifier": {
        "value": "59263"
      },
      "questionnaire": {
        "reference": "urn:uuid:52165a91-ef33-4197-8c03-5db5e6dea560"
      },
      "status": "completed",
      "subject": {
        "reference": "urn:uuid:0f2c910d-1f5b-4fe9-97c7-a06371af4265"
      },
      "context": {
        "reference": "urn:uuid:1fbaa6fc-3e41-44db-93c7-cdf9e387d5db"
      },
      "authored": "2021-04-06T11:29:26+00:00",
      "item": [ {
        "linkId": "Tx221352",
        "text": "Have you got enough medication to last until the surgery opens?",
        "answer": [ {
          "valueString": "no"
        } ]
      } ]
    }
  }, {
    "fullUrl": "urn:uuid:52165a91-ef33-4197-8c03-5db5e6dea560",
    "resource": {
      "resourceType": "Questionnaire",
      "id": "52165a91-ef33-4197-8c03-5db5e6dea560",
      "identifier": [ {
        "value": "59263"
      } ],
      "version": "2021-04-06T11:29:26.887Z",
      "status": "active",
      "experimental": false,
      "date": "2021-04-06T11:29:26+00:00",
      "publisher": "User ID: 'HADFIELDR' User name: 'Ryan Hadfield' User skill set: 'T3'",
      "lastReviewDate": "2021-04-06",
      "contact": [ {
        "telecom": [ {
          "system": "phone",
          "value": "07777 888888"
        } ]
      } ],
      "subjectType": [ "Patient" ],
      "item": [ {
        "linkId": "59263",
        "prefix": "1500",
        "text": "Have you got enough medication to last until the surgery opens?",
        "type": "choice",
        "required": true,
        "repeats": false,
        "option": [ {
          "valueString": "yes, Selected: false"
        }, {
          "valueString": "not sure, Selected: false"
        }, {
          "valueString": "no, Selected: true"
        } ]
      } ]
    }
  }, {
    "fullUrl": "urn:uuid:65e767c8-f2d7-4bf3-9711-2b22125e95b4",
    "resource": {
      "resourceType": "QuestionnaireResponse",
      "id": "65e767c8-f2d7-4bf3-9711-2b22125e95b4",
      "identifier": {
        "value": "59263"
      },
      "questionnaire": {
        "reference": "urn:uuid:5ba1b154-7623-44a5-8617-0c4d8646ba1f"
      },
      "status": "completed",
      "subject": {
        "reference": "urn:uuid:0f2c910d-1f5b-4fe9-97c7-a06371af4265"
      },
      "context": {
        "reference": "urn:uuid:1fbaa6fc-3e41-44db-93c7-cdf9e387d5db"
      },
      "authored": "2021-04-06T11:29:26+00:00"
    }
  }, {
    "fullUrl": "urn:uuid:5ba1b154-7623-44a5-8617-0c4d8646ba1f",
    "resource": {
      "resourceType": "Questionnaire",
      "id": "5ba1b154-7623-44a5-8617-0c4d8646ba1f",
      "identifier": [ {
        "value": "59263"
      } ],
      "version": "2021-04-06T11:29:26.887Z",
      "status": "active",
      "experimental": false,
      "date": "2021-04-06T11:29:26+00:00",
      "publisher": "User ID: 'HADFIELDR' User name: 'Ryan Hadfield' User skill set: 'T3'",
      "lastReviewDate": "2021-04-06",
      "contact": [ {
        "telecom": [ {
          "system": "phone",
          "value": "07777 888888"
        } ]
      } ],
      "subjectType": [ "Patient" ]
    }
  }, {
    "fullUrl": "urn:uuid:1c90bff7-e342-4d90-9f6d-e097d26b95e0",
    "resource": {
      "resourceType": "QuestionnaireResponse",
      "id": "1c90bff7-e342-4d90-9f6d-e097d26b95e0",
      "identifier": {
        "value": "59263"
      },
      "questionnaire": {
        "reference": "urn:uuid:6b816c2d-99b8-41d6-98dc-0501609f3337"
      },
      "status": "completed",
      "subject": {
        "reference": "urn:uuid:0f2c910d-1f5b-4fe9-97c7-a06371af4265"
      },
      "context": {
        "reference": "urn:uuid:1fbaa6fc-3e41-44db-93c7-cdf9e387d5db"
      },
      "authored": "2021-04-06T11:29:26+00:00",
      "item": [ {
        "linkId": "Tx224231",
        "text": "FROM WHAT YOU HAVE HEARD IS A CONSULTATION WITH A PRESCRIBER NEEDED?",
        "answer": [ {
          "valueString": "yes"
        } ]
      } ]
    }
  }, {
    "fullUrl": "urn:uuid:6b816c2d-99b8-41d6-98dc-0501609f3337",
    "resource": {
      "resourceType": "Questionnaire",
      "id": "6b816c2d-99b8-41d6-98dc-0501609f3337",
      "identifier": [ {
        "value": "59263"
      } ],
      "version": "2021-04-06T11:29:26.887Z",
      "status": "active",
      "experimental": false,
      "date": "2021-04-06T11:29:26+00:00",
      "publisher": "User ID: 'HADFIELDR' User name: 'Ryan Hadfield' User skill set: 'T3'",
      "lastReviewDate": "2021-04-06",
      "contact": [ {
        "telecom": [ {
          "system": "phone",
          "value": "07777 888888"
        } ]
      } ],
      "subjectType": [ "Patient" ],
      "item": [ {
        "linkId": "59263",
        "prefix": "0",
        "text": "FROM WHAT YOU HAVE HEARD IS A CONSULTATION WITH A PRESCRIBER NEEDED?",
        "type": "choice",
        "required": true,
        "repeats": false,
        "option": [ {
          "valueString": "yes, Selected: true"
        }, {
          "valueString": "not sure, Selected: false"
        }, {
          "valueString": "no, Selected: false"
        } ]
      } ]
    }
  }, {
    "fullUrl": "urn:uuid:abb6cba3-7fbc-40a3-98f6-3ec3384b6d37",
    "resource": {
      "resourceType": "QuestionnaireResponse",
      "id": "abb6cba3-7fbc-40a3-98f6-3ec3384b6d37",
      "identifier": {
        "value": "59263"
      },
      "questionnaire": {
        "reference": "urn:uuid:838220ad-74d3-4dd0-a085-99ea420a34e9"
      },
      "status": "completed",
      "subject": {
        "reference": "urn:uuid:0f2c910d-1f5b-4fe9-97c7-a06371af4265"
      },
      "context": {
        "reference": "urn:uuid:1fbaa6fc-3e41-44db-93c7-cdf9e387d5db"
      },
      "authored": "2021-04-06T11:29:26+00:00",
      "item": [ {
        "linkId": "Tx221367",
        "text": "When is the next dose due?",
        "answer": [ {
          "valueString": "within the next 12 hours"
        } ]
      } ]
    }
  }, {
    "fullUrl": "urn:uuid:838220ad-74d3-4dd0-a085-99ea420a34e9",
    "resource": {
      "resourceType": "Questionnaire",
      "id": "838220ad-74d3-4dd0-a085-99ea420a34e9",
      "identifier": [ {
        "value": "59263"
      } ],
      "version": "2021-04-06T11:29:26.887Z",
      "status": "active",
      "experimental": false,
      "date": "2021-04-06T11:29:26+00:00",
      "publisher": "User ID: 'HADFIELDR' User name: 'Ryan Hadfield' User skill set: 'T3'",
      "lastReviewDate": "2021-04-06",
      "contact": [ {
        "telecom": [ {
          "system": "phone",
          "value": "07777 888888"
        } ]
      } ],
      "subjectType": [ "Patient" ],
      "item": [ {
        "linkId": "59263",
        "prefix": "2900",
        "text": "When is the next dose due?",
        "type": "choice",
        "required": true,
        "repeats": false,
        "option": [ {
          "valueString": "within the next 2 hours, Selected: false"
        }, {
          "valueString": "within the next 6 hours, Selected: false"
        }, {
          "valueString": "within the next 12 hours, Selected: true"
        }, {
          "valueString": "over 12 hours time, Selected: false"
        }, {
          "valueString": "not sure, Selected: false"
        } ]
      } ]
    }
  }, {
    "fullUrl": "urn:uuid:ddae921b-b5da-47b2-a92f-6ef5696274b7",
    "resource": {
      "resourceType": "QuestionnaireResponse",
      "id": "ddae921b-b5da-47b2-a92f-6ef5696274b7",
      "identifier": {
        "value": "59263"
      },
      "questionnaire": {
        "reference": "urn:uuid:1fe75d78-45f7-47d6-b690-422875071c3c"
      },
      "status": "completed",
      "subject": {
        "reference": "urn:uuid:0f2c910d-1f5b-4fe9-97c7-a06371af4265"
      },
      "context": {
        "reference": "urn:uuid:1fbaa6fc-3e41-44db-93c7-cdf9e387d5db"
      },
      "authored": "2021-04-06T11:29:26+00:00",
      "item": [ {
        "linkId": "Tx221449",
        "text": "STRING:SDPCFullPrimaryCareassessmentandprescribingcapability",
        "answer": [ {
          "valueString": "\"PC full Primary Care assessment and prescribing capability\""
        } ]
      } ]
    }
  }, {
    "fullUrl": "urn:uuid:1fe75d78-45f7-47d6-b690-422875071c3c",
    "resource": {
      "resourceType": "Questionnaire",
      "id": "1fe75d78-45f7-47d6-b690-422875071c3c",
      "identifier": [ {
        "value": "59263"
      } ],
      "version": "2021-04-06T11:29:26.887Z",
      "status": "active",
      "experimental": false,
      "date": "2021-04-06T11:29:26+00:00",
      "publisher": "User ID: 'HADFIELDR' User name: 'Ryan Hadfield' User skill set: 'T3'",
      "lastReviewDate": "2021-04-06",
      "contact": [ {
        "telecom": [ {
          "system": "phone",
          "value": "07777 888888"
        } ]
      } ],
      "subjectType": [ "Patient" ],
      "item": [ {
        "linkId": "59263",
        "prefix": "3000",
        "text": "STRING:SDPCFullPrimaryCareassessmentandprescribingcapability",
        "type": "choice",
        "required": true,
        "repeats": false,
        "option": [ {
          "valueString": "\"PC full Primary Care assessment and prescribing capability\", Selected: true"
        } ]
      } ]
    }
  }, {
    "fullUrl": "urn:uuid:6ee3d2da-7ef1-4da6-b396-83f3ac97da45",
    "resource": {
      "resourceType": "QuestionnaireResponse",
      "id": "6ee3d2da-7ef1-4da6-b396-83f3ac97da45",
      "identifier": {
        "value": "59263"
      },
      "questionnaire": {
        "reference": "urn:uuid:84223605-225d-4d80-8a3f-2793442fab9e"
      },
      "status": "completed",
      "subject": {
        "reference": "urn:uuid:0f2c910d-1f5b-4fe9-97c7-a06371af4265"
      },
      "context": {
        "reference": "urn:uuid:1fbaa6fc-3e41-44db-93c7-cdf9e387d5db"
      },
      "authored": "2021-04-06T11:29:26+00:00"
    }
  }, {
    "fullUrl": "urn:uuid:84223605-225d-4d80-8a3f-2793442fab9e",
    "resource": {
      "resourceType": "Questionnaire",
      "id": "84223605-225d-4d80-8a3f-2793442fab9e",
      "identifier": [ {
        "value": "59263"
      } ],
      "version": "2021-04-06T11:29:26.887Z",
      "status": "active",
      "experimental": false,
      "date": "2021-04-06T11:29:26+00:00",
      "publisher": "User ID: 'HADFIELDR' User name: 'Ryan Hadfield' User skill set: 'T3'",
      "lastReviewDate": "2021-04-06",
      "contact": [ {
        "telecom": [ {
          "system": "phone",
          "value": "07777 888888"
        } ]
      } ],
      "subjectType": [ "Patient" ]
    }
  }, {
    "fullUrl": "urn:uuid:5eaabbb5-0794-4519-a0b4-ced245e25f63",
    "resource": {
      "resourceType": "QuestionnaireResponse",
      "id": "5eaabbb5-0794-4519-a0b4-ced245e25f63",
      "identifier": {
        "value": "59263"
      },
      "questionnaire": {
        "reference": "urn:uuid:9005b480-01cc-482a-b13e-a0d373516cae"
      },
      "status": "completed",
      "subject": {
        "reference": "urn:uuid:0f2c910d-1f5b-4fe9-97c7-a06371af4265"
      },
      "context": {
        "reference": "urn:uuid:1fbaa6fc-3e41-44db-93c7-cdf9e387d5db"
      },
      "authored": "2021-04-06T11:29:26+00:00",
      "item": [ {
        "linkId": "Tx220074",
        "text": "What is the reason for the contact?",
        "answer": [ {
          "valueString": "an injury or other health problem"
        } ]
      } ]
    }
  }, {
    "fullUrl": "urn:uuid:9005b480-01cc-482a-b13e-a0d373516cae",
    "resource": {
      "resourceType": "Questionnaire",
      "id": "9005b480-01cc-482a-b13e-a0d373516cae",
      "identifier": [ {
        "value": "59263"
      } ],
      "version": "2021-04-06T11:29:26.887Z",
      "status": "active",
      "experimental": false,
      "date": "2021-04-06T11:29:26+00:00",
      "publisher": "User ID: 'HADFIELDR' User name: 'Ryan Hadfield' User skill set: 'T3'",
      "lastReviewDate": "2021-04-06",
      "contact": [ {
        "telecom": [ {
          "system": "phone",
          "value": "07777 888888"
        } ]
      } ],
      "subjectType": [ "Patient" ],
      "item": [ {
        "linkId": "59263",
        "prefix": "5",
        "text": "What is the reason for the contact?",
        "type": "choice",
        "required": true,
        "repeats": false,
        "option": [ {
          "valueString": "an injury or other health problem, Selected: true"
        }, {
          "valueString": "labour or childbirth, Selected: false"
        }, {
          "valueString": "a need to access another healthcare service, Selected: false"
        }, {
          "valueString": "a healthcare professional requesting contact with another clinician, Selected: false"
        }, {
          "valueString": "a report of results or tests, Selected: false"
        }, {
          "valueString": "a possible failure of contraception, Selected: false"
        }, {
          "valueString": "more, Selected: false"
        } ]
      } ]
    }
  }, {
    "fullUrl": "urn:uuid:96e311a0-ac8b-4535-b169-c1a2b8376c34",
    "resource": {
      "resourceType": "QuestionnaireResponse",
      "id": "96e311a0-ac8b-4535-b169-c1a2b8376c34",
      "identifier": {
        "value": "59263"
      },
      "questionnaire": {
        "reference": "urn:uuid:1ae6e6d6-90f2-412f-9abb-c7f4faa77e21"
      },
      "status": "completed",
      "subject": {
        "reference": "urn:uuid:0f2c910d-1f5b-4fe9-97c7-a06371af4265"
      },
      "context": {
        "reference": "urn:uuid:1fbaa6fc-3e41-44db-93c7-cdf9e387d5db"
      },
      "authored": "2021-04-06T11:29:26+00:00",
      "item": [ {
        "linkId": "Tx221807",
        "text": "STRING:to'Immediatethreatstolife(SPA/OOHversion)'-'Majorbloodloss'stem",
        "answer": [ {
          "valueString": "\"present\""
        } ]
      } ]
    }
  }, {
    "fullUrl": "urn:uuid:1ae6e6d6-90f2-412f-9abb-c7f4faa77e21",
    "resource": {
      "resourceType": "Questionnaire",
      "id": "1ae6e6d6-90f2-412f-9abb-c7f4faa77e21",
      "identifier": [ {
        "value": "59263"
      } ],
      "version": "2021-04-06T11:29:26.887Z",
      "status": "active",
      "experimental": false,
      "date": "2021-04-06T11:29:26+00:00",
      "publisher": "User ID: 'HADFIELDR' User name: 'Ryan Hadfield' User skill set: 'T3'",
      "lastReviewDate": "2021-04-06",
      "contact": [ {
        "telecom": [ {
          "system": "phone",
          "value": "07777 888888"
        } ]
      } ],
      "subjectType": [ "Patient" ],
      "item": [ {
        "linkId": "59263",
        "prefix": "200",
        "text": "STRING:to'Immediatethreatstolife(SPA/OOHversion)'-'Majorbloodloss'stem",
        "type": "choice",
        "required": true,
        "repeats": false,
        "option": [ {
          "valueString": "\"present\", Selected: true"
        } ]
      } ]
    }
  }, {
    "fullUrl": "urn:uuid:af587217-e631-40d1-9a72-cb6083011a02",
    "resource": {
      "resourceType": "QuestionnaireResponse",
      "id": "af587217-e631-40d1-9a72-cb6083011a02",
      "identifier": {
        "value": "59263"
      },
      "questionnaire": {
        "reference": "urn:uuid:067c345d-addf-44c8-91a9-99e9c3e6d4e8"
      },
      "status": "completed",
      "subject": {
        "reference": "urn:uuid:0f2c910d-1f5b-4fe9-97c7-a06371af4265"
      },
      "context": {
        "reference": "urn:uuid:1fbaa6fc-3e41-44db-93c7-cdf9e387d5db"
      },
      "authored": "2021-04-06T11:29:26+00:00"
    }
  }, {
    "fullUrl": "urn:uuid:067c345d-addf-44c8-91a9-99e9c3e6d4e8",
    "resource": {
      "resourceType": "Questionnaire",
      "id": "067c345d-addf-44c8-91a9-99e9c3e6d4e8",
      "identifier": [ {
        "value": "59263"
      } ],
      "version": "2021-04-06T11:29:26.887Z",
      "status": "active",
      "experimental": false,
      "date": "2021-04-06T11:29:26+00:00",
      "publisher": "User ID: 'HADFIELDR' User name: 'Ryan Hadfield' User skill set: 'T3'",
      "lastReviewDate": "2021-04-06",
      "contact": [ {
        "telecom": [ {
          "system": "phone",
          "value": "07777 888888"
        } ]
      } ],
      "subjectType": [ "Patient" ]
    }
  }, {
    "fullUrl": "urn:uuid:5e678a70-292a-45f5-94f0-0c45a21658a0",
    "resource": {
      "resourceType": "QuestionnaireResponse",
      "id": "5e678a70-292a-45f5-94f0-0c45a21658a0",
      "identifier": {
        "value": "59263"
      },
      "questionnaire": {
        "reference": "urn:uuid:e3a6b281-a6c3-461a-8429-d417db795f00"
      },
      "status": "completed",
      "subject": {
        "reference": "urn:uuid:0f2c910d-1f5b-4fe9-97c7-a06371af4265"
      },
      "context": {
        "reference": "urn:uuid:1fbaa6fc-3e41-44db-93c7-cdf9e387d5db"
      },
      "authored": "2021-04-06T11:29:26+00:00",
      "item": [ {
        "linkId": "Tx221799",
        "text": "STRING:injury,illnessorlabourestablishedinEntryFlow",
        "answer": [ {
          "valueString": "\"present\""
        } ]
      } ]
    }
  }, {
    "fullUrl": "urn:uuid:e3a6b281-a6c3-461a-8429-d417db795f00",
    "resource": {
      "resourceType": "Questionnaire",
      "id": "e3a6b281-a6c3-461a-8429-d417db795f00",
      "identifier": [ {
        "value": "59263"
      } ],
      "version": "2021-04-06T11:29:26.887Z",
      "status": "active",
      "experimental": false,
      "date": "2021-04-06T11:29:26+00:00",
      "publisher": "User ID: 'HADFIELDR' User name: 'Ryan Hadfield' User skill set: 'T3'",
      "lastReviewDate": "2021-04-06",
      "contact": [ {
        "telecom": [ {
          "system": "phone",
          "value": "07777 888888"
        } ]
      } ],
      "subjectType": [ "Patient" ],
      "item": [ {
        "linkId": "59263",
        "prefix": "0",
        "text": "STRING:injury,illnessorlabourestablishedinEntryFlow",
        "type": "choice",
        "required": true,
        "repeats": false,
        "option": [ {
          "valueString": "\"present\", Selected: true"
        } ]
      } ]
    }
  }, {
    "fullUrl": "urn:uuid:d5f01427-bf33-4cb6-8673-e4e0915c944d",
    "resource": {
      "resourceType": "QuestionnaireResponse",
      "id": "d5f01427-bf33-4cb6-8673-e4e0915c944d",
      "identifier": {
        "value": "59263"
      },
      "questionnaire": {
        "reference": "urn:uuid:bfb2c62f-a5ef-4507-a2e8-f09472651655"
      },
      "status": "completed",
      "subject": {
        "reference": "urn:uuid:0f2c910d-1f5b-4fe9-97c7-a06371af4265"
      },
      "context": {
        "reference": "urn:uuid:1fbaa6fc-3e41-44db-93c7-cdf9e387d5db"
      },
      "authored": "2021-04-06T11:29:26+00:00",
      "item": [ {
        "linkId": "Tx224120",
        "text": "Have you been bleeding RED BLOOD very heavily IN THE LAST 2 HOURS?",
        "answer": [ {
          "valueString": "no"
        } ]
      } ]
    }
  }, {
    "fullUrl": "urn:uuid:bfb2c62f-a5ef-4507-a2e8-f09472651655",
    "resource": {
      "resourceType": "Questionnaire",
      "id": "bfb2c62f-a5ef-4507-a2e8-f09472651655",
      "identifier": [ {
        "value": "59263"
      } ],
      "version": "2021-04-06T11:29:26.887Z",
      "status": "active",
      "experimental": false,
      "date": "2021-04-06T11:29:26+00:00",
      "publisher": "User ID: 'HADFIELDR' User name: 'Ryan Hadfield' User skill set: 'T3'",
      "lastReviewDate": "2021-04-06",
      "contact": [ {
        "telecom": [ {
          "system": "phone",
          "value": "07777 888888"
        } ]
      } ],
      "subjectType": [ "Patient" ],
      "item": [ {
        "linkId": "59263",
        "prefix": "10100",
        "text": "Have you been bleeding RED BLOOD very heavily IN THE LAST 2 HOURS?",
        "type": "choice",
        "required": true,
        "repeats": false,
        "option": [ {
          "valueString": "yes, Selected: false"
        }, {
          "valueString": "not sure, Selected: false"
        }, {
          "valueString": "no, Selected: true"
        } ]
      } ]
    }
  }, {
    "fullUrl": "urn:uuid:efada9e8-ad33-49c8-a4d2-61452671d18e",
    "resource": {
      "resourceType": "QuestionnaireResponse",
      "id": "efada9e8-ad33-49c8-a4d2-61452671d18e",
      "identifier": {
        "value": "59263"
      },
      "questionnaire": {
        "reference": "urn:uuid:9c91c12f-be9d-4e65-af2f-bcad63ee0b55"
      },
      "status": "completed",
      "subject": {
        "reference": "urn:uuid:0f2c910d-1f5b-4fe9-97c7-a06371af4265"
      },
      "context": {
        "reference": "urn:uuid:1fbaa6fc-3e41-44db-93c7-cdf9e387d5db"
      },
      "authored": "2021-04-06T11:29:26+00:00",
      "item": [ {
        "linkId": "Tx221343",
        "text": "SocialConcernsExcluded",
        "answer": [ {
          "valueString": "*"
        } ]
      } ]
    }
  }, {
    "fullUrl": "urn:uuid:9c91c12f-be9d-4e65-af2f-bcad63ee0b55",
    "resource": {
      "resourceType": "Questionnaire",
      "id": "9c91c12f-be9d-4e65-af2f-bcad63ee0b55",
      "identifier": [ {
        "value": "59263"
      } ],
      "version": "2021-04-06T11:29:26.887Z",
      "status": "active",
      "experimental": false,
      "date": "2021-04-06T11:29:26+00:00",
      "publisher": "User ID: 'HADFIELDR' User name: 'Ryan Hadfield' User skill set: 'T3'",
      "lastReviewDate": "2021-04-06",
      "contact": [ {
        "telecom": [ {
          "system": "phone",
          "value": "07777 888888"
        } ]
      } ],
      "subjectType": [ "Patient" ],
      "item": [ {
        "linkId": "59263",
        "prefix": "1100",
        "text": "SocialConcernsExcluded",
        "type": "choice",
        "required": true,
        "repeats": false,
        "option": [ {
          "valueString": "==\"present\", Selected: false"
        }, {
          "valueString": "*, Selected: true"
        } ]
      } ]
    }
  }, {
    "fullUrl": "urn:uuid:15bc7e40-19e6-423c-b76a-590f5d1e7dde",
    "resource": {
      "resourceType": "QuestionnaireResponse",
      "id": "15bc7e40-19e6-423c-b76a-590f5d1e7dde",
      "identifier": {
        "value": "59263"
      },
      "questionnaire": {
        "reference": "urn:uuid:818cee01-46dc-4b98-b1da-1772455d657f"
      },
      "status": "completed",
      "subject": {
        "reference": "urn:uuid:0f2c910d-1f5b-4fe9-97c7-a06371af4265"
      },
      "context": {
        "reference": "urn:uuid:1fbaa6fc-3e41-44db-93c7-cdf9e387d5db"
      },
      "authored": "2021-04-06T11:29:26+00:00",
      "item": [ {
        "linkId": "Tx130011",
        "text": "What is the main problem?"
      } ]
    }
  }, {
    "fullUrl": "urn:uuid:818cee01-46dc-4b98-b1da-1772455d657f",
    "resource": {
      "resourceType": "Questionnaire",
      "id": "818cee01-46dc-4b98-b1da-1772455d657f",
      "identifier": [ {
        "value": "59263"
      } ],
      "version": "2021-04-06T11:29:26.887Z",
      "status": "active",
      "experimental": false,
      "date": "2021-04-06T11:29:26+00:00",
      "publisher": "User ID: 'HADFIELDR' User name: 'Ryan Hadfield' User skill set: 'T3'",
      "lastReviewDate": "2021-04-06",
      "contact": [ {
        "telecom": [ {
          "system": "phone",
          "value": "07777 888888"
        } ]
      } ],
      "subjectType": [ "Patient" ],
      "item": [ {
        "linkId": "59263",
        "prefix": "2300",
        "text": "What is the main problem?",
        "type": "choice",
        "required": true,
        "repeats": false,
        "option": [ {
          "valueString": "the individual has been told to follow a particular course of action (specify), Selected: false"
        }, {
          "valueString": "the individual is an identified frequent caller, Selected: false"
        }, {
          "valueString": "injury (specify), Selected: false"
        }, {
          "valueString": "illness or other health problem (specify), Selected: false"
        }, {
          "valueString": "child protection/vulnerable adult concern, Selected: false"
        }, {
          "valueString": "social or domestic emergency, Selected: false"
        }, {
          "valueString": "the environment potentially poses an immediate threat to life (specify), Selected: false"
        } ]
      } ]
    }
  }, {
    "fullUrl": "urn:uuid:15c8195e-79d0-4d70-80c1-faccdf3d228a",
    "resource": {
      "resourceType": "QuestionnaireResponse",
      "id": "15c8195e-79d0-4d70-80c1-faccdf3d228a",
      "identifier": {
        "value": "59263"
      },
      "questionnaire": {
        "reference": "urn:uuid:58a6b63b-433c-408f-ba4b-4a5619ee72f4"
      },
      "status": "completed",
      "subject": {
        "reference": "urn:uuid:0f2c910d-1f5b-4fe9-97c7-a06371af4265"
      },
      "context": {
        "reference": "urn:uuid:1fbaa6fc-3e41-44db-93c7-cdf9e387d5db"
      },
      "authored": "2021-04-06T11:29:26+00:00",
      "item": [ {
        "linkId": "Tx220074",
        "text": "What is the reason for the contact?",
        "answer": [ {
          "valueString": "more"
        } ]
      } ]
    }
  }, {
    "fullUrl": "urn:uuid:58a6b63b-433c-408f-ba4b-4a5619ee72f4",
    "resource": {
      "resourceType": "Questionnaire",
      "id": "58a6b63b-433c-408f-ba4b-4a5619ee72f4",
      "identifier": [ {
        "value": "59263"
      } ],
      "version": "2021-04-06T11:29:26.887Z",
      "status": "active",
      "experimental": false,
      "date": "2021-04-06T11:29:26+00:00",
      "publisher": "User ID: 'HADFIELDR' User name: 'Ryan Hadfield' User skill set: 'T3'",
      "lastReviewDate": "2021-04-06",
      "contact": [ {
        "telecom": [ {
          "system": "phone",
          "value": "07777 888888"
        } ]
      } ],
      "subjectType": [ "Patient" ],
      "item": [ {
        "linkId": "59263",
        "prefix": "5",
        "text": "What is the reason for the contact?",
        "type": "choice",
        "required": true,
        "repeats": false,
        "option": [ {
          "valueString": "an injury or other health problem, Selected: false"
        }, {
          "valueString": "labour or childbirth, Selected: false"
        }, {
          "valueString": "a need to access another healthcare service, Selected: false"
        }, {
          "valueString": "a healthcare professional requesting contact with another clinician, Selected: false"
        }, {
          "valueString": "a report of results or tests, Selected: false"
        }, {
          "valueString": "a possible failure of contraception, Selected: false"
        }, {
          "valueString": "more, Selected: true"
        } ]
      } ]
    }
  }, {
    "fullUrl": "urn:uuid:976b786b-c186-4fde-93b4-ee19002317f1",
    "resource": {
      "resourceType": "QuestionnaireResponse",
      "id": "976b786b-c186-4fde-93b4-ee19002317f1",
      "identifier": {
        "value": "59263"
      },
      "questionnaire": {
        "reference": "urn:uuid:f4cc374f-83b3-47ce-b200-fdd8a597f8fe"
      },
      "status": "completed",
      "subject": {
        "reference": "urn:uuid:0f2c910d-1f5b-4fe9-97c7-a06371af4265"
      },
      "context": {
        "reference": "urn:uuid:1fbaa6fc-3e41-44db-93c7-cdf9e387d5db"
      },
      "authored": "2021-04-06T11:29:26+00:00",
      "item": [ {
        "linkId": "Tx221793",
        "text": "STRING:to'Social&information'-further'Callreason'menu",
        "answer": [ {
          "valueString": "\"present\""
        } ]
      } ]
    }
  }, {
    "fullUrl": "urn:uuid:f4cc374f-83b3-47ce-b200-fdd8a597f8fe",
    "resource": {
      "resourceType": "Questionnaire",
      "id": "f4cc374f-83b3-47ce-b200-fdd8a597f8fe",
      "identifier": [ {
        "value": "59263"
      } ],
      "version": "2021-04-06T11:29:26.887Z",
      "status": "active",
      "experimental": false,
      "date": "2021-04-06T11:29:26+00:00",
      "publisher": "User ID: 'HADFIELDR' User name: 'Ryan Hadfield' User skill set: 'T3'",
      "lastReviewDate": "2021-04-06",
      "contact": [ {
        "telecom": [ {
          "system": "phone",
          "value": "07777 888888"
        } ]
      } ],
      "subjectType": [ "Patient" ],
      "item": [ {
        "linkId": "59263",
        "prefix": "600",
        "text": "STRING:to'Social&information'-further'Callreason'menu",
        "type": "choice",
        "required": true,
        "repeats": false,
        "option": [ {
          "valueString": "\"present\", Selected: true"
        } ]
      } ]
    }
  }, {
    "fullUrl": "urn:uuid:ef7ffa20-6292-4726-a250-a599bbb95dc5",
    "resource": {
      "resourceType": "QuestionnaireResponse",
      "id": "ef7ffa20-6292-4726-a250-a599bbb95dc5",
      "identifier": {
        "value": "59263"
      },
      "questionnaire": {
        "reference": "urn:uuid:c35782ab-9c26-43dc-b07b-f716198fac21"
      },
      "status": "completed",
      "subject": {
        "reference": "urn:uuid:0f2c910d-1f5b-4fe9-97c7-a06371af4265"
      },
      "context": {
        "reference": "urn:uuid:1fbaa6fc-3e41-44db-93c7-cdf9e387d5db"
      },
      "authored": "2021-04-06T11:29:26+00:00"
    }
  }, {
    "fullUrl": "urn:uuid:c35782ab-9c26-43dc-b07b-f716198fac21",
    "resource": {
      "resourceType": "Questionnaire",
      "id": "c35782ab-9c26-43dc-b07b-f716198fac21",
      "identifier": [ {
        "value": "59263"
      } ],
      "version": "2021-04-06T11:29:26.887Z",
      "status": "active",
      "experimental": false,
      "date": "2021-04-06T11:29:26+00:00",
      "publisher": "User ID: 'HADFIELDR' User name: 'Ryan Hadfield' User skill set: 'T3'",
      "lastReviewDate": "2021-04-06",
      "contact": [ {
        "telecom": [ {
          "system": "phone",
          "value": "07777 888888"
        } ]
      } ],
      "subjectType": [ "Patient" ]
    }
  }, {
    "fullUrl": "urn:uuid:6943c130-f7db-4c44-b217-8ae086196643",
    "resource": {
      "resourceType": "QuestionnaireResponse",
      "id": "6943c130-f7db-4c44-b217-8ae086196643",
      "identifier": {
        "value": "59263"
      },
      "questionnaire": {
        "reference": "urn:uuid:6417c344-702a-4470-8331-430951ba4360"
      },
      "status": "completed",
      "subject": {
        "reference": "urn:uuid:0f2c910d-1f5b-4fe9-97c7-a06371af4265"
      },
      "context": {
        "reference": "urn:uuid:1fbaa6fc-3e41-44db-93c7-cdf9e387d5db"
      },
      "authored": "2021-04-06T11:29:26+00:00",
      "item": [ {
        "linkId": "Tx221804",
        "text": "STRING:transfertofurthermenuquestionestablishedinEntryFlow",
        "answer": [ {
          "valueString": "\"present\""
        } ]
      } ]
    }
  }, {
    "fullUrl": "urn:uuid:6417c344-702a-4470-8331-430951ba4360",
    "resource": {
      "resourceType": "Questionnaire",
      "id": "6417c344-702a-4470-8331-430951ba4360",
      "identifier": [ {
        "value": "59263"
      } ],
      "version": "2021-04-06T11:29:26.887Z",
      "status": "active",
      "experimental": false,
      "date": "2021-04-06T11:29:26+00:00",
      "publisher": "User ID: 'HADFIELDR' User name: 'Ryan Hadfield' User skill set: 'T3'",
      "lastReviewDate": "2021-04-06",
      "contact": [ {
        "telecom": [ {
          "system": "phone",
          "value": "07777 888888"
        } ]
      } ],
      "subjectType": [ "Patient" ],
      "item": [ {
        "linkId": "59263",
        "prefix": "41",
        "text": "STRING:transfertofurthermenuquestionestablishedinEntryFlow",
        "type": "choice",
        "required": true,
        "repeats": false,
        "option": [ {
          "valueString": "\"present\", Selected: true"
        } ]
      } ]
    }
  }, {
    "fullUrl": "urn:uuid:4be8120d-1386-4879-ac16-53484708af64",
    "resource": {
      "resourceType": "QuestionnaireResponse",
      "id": "4be8120d-1386-4879-ac16-53484708af64",
      "identifier": {
        "value": "59263"
      },
      "questionnaire": {
        "reference": "urn:uuid:ac9006b3-6f2f-4638-96d7-0d777a3cc210"
      },
      "status": "completed",
      "subject": {
        "reference": "urn:uuid:0f2c910d-1f5b-4fe9-97c7-a06371af4265"
      },
      "context": {
        "reference": "urn:uuid:1fbaa6fc-3e41-44db-93c7-cdf9e387d5db"
      },
      "authored": "2021-04-06T11:29:26+00:00",
      "item": [ {
        "linkId": "Tx224998",
        "text": "SYSTEM_COVIDLEVEL2",
        "answer": [ {
          "valueString": "==\"covidlevel2\""
        } ]
      } ]
    }
  }, {
    "fullUrl": "urn:uuid:ac9006b3-6f2f-4638-96d7-0d777a3cc210",
    "resource": {
      "resourceType": "Questionnaire",
      "id": "ac9006b3-6f2f-4638-96d7-0d777a3cc210",
      "identifier": [ {
        "value": "59263"
      } ],
      "version": "2021-04-06T11:29:26.887Z",
      "status": "active",
      "experimental": false,
      "date": "2021-04-06T11:29:26+00:00",
      "publisher": "User ID: 'HADFIELDR' User name: 'Ryan Hadfield' User skill set: 'T3'",
      "lastReviewDate": "2021-04-06",
      "contact": [ {
        "telecom": [ {
          "system": "phone",
          "value": "07777 888888"
        } ]
      } ],
      "subjectType": [ "Patient" ],
      "item": [ {
        "linkId": "59263",
        "prefix": "5900",
        "text": "SYSTEM_COVIDLEVEL2",
        "type": "choice",
        "required": true,
        "repeats": false,
        "option": [ {
          "valueString": "==\"covidlevel2\", Selected: true"
        }, {
          "valueString": "*, Selected: false"
        } ]
      } ]
    }
  }, {
    "fullUrl": "urn:uuid:545be7e3-c329-444e-b360-f18690ab9627",
    "resource": {
      "resourceType": "QuestionnaireResponse",
      "id": "545be7e3-c329-444e-b360-f18690ab9627",
      "identifier": {
        "value": "59263"
      },
      "questionnaire": {
        "reference": "urn:uuid:8f178203-7cf8-4fbb-b14c-61c0f2a92160"
      },
      "status": "completed",
      "subject": {
        "reference": "urn:uuid:0f2c910d-1f5b-4fe9-97c7-a06371af4265"
      },
      "context": {
        "reference": "urn:uuid:1fbaa6fc-3e41-44db-93c7-cdf9e387d5db"
      },
      "authored": "2021-04-06T11:29:26+00:00",
      "item": [ {
        "linkId": "Tx225069",
        "text": "What is the reason for the contact?",
        "answer": [ {
          "valueString": "a prescription request"
        } ]
      } ]
    }
  }, {
    "fullUrl": "urn:uuid:8f178203-7cf8-4fbb-b14c-61c0f2a92160",
    "resource": {
      "resourceType": "Questionnaire",
      "id": "8f178203-7cf8-4fbb-b14c-61c0f2a92160",
      "identifier": [ {
        "value": "59263"
      } ],
      "version": "2021-04-06T11:29:26.887Z",
      "status": "active",
      "experimental": false,
      "date": "2021-04-06T11:29:26+00:00",
      "publisher": "User ID: 'HADFIELDR' User name: 'Ryan Hadfield' User skill set: 'T3'",
      "lastReviewDate": "2021-04-06",
      "contact": [ {
        "telecom": [ {
          "system": "phone",
          "value": "07777 888888"
        } ]
      } ],
      "subjectType": [ "Patient" ],
      "item": [ {
        "linkId": "59263",
        "prefix": "6000",
        "text": "What is the reason for the contact?",
        "type": "choice",
        "required": true,
        "repeats": false,
        "option": [ {
          "valueString": "a child protection/vulnerable adult concern (specify), Selected: false"
        }, {
          "valueString": "a social or domestic emergency, Selected: false"
        }, {
          "valueString": "a prescription request, Selected: true"
        }, {
          "valueString": "an appointment request, Selected: false"
        }, {
          "valueString": "a request for health or medication information, Selected: false"
        }, {
          "valueString": "public health alert information, Selected: false"
        } ]
      } ]
    }
  }, {
    "fullUrl": "urn:uuid:3f1a5890-4833-4da2-99f2-233394a34204",
    "resource": {
      "resourceType": "QuestionnaireResponse",
      "id": "3f1a5890-4833-4da2-99f2-233394a34204",
      "identifier": {
        "value": "59263"
      },
      "questionnaire": {
        "reference": "urn:uuid:728cd303-1f49-4729-8628-7392091c6166"
      },
      "status": "completed",
      "subject": {
        "reference": "urn:uuid:0f2c910d-1f5b-4fe9-97c7-a06371af4265"
      },
      "context": {
        "reference": "urn:uuid:1fbaa6fc-3e41-44db-93c7-cdf9e387d5db"
      },
      "authored": "2021-04-06T11:29:26+00:00",
      "item": [ {
        "linkId": "Tx220957",
        "text": "Is this contact about a new or worsening illness?",
        "answer": [ {
          "valueString": "no"
        } ]
      } ]
    }
  }, {
    "fullUrl": "urn:uuid:728cd303-1f49-4729-8628-7392091c6166",
    "resource": {
      "resourceType": "Questionnaire",
      "id": "728cd303-1f49-4729-8628-7392091c6166",
      "identifier": [ {
        "value": "59263"
      } ],
      "version": "2021-04-06T11:29:26.887Z",
      "status": "active",
      "experimental": false,
      "date": "2021-04-06T11:29:26+00:00",
      "publisher": "User ID: 'HADFIELDR' User name: 'Ryan Hadfield' User skill set: 'T3'",
      "lastReviewDate": "2021-04-06",
      "contact": [ {
        "telecom": [ {
          "system": "phone",
          "value": "07777 888888"
        } ]
      } ],
      "subjectType": [ "Patient" ],
      "item": [ {
        "linkId": "59263",
        "prefix": "1400",
        "text": "Is this contact about a new or worsening illness?",
        "type": "choice",
        "required": true,
        "repeats": false,
        "option": [ {
          "valueString": "yes, Selected: false"
        }, {
          "valueString": "not sure, Selected: false"
        }, {
          "valueString": "no, Selected: true"
        } ]
      } ]
    }
  }, {
    "fullUrl": "urn:uuid:b5d5859b-da49-4639-be46-9d37b9973f06",
    "resource": {
      "resourceType": "QuestionnaireResponse",
      "id": "b5d5859b-da49-4639-be46-9d37b9973f06",
      "identifier": {
        "value": "59263"
      },
      "questionnaire": {
        "reference": "urn:uuid:48af4a8e-7a51-486f-8fe0-f55d7109af3a"
      },
      "status": "completed",
      "subject": {
        "reference": "urn:uuid:0f2c910d-1f5b-4fe9-97c7-a06371af4265"
      },
      "context": {
        "reference": "urn:uuid:1fbaa6fc-3e41-44db-93c7-cdf9e387d5db"
      },
      "authored": "2021-04-06T11:29:26+00:00",
      "item": [ {
        "linkId": "Tx221352",
        "text": "Have you got enough medication to last until the surgery opens?",
        "answer": [ {
          "valueString": "no"
        } ]
      } ]
    }
  }, {
    "fullUrl": "urn:uuid:48af4a8e-7a51-486f-8fe0-f55d7109af3a",
    "resource": {
      "resourceType": "Questionnaire",
      "id": "48af4a8e-7a51-486f-8fe0-f55d7109af3a",
      "identifier": [ {
        "value": "59263"
      } ],
      "version": "2021-04-06T11:29:26.887Z",
      "status": "active",
      "experimental": false,
      "date": "2021-04-06T11:29:26+00:00",
      "publisher": "User ID: 'HADFIELDR' User name: 'Ryan Hadfield' User skill set: 'T3'",
      "lastReviewDate": "2021-04-06",
      "contact": [ {
        "telecom": [ {
          "system": "phone",
          "value": "07777 888888"
        } ]
      } ],
      "subjectType": [ "Patient" ],
      "item": [ {
        "linkId": "59263",
        "prefix": "1500",
        "text": "Have you got enough medication to last until the surgery opens?",
        "type": "choice",
        "required": true,
        "repeats": false,
        "option": [ {
          "valueString": "yes, Selected: false"
        }, {
          "valueString": "not sure, Selected: false"
        }, {
          "valueString": "no, Selected: true"
        } ]
      } ]
    }
  }, {
    "fullUrl": "urn:uuid:9e99278f-fa21-4ae4-84f4-658ce0f94e9a",
    "resource": {
      "resourceType": "QuestionnaireResponse",
      "id": "9e99278f-fa21-4ae4-84f4-658ce0f94e9a",
      "identifier": {
        "value": "59263"
      },
      "questionnaire": {
        "reference": "urn:uuid:f2068696-213b-48a5-8213-d13b21fadd4f"
      },
      "status": "completed",
      "subject": {
        "reference": "urn:uuid:0f2c910d-1f5b-4fe9-97c7-a06371af4265"
      },
      "context": {
        "reference": "urn:uuid:1fbaa6fc-3e41-44db-93c7-cdf9e387d5db"
      },
      "authored": "2021-04-06T11:29:26+00:00"
    }
  }, {
    "fullUrl": "urn:uuid:f2068696-213b-48a5-8213-d13b21fadd4f",
    "resource": {
      "resourceType": "Questionnaire",
      "id": "f2068696-213b-48a5-8213-d13b21fadd4f",
      "identifier": [ {
        "value": "59263"
      } ],
      "version": "2021-04-06T11:29:26.887Z",
      "status": "active",
      "experimental": false,
      "date": "2021-04-06T11:29:26+00:00",
      "publisher": "User ID: 'HADFIELDR' User name: 'Ryan Hadfield' User skill set: 'T3'",
      "lastReviewDate": "2021-04-06",
      "contact": [ {
        "telecom": [ {
          "system": "phone",
          "value": "07777 888888"
        } ]
      } ],
      "subjectType": [ "Patient" ]
    }
  }, {
    "fullUrl": "urn:uuid:661c25e4-62dc-483e-bf55-b6ed3616cca5",
    "resource": {
      "resourceType": "QuestionnaireResponse",
      "id": "661c25e4-62dc-483e-bf55-b6ed3616cca5",
      "identifier": {
        "value": "59263"
      },
      "questionnaire": {
        "reference": "urn:uuid:8b089d89-50e6-4ad2-a4e4-ae5d884c686f"
      },
      "status": "completed",
      "subject": {
        "reference": "urn:uuid:0f2c910d-1f5b-4fe9-97c7-a06371af4265"
      },
      "context": {
        "reference": "urn:uuid:1fbaa6fc-3e41-44db-93c7-cdf9e387d5db"
      },
      "authored": "2021-04-06T11:29:26+00:00",
      "item": [ {
        "linkId": "Tx224231",
        "text": "FROM WHAT YOU HAVE HEARD IS A CONSULTATION WITH A PRESCRIBER NEEDED?",
        "answer": [ {
          "valueString": "no"
        } ]
      } ]
    }
  }, {
    "fullUrl": "urn:uuid:8b089d89-50e6-4ad2-a4e4-ae5d884c686f",
    "resource": {
      "resourceType": "Questionnaire",
      "id": "8b089d89-50e6-4ad2-a4e4-ae5d884c686f",
      "identifier": [ {
        "value": "59263"
      } ],
      "version": "2021-04-06T11:29:26.887Z",
      "status": "active",
      "experimental": false,
      "date": "2021-04-06T11:29:26+00:00",
      "publisher": "User ID: 'HADFIELDR' User name: 'Ryan Hadfield' User skill set: 'T3'",
      "lastReviewDate": "2021-04-06",
      "contact": [ {
        "telecom": [ {
          "system": "phone",
          "value": "07777 888888"
        } ]
      } ],
      "subjectType": [ "Patient" ],
      "item": [ {
        "linkId": "59263",
        "prefix": "0",
        "text": "FROM WHAT YOU HAVE HEARD IS A CONSULTATION WITH A PRESCRIBER NEEDED?",
        "type": "choice",
        "required": true,
        "repeats": false,
        "option": [ {
          "valueString": "yes, Selected: false"
        }, {
          "valueString": "not sure, Selected: false"
        }, {
          "valueString": "no, Selected: true"
        } ]
      } ]
    }
  }, {
    "fullUrl": "urn:uuid:9f9ec9f3-e61f-4db8-b24d-1932773afb9d",
    "resource": {
      "resourceType": "QuestionnaireResponse",
      "id": "9f9ec9f3-e61f-4db8-b24d-1932773afb9d",
      "identifier": {
        "value": "59263"
      },
      "questionnaire": {
        "reference": "urn:uuid:2e9f8b91-ce30-442a-9e57-5c921d466adb"
      },
      "status": "completed",
      "subject": {
        "reference": "urn:uuid:0f2c910d-1f5b-4fe9-97c7-a06371af4265"
      },
      "context": {
        "reference": "urn:uuid:1fbaa6fc-3e41-44db-93c7-cdf9e387d5db"
      },
      "authored": "2021-04-06T11:29:26+00:00",
      "item": [ {
        "linkId": "Tx222687",
        "text": "Have you got any of the medication available at the moment?",
        "answer": [ {
          "valueString": "no"
        } ]
      } ]
    }
  }, {
    "fullUrl": "urn:uuid:2e9f8b91-ce30-442a-9e57-5c921d466adb",
    "resource": {
      "resourceType": "Questionnaire",
      "id": "2e9f8b91-ce30-442a-9e57-5c921d466adb",
      "identifier": [ {
        "value": "59263"
      } ],
      "version": "2021-04-06T11:29:26.887Z",
      "status": "active",
      "experimental": false,
      "date": "2021-04-06T11:29:26+00:00",
      "publisher": "User ID: 'HADFIELDR' User name: 'Ryan Hadfield' User skill set: 'T3'",
      "lastReviewDate": "2021-04-06",
      "contact": [ {
        "telecom": [ {
          "system": "phone",
          "value": "07777 888888"
        } ]
      } ],
      "subjectType": [ "Patient" ],
      "item": [ {
        "linkId": "59263",
        "prefix": "200",
        "text": "Have you got any of the medication available at the moment?",
        "type": "choice",
        "required": true,
        "repeats": false,
        "option": [ {
          "valueString": "yes, Selected: false"
        }, {
          "valueString": "not sure, Selected: false"
        }, {
          "valueString": "no, Selected: true"
        } ]
      } ]
    }
  }, {
    "fullUrl": "urn:uuid:34d93e55-9052-43b9-a0eb-0e7c85647ba8",
    "resource": {
      "resourceType": "QuestionnaireResponse",
      "id": "34d93e55-9052-43b9-a0eb-0e7c85647ba8",
      "identifier": {
        "value": "59263"
      },
      "questionnaire": {
        "reference": "urn:uuid:e44c28f6-21e3-464d-9a5c-104bdaee796f"
      },
      "status": "completed",
      "subject": {
        "reference": "urn:uuid:0f2c910d-1f5b-4fe9-97c7-a06371af4265"
      },
      "context": {
        "reference": "urn:uuid:1fbaa6fc-3e41-44db-93c7-cdf9e387d5db"
      },
      "authored": "2021-04-06T11:29:26+00:00",
      "item": [ {
        "linkId": "Tx221367",
        "text": "When is the next dose due?",
        "answer": [ {
          "valueString": "within the next 12 hours"
        } ]
      } ]
    }
  }, {
    "fullUrl": "urn:uuid:e44c28f6-21e3-464d-9a5c-104bdaee796f",
    "resource": {
      "resourceType": "Questionnaire",
      "id": "e44c28f6-21e3-464d-9a5c-104bdaee796f",
      "identifier": [ {
        "value": "59263"
      } ],
      "version": "2021-04-06T11:29:26.887Z",
      "status": "active",
      "experimental": false,
      "date": "2021-04-06T11:29:26+00:00",
      "publisher": "User ID: 'HADFIELDR' User name: 'Ryan Hadfield' User skill set: 'T3'",
      "lastReviewDate": "2021-04-06",
      "contact": [ {
        "telecom": [ {
          "system": "phone",
          "value": "07777 888888"
        } ]
      } ],
      "subjectType": [ "Patient" ],
      "item": [ {
        "linkId": "59263",
        "prefix": "100",
        "text": "When is the next dose due?",
        "type": "choice",
        "required": true,
        "repeats": false,
        "option": [ {
          "valueString": "within the next 2 hours, Selected: false"
        }, {
          "valueString": "within the next 6 hours, Selected: false"
        }, {
          "valueString": "within the next 12 hours, Selected: true"
        }, {
          "valueString": "over 12 hours time, Selected: false"
        }, {
          "valueString": "not sure, Selected: false"
        } ]
      } ]
    }
  }, {
    "fullUrl": "urn:uuid:a1677d1b-5c48-40da-b338-77f980e4e370",
    "resource": {
      "resourceType": "QuestionnaireResponse",
      "id": "a1677d1b-5c48-40da-b338-77f980e4e370",
      "identifier": {
        "value": "59263"
      },
      "questionnaire": {
        "reference": "urn:uuid:47ba63ce-b98b-43a5-93ea-a641524de123"
      },
      "status": "completed",
      "subject": {
        "reference": "urn:uuid:0f2c910d-1f5b-4fe9-97c7-a06371af4265"
      },
      "context": {
        "reference": "urn:uuid:1fbaa6fc-3e41-44db-93c7-cdf9e387d5db"
      },
      "authored": "2021-04-06T11:29:26+00:00",
      "item": [ {
        "linkId": "Tx223441",
        "text": "STRING:SDPCRepeatPrescription",
        "answer": [ {
          "valueString": "\"PC repeat prescription\""
        } ]
      } ]
    }
  }, {
    "fullUrl": "urn:uuid:47ba63ce-b98b-43a5-93ea-a641524de123",
    "resource": {
      "resourceType": "Questionnaire",
      "id": "47ba63ce-b98b-43a5-93ea-a641524de123",
      "identifier": [ {
        "value": "59263"
      } ],
      "version": "2021-04-06T11:29:26.887Z",
      "status": "active",
      "experimental": false,
      "date": "2021-04-06T11:29:26+00:00",
      "publisher": "User ID: 'HADFIELDR' User name: 'Ryan Hadfield' User skill set: 'T3'",
      "lastReviewDate": "2021-04-06",
      "contact": [ {
        "telecom": [ {
          "system": "phone",
          "value": "07777 888888"
        } ]
      } ],
      "subjectType": [ "Patient" ],
      "item": [ {
        "linkId": "59263",
        "prefix": "1200",
        "text": "STRING:SDPCRepeatPrescription",
        "type": "choice",
        "required": true,
        "repeats": false,
        "option": [ {
          "valueString": "\"PC repeat prescription\", Selected: true"
        } ]
      } ]
    }
  }, {
    "fullUrl": "urn:uuid:0b72c601-22b7-4abc-bb50-5eed702e050e",
    "resource": {
      "resourceType": "QuestionnaireResponse",
      "id": "0b72c601-22b7-4abc-bb50-5eed702e050e",
      "identifier": {
        "value": "59263"
      },
      "questionnaire": {
        "reference": "urn:uuid:c7e7e94a-6b98-4b75-8ded-10e954a1df3f"
      },
      "status": "completed",
      "subject": {
        "reference": "urn:uuid:0f2c910d-1f5b-4fe9-97c7-a06371af4265"
      },
      "context": {
        "reference": "urn:uuid:1fbaa6fc-3e41-44db-93c7-cdf9e387d5db"
      },
      "authored": "2021-04-06T11:29:26+00:00"
    }
  }, {
    "fullUrl": "urn:uuid:c7e7e94a-6b98-4b75-8ded-10e954a1df3f",
    "resource": {
      "resourceType": "Questionnaire",
      "id": "c7e7e94a-6b98-4b75-8ded-10e954a1df3f",
      "identifier": [ {
        "value": "59263"
      } ],
      "version": "2021-04-06T11:29:26.887Z",
      "status": "active",
      "experimental": false,
      "date": "2021-04-06T11:29:26+00:00",
      "publisher": "User ID: 'HADFIELDR' User name: 'Ryan Hadfield' User skill set: 'T3'",
      "lastReviewDate": "2021-04-06",
      "contact": [ {
        "telecom": [ {
          "system": "phone",
          "value": "07777 888888"
        } ]
      } ],
      "subjectType": [ "Patient" ]
    }
  }, {
    "fullUrl": "urn:uuid:93db21b9-928a-4ba4-b822-0c8848b6afed",
    "resource": {
      "resourceType": "QuestionnaireResponse",
      "id": "93db21b9-928a-4ba4-b822-0c8848b6afed",
      "identifier": {
        "value": "59263"
      },
      "questionnaire": {
        "reference": "urn:uuid:b9b370ae-5584-459d-a683-3e071b6f87a4"
      },
      "status": "completed",
      "subject": {
        "reference": "urn:uuid:0f2c910d-1f5b-4fe9-97c7-a06371af4265"
      },
      "context": {
        "reference": "urn:uuid:1fbaa6fc-3e41-44db-93c7-cdf9e387d5db"
      },
      "authored": "2021-04-06T11:29:26+00:00",
      "item": [ {
        "linkId": "Tx220074",
        "text": "What is the reason for the contact?",
        "answer": [ {
          "valueString": "an injury or other health problem"
        } ]
      } ]
    }
  }, {
    "fullUrl": "urn:uuid:b9b370ae-5584-459d-a683-3e071b6f87a4",
    "resource": {
      "resourceType": "Questionnaire",
      "id": "b9b370ae-5584-459d-a683-3e071b6f87a4",
      "identifier": [ {
        "value": "59263"
      } ],
      "version": "2021-04-06T11:29:26.887Z",
      "status": "active",
      "experimental": false,
      "date": "2021-04-06T11:29:26+00:00",
      "publisher": "User ID: 'HADFIELDR' User name: 'Ryan Hadfield' User skill set: 'T3'",
      "lastReviewDate": "2021-04-06",
      "contact": [ {
        "telecom": [ {
          "system": "phone",
          "value": "07777 888888"
        } ]
      } ],
      "subjectType": [ "Patient" ],
      "item": [ {
        "linkId": "59263",
        "prefix": "5",
        "text": "What is the reason for the contact?",
        "type": "choice",
        "required": true,
        "repeats": false,
        "option": [ {
          "valueString": "an injury or other health problem, Selected: true"
        }, {
          "valueString": "labour or childbirth, Selected: false"
        }, {
          "valueString": "a need to access another healthcare service, Selected: false"
        }, {
          "valueString": "a healthcare professional requesting contact with another clinician, Selected: false"
        }, {
          "valueString": "a report of results or tests, Selected: false"
        }, {
          "valueString": "a possible failure of contraception, Selected: false"
        }, {
          "valueString": "more, Selected: false"
        } ]
      } ]
    }
  }, {
    "fullUrl": "urn:uuid:3e0b242d-c9a5-42c8-a54e-2d719b646516",
    "resource": {
      "resourceType": "QuestionnaireResponse",
      "id": "3e0b242d-c9a5-42c8-a54e-2d719b646516",
      "identifier": {
        "value": "59263"
      },
      "questionnaire": {
        "reference": "urn:uuid:939c469f-2a79-45c5-a240-2f265d906f66"
      },
      "status": "completed",
      "subject": {
        "reference": "urn:uuid:0f2c910d-1f5b-4fe9-97c7-a06371af4265"
      },
      "context": {
        "reference": "urn:uuid:1fbaa6fc-3e41-44db-93c7-cdf9e387d5db"
      },
      "authored": "2021-04-06T11:29:26+00:00",
      "item": [ {
        "linkId": "Tx221807",
        "text": "STRING:to'Immediatethreatstolife(SPA/OOHversion)'-'Majorbloodloss'stem",
        "answer": [ {
          "valueString": "\"present\""
        } ]
      } ]
    }
  }, {
    "fullUrl": "urn:uuid:939c469f-2a79-45c5-a240-2f265d906f66",
    "resource": {
      "resourceType": "Questionnaire",
      "id": "939c469f-2a79-45c5-a240-2f265d906f66",
      "identifier": [ {
        "value": "59263"
      } ],
      "version": "2021-04-06T11:29:26.887Z",
      "status": "active",
      "experimental": false,
      "date": "2021-04-06T11:29:26+00:00",
      "publisher": "User ID: 'HADFIELDR' User name: 'Ryan Hadfield' User skill set: 'T3'",
      "lastReviewDate": "2021-04-06",
      "contact": [ {
        "telecom": [ {
          "system": "phone",
          "value": "07777 888888"
        } ]
      } ],
      "subjectType": [ "Patient" ],
      "item": [ {
        "linkId": "59263",
        "prefix": "200",
        "text": "STRING:to'Immediatethreatstolife(SPA/OOHversion)'-'Majorbloodloss'stem",
        "type": "choice",
        "required": true,
        "repeats": false,
        "option": [ {
          "valueString": "\"present\", Selected: true"
        } ]
      } ]
    }
  }, {
    "fullUrl": "urn:uuid:de0412d4-5e39-4ad9-bebc-0bb1cb3a1643",
    "resource": {
      "resourceType": "QuestionnaireResponse",
      "id": "de0412d4-5e39-4ad9-bebc-0bb1cb3a1643",
      "identifier": {
        "value": "59263"
      },
      "questionnaire": {
        "reference": "urn:uuid:abba2f49-18a6-4bfb-af6a-077e6e5af8d7"
      },
      "status": "completed",
      "subject": {
        "reference": "urn:uuid:0f2c910d-1f5b-4fe9-97c7-a06371af4265"
      },
      "context": {
        "reference": "urn:uuid:1fbaa6fc-3e41-44db-93c7-cdf9e387d5db"
      },
      "authored": "2021-04-06T11:29:26+00:00"
    }
  }, {
    "fullUrl": "urn:uuid:abba2f49-18a6-4bfb-af6a-077e6e5af8d7",
    "resource": {
      "resourceType": "Questionnaire",
      "id": "abba2f49-18a6-4bfb-af6a-077e6e5af8d7",
      "identifier": [ {
        "value": "59263"
      } ],
      "version": "2021-04-06T11:29:26.887Z",
      "status": "active",
      "experimental": false,
      "date": "2021-04-06T11:29:26+00:00",
      "publisher": "User ID: 'HADFIELDR' User name: 'Ryan Hadfield' User skill set: 'T3'",
      "lastReviewDate": "2021-04-06",
      "contact": [ {
        "telecom": [ {
          "system": "phone",
          "value": "07777 888888"
        } ]
      } ],
      "subjectType": [ "Patient" ]
    }
  }, {
    "fullUrl": "urn:uuid:79c75dc6-e125-451b-8115-928b00004962",
    "resource": {
      "resourceType": "QuestionnaireResponse",
      "id": "79c75dc6-e125-451b-8115-928b00004962",
      "identifier": {
        "value": "59263"
      },
      "questionnaire": {
        "reference": "urn:uuid:9a58fc89-e8b3-4372-87a9-f4043c0ad0ed"
      },
      "status": "completed",
      "subject": {
        "reference": "urn:uuid:0f2c910d-1f5b-4fe9-97c7-a06371af4265"
      },
      "context": {
        "reference": "urn:uuid:1fbaa6fc-3e41-44db-93c7-cdf9e387d5db"
      },
      "authored": "2021-04-06T11:29:26+00:00",
      "item": [ {
        "linkId": "Tx221799",
        "text": "STRING:injury,illnessorlabourestablishedinEntryFlow",
        "answer": [ {
          "valueString": "\"present\""
        } ]
      } ]
    }
  }, {
    "fullUrl": "urn:uuid:9a58fc89-e8b3-4372-87a9-f4043c0ad0ed",
    "resource": {
      "resourceType": "Questionnaire",
      "id": "9a58fc89-e8b3-4372-87a9-f4043c0ad0ed",
      "identifier": [ {
        "value": "59263"
      } ],
      "version": "2021-04-06T11:29:26.887Z",
      "status": "active",
      "experimental": false,
      "date": "2021-04-06T11:29:26+00:00",
      "publisher": "User ID: 'HADFIELDR' User name: 'Ryan Hadfield' User skill set: 'T3'",
      "lastReviewDate": "2021-04-06",
      "contact": [ {
        "telecom": [ {
          "system": "phone",
          "value": "07777 888888"
        } ]
      } ],
      "subjectType": [ "Patient" ],
      "item": [ {
        "linkId": "59263",
        "prefix": "0",
        "text": "STRING:injury,illnessorlabourestablishedinEntryFlow",
        "type": "choice",
        "required": true,
        "repeats": false,
        "option": [ {
          "valueString": "\"present\", Selected: true"
        } ]
      } ]
    }
  }, {
    "fullUrl": "urn:uuid:f8373895-9ddd-4655-bad0-3a348f47ab0c",
    "resource": {
      "resourceType": "QuestionnaireResponse",
      "id": "f8373895-9ddd-4655-bad0-3a348f47ab0c",
      "identifier": {
        "value": "59263"
      },
      "questionnaire": {
        "reference": "urn:uuid:c2cfc46e-1583-43f7-b76b-ecb3b7a9900c"
      },
      "status": "completed",
      "subject": {
        "reference": "urn:uuid:0f2c910d-1f5b-4fe9-97c7-a06371af4265"
      },
      "context": {
        "reference": "urn:uuid:1fbaa6fc-3e41-44db-93c7-cdf9e387d5db"
      },
      "authored": "2021-04-06T11:29:26+00:00",
      "item": [ {
        "linkId": "Tx224120",
        "text": "Have you been bleeding RED BLOOD very heavily IN THE LAST 2 HOURS?",
        "answer": [ {
          "valueString": "no"
        } ]
      } ]
    }
  }, {
    "fullUrl": "urn:uuid:c2cfc46e-1583-43f7-b76b-ecb3b7a9900c",
    "resource": {
      "resourceType": "Questionnaire",
      "id": "c2cfc46e-1583-43f7-b76b-ecb3b7a9900c",
      "identifier": [ {
        "value": "59263"
      } ],
      "version": "2021-04-06T11:29:26.887Z",
      "status": "active",
      "experimental": false,
      "date": "2021-04-06T11:29:26+00:00",
      "publisher": "User ID: 'HADFIELDR' User name: 'Ryan Hadfield' User skill set: 'T3'",
      "lastReviewDate": "2021-04-06",
      "contact": [ {
        "telecom": [ {
          "system": "phone",
          "value": "07777 888888"
        } ]
      } ],
      "subjectType": [ "Patient" ],
      "item": [ {
        "linkId": "59263",
        "prefix": "10100",
        "text": "Have you been bleeding RED BLOOD very heavily IN THE LAST 2 HOURS?",
        "type": "choice",
        "required": true,
        "repeats": false,
        "option": [ {
          "valueString": "yes, Selected: false"
        }, {
          "valueString": "not sure, Selected: false"
        }, {
          "valueString": "no, Selected: true"
        } ]
      } ]
    }
  }, {
    "fullUrl": "urn:uuid:91dabed0-c2b6-4c79-b169-9670724351ae",
    "resource": {
      "resourceType": "QuestionnaireResponse",
      "id": "91dabed0-c2b6-4c79-b169-9670724351ae",
      "identifier": {
        "value": "59263"
      },
      "questionnaire": {
        "reference": "urn:uuid:866c2b03-8b21-44af-ac95-363bc0c5212b"
      },
      "status": "completed",
      "subject": {
        "reference": "urn:uuid:0f2c910d-1f5b-4fe9-97c7-a06371af4265"
      },
      "context": {
        "reference": "urn:uuid:1fbaa6fc-3e41-44db-93c7-cdf9e387d5db"
      },
      "authored": "2021-04-06T11:29:26+00:00",
      "item": [ {
        "linkId": "Tx221343",
        "text": "SocialConcernsExcluded",
        "answer": [ {
          "valueString": "*"
        } ]
      } ]
    }
  }, {
    "fullUrl": "urn:uuid:866c2b03-8b21-44af-ac95-363bc0c5212b",
    "resource": {
      "resourceType": "Questionnaire",
      "id": "866c2b03-8b21-44af-ac95-363bc0c5212b",
      "identifier": [ {
        "value": "59263"
      } ],
      "version": "2021-04-06T11:29:26.887Z",
      "status": "active",
      "experimental": false,
      "date": "2021-04-06T11:29:26+00:00",
      "publisher": "User ID: 'HADFIELDR' User name: 'Ryan Hadfield' User skill set: 'T3'",
      "lastReviewDate": "2021-04-06",
      "contact": [ {
        "telecom": [ {
          "system": "phone",
          "value": "07777 888888"
        } ]
      } ],
      "subjectType": [ "Patient" ],
      "item": [ {
        "linkId": "59263",
        "prefix": "1100",
        "text": "SocialConcernsExcluded",
        "type": "choice",
        "required": true,
        "repeats": false,
        "option": [ {
          "valueString": "==\"present\", Selected: false"
        }, {
          "valueString": "*, Selected: true"
        } ]
      } ]
    }
  }, {
    "fullUrl": "urn:uuid:335c7550-7c72-4e30-8db8-0455ce25e4a2",
    "resource": {
      "resourceType": "QuestionnaireResponse",
      "id": "335c7550-7c72-4e30-8db8-0455ce25e4a2",
      "identifier": {
        "value": "59263"
      },
      "questionnaire": {
        "reference": "urn:uuid:9d1ca4f8-44f9-4773-9aae-405831aa2c99"
      },
      "status": "completed",
      "subject": {
        "reference": "urn:uuid:0f2c910d-1f5b-4fe9-97c7-a06371af4265"
      },
      "context": {
        "reference": "urn:uuid:1fbaa6fc-3e41-44db-93c7-cdf9e387d5db"
      },
      "authored": "2021-04-06T11:29:26+00:00",
      "item": [ {
        "linkId": "Tx130011",
        "text": "What is the main problem?"
      } ]
    }
  }, {
    "fullUrl": "urn:uuid:9d1ca4f8-44f9-4773-9aae-405831aa2c99",
    "resource": {
      "resourceType": "Questionnaire",
      "id": "9d1ca4f8-44f9-4773-9aae-405831aa2c99",
      "identifier": [ {
        "value": "59263"
      } ],
      "version": "2021-04-06T11:29:26.887Z",
      "status": "active",
      "experimental": false,
      "date": "2021-04-06T11:29:26+00:00",
      "publisher": "User ID: 'HADFIELDR' User name: 'Ryan Hadfield' User skill set: 'T3'",
      "lastReviewDate": "2021-04-06",
      "contact": [ {
        "telecom": [ {
          "system": "phone",
          "value": "07777 888888"
        } ]
      } ],
      "subjectType": [ "Patient" ],
      "item": [ {
        "linkId": "59263",
        "prefix": "2300",
        "text": "What is the main problem?",
        "type": "choice",
        "required": true,
        "repeats": false,
        "option": [ {
          "valueString": "the individual has been told to follow a particular course of action (specify), Selected: false"
        }, {
          "valueString": "the individual is an identified frequent caller, Selected: false"
        }, {
          "valueString": "injury (specify), Selected: false"
        }, {
          "valueString": "illness or other health problem (specify), Selected: false"
        }, {
          "valueString": "child protection/vulnerable adult concern, Selected: false"
        }, {
          "valueString": "social or domestic emergency, Selected: false"
        }, {
          "valueString": "the environment potentially poses an immediate threat to life (specify), Selected: false"
        } ]
      } ]
    }
  }, {
    "fullUrl": "urn:uuid:7d54221e-8752-42e9-bacc-bd65463ef731",
    "resource": {
      "resourceType": "QuestionnaireResponse",
      "id": "7d54221e-8752-42e9-bacc-bd65463ef731",
      "identifier": {
        "value": "59263"
      },
      "questionnaire": {
        "reference": "urn:uuid:c6cf7742-93be-4ca0-875a-e24bf0fb20e8"
      },
      "status": "completed",
      "subject": {
        "reference": "urn:uuid:0f2c910d-1f5b-4fe9-97c7-a06371af4265"
      },
      "context": {
        "reference": "urn:uuid:1fbaa6fc-3e41-44db-93c7-cdf9e387d5db"
      },
      "authored": "2021-04-06T11:29:26+00:00",
      "item": [ {
        "linkId": "Tx220074",
        "text": "What is the reason for the contact?",
        "answer": [ {
          "valueString": "more"
        } ]
      } ]
    }
  }, {
    "fullUrl": "urn:uuid:c6cf7742-93be-4ca0-875a-e24bf0fb20e8",
    "resource": {
      "resourceType": "Questionnaire",
      "id": "c6cf7742-93be-4ca0-875a-e24bf0fb20e8",
      "identifier": [ {
        "value": "59263"
      } ],
      "version": "2021-04-06T11:29:26.887Z",
      "status": "active",
      "experimental": false,
      "date": "2021-04-06T11:29:26+00:00",
      "publisher": "User ID: 'HADFIELDR' User name: 'Ryan Hadfield' User skill set: 'T3'",
      "lastReviewDate": "2021-04-06",
      "contact": [ {
        "telecom": [ {
          "system": "phone",
          "value": "07777 888888"
        } ]
      } ],
      "subjectType": [ "Patient" ],
      "item": [ {
        "linkId": "59263",
        "prefix": "5",
        "text": "What is the reason for the contact?",
        "type": "choice",
        "required": true,
        "repeats": false,
        "option": [ {
          "valueString": "an injury or other health problem, Selected: false"
        }, {
          "valueString": "labour or childbirth, Selected: false"
        }, {
          "valueString": "a need to access another healthcare service, Selected: false"
        }, {
          "valueString": "a healthcare professional requesting contact with another clinician, Selected: false"
        }, {
          "valueString": "a report of results or tests, Selected: false"
        }, {
          "valueString": "a possible failure of contraception, Selected: false"
        }, {
          "valueString": "more, Selected: true"
        } ]
      } ]
    }
  }, {
    "fullUrl": "urn:uuid:ac70fd10-b4cf-4ebe-bd3d-b2d4d0a2857b",
    "resource": {
      "resourceType": "QuestionnaireResponse",
      "id": "ac70fd10-b4cf-4ebe-bd3d-b2d4d0a2857b",
      "identifier": {
        "value": "59263"
      },
      "questionnaire": {
        "reference": "urn:uuid:da9d6c04-c0e8-47a4-a926-48535860c9de"
      },
      "status": "completed",
      "subject": {
        "reference": "urn:uuid:0f2c910d-1f5b-4fe9-97c7-a06371af4265"
      },
      "context": {
        "reference": "urn:uuid:1fbaa6fc-3e41-44db-93c7-cdf9e387d5db"
      },
      "authored": "2021-04-06T11:29:26+00:00",
      "item": [ {
        "linkId": "Tx221793",
        "text": "STRING:to'Social&information'-further'Callreason'menu",
        "answer": [ {
          "valueString": "\"present\""
        } ]
      } ]
    }
  }, {
    "fullUrl": "urn:uuid:da9d6c04-c0e8-47a4-a926-48535860c9de",
    "resource": {
      "resourceType": "Questionnaire",
      "id": "da9d6c04-c0e8-47a4-a926-48535860c9de",
      "identifier": [ {
        "value": "59263"
      } ],
      "version": "2021-04-06T11:29:26.887Z",
      "status": "active",
      "experimental": false,
      "date": "2021-04-06T11:29:26+00:00",
      "publisher": "User ID: 'HADFIELDR' User name: 'Ryan Hadfield' User skill set: 'T3'",
      "lastReviewDate": "2021-04-06",
      "contact": [ {
        "telecom": [ {
          "system": "phone",
          "value": "07777 888888"
        } ]
      } ],
      "subjectType": [ "Patient" ],
      "item": [ {
        "linkId": "59263",
        "prefix": "600",
        "text": "STRING:to'Social&information'-further'Callreason'menu",
        "type": "choice",
        "required": true,
        "repeats": false,
        "option": [ {
          "valueString": "\"present\", Selected: true"
        } ]
      } ]
    }
  }, {
    "fullUrl": "urn:uuid:d1470a97-e9d9-4dc3-a2b8-406ffed401bd",
    "resource": {
      "resourceType": "QuestionnaireResponse",
      "id": "d1470a97-e9d9-4dc3-a2b8-406ffed401bd",
      "identifier": {
        "value": "59263"
      },
      "questionnaire": {
        "reference": "urn:uuid:1a3261b7-ba74-40e7-a3d8-9bc62a4ebf58"
      },
      "status": "completed",
      "subject": {
        "reference": "urn:uuid:0f2c910d-1f5b-4fe9-97c7-a06371af4265"
      },
      "context": {
        "reference": "urn:uuid:1fbaa6fc-3e41-44db-93c7-cdf9e387d5db"
      },
      "authored": "2021-04-06T11:29:26+00:00"
    }
  }, {
    "fullUrl": "urn:uuid:1a3261b7-ba74-40e7-a3d8-9bc62a4ebf58",
    "resource": {
      "resourceType": "Questionnaire",
      "id": "1a3261b7-ba74-40e7-a3d8-9bc62a4ebf58",
      "identifier": [ {
        "value": "59263"
      } ],
      "version": "2021-04-06T11:29:26.887Z",
      "status": "active",
      "experimental": false,
      "date": "2021-04-06T11:29:26+00:00",
      "publisher": "User ID: 'HADFIELDR' User name: 'Ryan Hadfield' User skill set: 'T3'",
      "lastReviewDate": "2021-04-06",
      "contact": [ {
        "telecom": [ {
          "system": "phone",
          "value": "07777 888888"
        } ]
      } ],
      "subjectType": [ "Patient" ]
    }
  }, {
    "fullUrl": "urn:uuid:707291be-4118-420c-ab9e-8382c8bcfbc2",
    "resource": {
      "resourceType": "QuestionnaireResponse",
      "id": "707291be-4118-420c-ab9e-8382c8bcfbc2",
      "identifier": {
        "value": "59263"
      },
      "questionnaire": {
        "reference": "urn:uuid:a1cce73b-7995-4f15-9093-74eade54e949"
      },
      "status": "completed",
      "subject": {
        "reference": "urn:uuid:0f2c910d-1f5b-4fe9-97c7-a06371af4265"
      },
      "context": {
        "reference": "urn:uuid:1fbaa6fc-3e41-44db-93c7-cdf9e387d5db"
      },
      "authored": "2021-04-06T11:29:26+00:00",
      "item": [ {
        "linkId": "Tx221804",
        "text": "STRING:transfertofurthermenuquestionestablishedinEntryFlow",
        "answer": [ {
          "valueString": "\"present\""
        } ]
      } ]
    }
  }, {
    "fullUrl": "urn:uuid:a1cce73b-7995-4f15-9093-74eade54e949",
    "resource": {
      "resourceType": "Questionnaire",
      "id": "a1cce73b-7995-4f15-9093-74eade54e949",
      "identifier": [ {
        "value": "59263"
      } ],
      "version": "2021-04-06T11:29:26.887Z",
      "status": "active",
      "experimental": false,
      "date": "2021-04-06T11:29:26+00:00",
      "publisher": "User ID: 'HADFIELDR' User name: 'Ryan Hadfield' User skill set: 'T3'",
      "lastReviewDate": "2021-04-06",
      "contact": [ {
        "telecom": [ {
          "system": "phone",
          "value": "07777 888888"
        } ]
      } ],
      "subjectType": [ "Patient" ],
      "item": [ {
        "linkId": "59263",
        "prefix": "41",
        "text": "STRING:transfertofurthermenuquestionestablishedinEntryFlow",
        "type": "choice",
        "required": true,
        "repeats": false,
        "option": [ {
          "valueString": "\"present\", Selected: true"
        } ]
      } ]
    }
  }, {
    "fullUrl": "urn:uuid:362c8854-aeea-4654-8054-4ade92704aa2",
    "resource": {
      "resourceType": "QuestionnaireResponse",
      "id": "362c8854-aeea-4654-8054-4ade92704aa2",
      "identifier": {
        "value": "59263"
      },
      "questionnaire": {
        "reference": "urn:uuid:f583ba60-da3f-4a2d-80f9-205406500d56"
      },
      "status": "completed",
      "subject": {
        "reference": "urn:uuid:0f2c910d-1f5b-4fe9-97c7-a06371af4265"
      },
      "context": {
        "reference": "urn:uuid:1fbaa6fc-3e41-44db-93c7-cdf9e387d5db"
      },
      "authored": "2021-04-06T11:29:26+00:00",
      "item": [ {
        "linkId": "Tx224998",
        "text": "SYSTEM_COVIDLEVEL2",
        "answer": [ {
          "valueString": "==\"covidlevel2\""
        } ]
      } ]
    }
  }, {
    "fullUrl": "urn:uuid:f583ba60-da3f-4a2d-80f9-205406500d56",
    "resource": {
      "resourceType": "Questionnaire",
      "id": "f583ba60-da3f-4a2d-80f9-205406500d56",
      "identifier": [ {
        "value": "59263"
      } ],
      "version": "2021-04-06T11:29:26.887Z",
      "status": "active",
      "experimental": false,
      "date": "2021-04-06T11:29:26+00:00",
      "publisher": "User ID: 'HADFIELDR' User name: 'Ryan Hadfield' User skill set: 'T3'",
      "lastReviewDate": "2021-04-06",
      "contact": [ {
        "telecom": [ {
          "system": "phone",
          "value": "07777 888888"
        } ]
      } ],
      "subjectType": [ "Patient" ],
      "item": [ {
        "linkId": "59263",
        "prefix": "5900",
        "text": "SYSTEM_COVIDLEVEL2",
        "type": "choice",
        "required": true,
        "repeats": false,
        "option": [ {
          "valueString": "==\"covidlevel2\", Selected: true"
        }, {
          "valueString": "*, Selected: false"
        } ]
      } ]
    }
  }, {
    "fullUrl": "urn:uuid:ab07fd61-740e-4ce4-bc7f-1c00fcb8f183",
    "resource": {
      "resourceType": "QuestionnaireResponse",
      "id": "ab07fd61-740e-4ce4-bc7f-1c00fcb8f183",
      "identifier": {
        "value": "59263"
      },
      "questionnaire": {
        "reference": "urn:uuid:b4fbbc6f-4f93-4c33-b42a-7cf5cb1e8e7d"
      },
      "status": "completed",
      "subject": {
        "reference": "urn:uuid:0f2c910d-1f5b-4fe9-97c7-a06371af4265"
      },
      "context": {
        "reference": "urn:uuid:1fbaa6fc-3e41-44db-93c7-cdf9e387d5db"
      },
      "authored": "2021-04-06T11:29:26+00:00",
      "item": [ {
        "linkId": "Tx225069",
        "text": "What is the reason for the contact?",
        "answer": [ {
          "valueString": "a prescription request"
        } ]
      } ]
    }
  }, {
    "fullUrl": "urn:uuid:b4fbbc6f-4f93-4c33-b42a-7cf5cb1e8e7d",
    "resource": {
      "resourceType": "Questionnaire",
      "id": "b4fbbc6f-4f93-4c33-b42a-7cf5cb1e8e7d",
      "identifier": [ {
        "value": "59263"
      } ],
      "version": "2021-04-06T11:29:26.887Z",
      "status": "active",
      "experimental": false,
      "date": "2021-04-06T11:29:26+00:00",
      "publisher": "User ID: 'HADFIELDR' User name: 'Ryan Hadfield' User skill set: 'T3'",
      "lastReviewDate": "2021-04-06",
      "contact": [ {
        "telecom": [ {
          "system": "phone",
          "value": "07777 888888"
        } ]
      } ],
      "subjectType": [ "Patient" ],
      "item": [ {
        "linkId": "59263",
        "prefix": "6000",
        "text": "What is the reason for the contact?",
        "type": "choice",
        "required": true,
        "repeats": false,
        "option": [ {
          "valueString": "a child protection/vulnerable adult concern (specify), Selected: false"
        }, {
          "valueString": "a social or domestic emergency, Selected: false"
        }, {
          "valueString": "a prescription request, Selected: true"
        }, {
          "valueString": "an appointment request, Selected: false"
        }, {
          "valueString": "a request for health or medication information, Selected: false"
        }, {
          "valueString": "public health alert information, Selected: false"
        } ]
      } ]
    }
  }, {
    "fullUrl": "urn:uuid:d85a974b-a709-49a9-af53-697f07af1d4b",
    "resource": {
      "resourceType": "QuestionnaireResponse",
      "id": "d85a974b-a709-49a9-af53-697f07af1d4b",
      "identifier": {
        "value": "59263"
      },
      "questionnaire": {
        "reference": "urn:uuid:cff62822-9e3f-4fcb-aca0-997194d65837"
      },
      "status": "completed",
      "subject": {
        "reference": "urn:uuid:0f2c910d-1f5b-4fe9-97c7-a06371af4265"
      },
      "context": {
        "reference": "urn:uuid:1fbaa6fc-3e41-44db-93c7-cdf9e387d5db"
      },
      "authored": "2021-04-06T11:29:26+00:00",
      "item": [ {
        "linkId": "Tx220957",
        "text": "Is this contact about a new or worsening illness?",
        "answer": [ {
          "valueString": "no"
        } ]
      } ]
    }
  }, {
    "fullUrl": "urn:uuid:cff62822-9e3f-4fcb-aca0-997194d65837",
    "resource": {
      "resourceType": "Questionnaire",
      "id": "cff62822-9e3f-4fcb-aca0-997194d65837",
      "identifier": [ {
        "value": "59263"
      } ],
      "version": "2021-04-06T11:29:26.887Z",
      "status": "active",
      "experimental": false,
      "date": "2021-04-06T11:29:26+00:00",
      "publisher": "User ID: 'HADFIELDR' User name: 'Ryan Hadfield' User skill set: 'T3'",
      "lastReviewDate": "2021-04-06",
      "contact": [ {
        "telecom": [ {
          "system": "phone",
          "value": "07777 888888"
        } ]
      } ],
      "subjectType": [ "Patient" ],
      "item": [ {
        "linkId": "59263",
        "prefix": "1400",
        "text": "Is this contact about a new or worsening illness?",
        "type": "choice",
        "required": true,
        "repeats": false,
        "option": [ {
          "valueString": "yes, Selected: false"
        }, {
          "valueString": "not sure, Selected: false"
        }, {
          "valueString": "no, Selected: true"
        } ]
      } ]
    }
  }, {
    "fullUrl": "urn:uuid:6318e8a5-29a8-40ab-98f3-e7c40a2f542a",
    "resource": {
      "resourceType": "QuestionnaireResponse",
      "id": "6318e8a5-29a8-40ab-98f3-e7c40a2f542a",
      "identifier": {
        "value": "59263"
      },
      "questionnaire": {
        "reference": "urn:uuid:434d4471-6587-4734-8076-29b4cc7f6512"
      },
      "status": "completed",
      "subject": {
        "reference": "urn:uuid:0f2c910d-1f5b-4fe9-97c7-a06371af4265"
      },
      "context": {
        "reference": "urn:uuid:1fbaa6fc-3e41-44db-93c7-cdf9e387d5db"
      },
      "authored": "2021-04-06T11:29:26+00:00",
      "item": [ {
        "linkId": "Tx221352",
        "text": "Have you got enough medication to last until the surgery opens?",
        "answer": [ {
          "valueString": "no"
        } ]
      } ]
    }
  }, {
    "fullUrl": "urn:uuid:434d4471-6587-4734-8076-29b4cc7f6512",
    "resource": {
      "resourceType": "Questionnaire",
      "id": "434d4471-6587-4734-8076-29b4cc7f6512",
      "identifier": [ {
        "value": "59263"
      } ],
      "version": "2021-04-06T11:29:26.887Z",
      "status": "active",
      "experimental": false,
      "date": "2021-04-06T11:29:26+00:00",
      "publisher": "User ID: 'HADFIELDR' User name: 'Ryan Hadfield' User skill set: 'T3'",
      "lastReviewDate": "2021-04-06",
      "contact": [ {
        "telecom": [ {
          "system": "phone",
          "value": "07777 888888"
        } ]
      } ],
      "subjectType": [ "Patient" ],
      "item": [ {
        "linkId": "59263",
        "prefix": "1500",
        "text": "Have you got enough medication to last until the surgery opens?",
        "type": "choice",
        "required": true,
        "repeats": false,
        "option": [ {
          "valueString": "yes, Selected: false"
        }, {
          "valueString": "not sure, Selected: false"
        }, {
          "valueString": "no, Selected: true"
        } ]
      } ]
    }
  }, {
    "fullUrl": "urn:uuid:1da96e69-d4d6-4986-9e88-ab6a2ea7e92f",
    "resource": {
      "resourceType": "QuestionnaireResponse",
      "id": "1da96e69-d4d6-4986-9e88-ab6a2ea7e92f",
      "identifier": {
        "value": "59263"
      },
      "questionnaire": {
        "reference": "urn:uuid:423966bc-79eb-40db-ab0f-16e75fecfdcd"
      },
      "status": "completed",
      "subject": {
        "reference": "urn:uuid:0f2c910d-1f5b-4fe9-97c7-a06371af4265"
      },
      "context": {
        "reference": "urn:uuid:1fbaa6fc-3e41-44db-93c7-cdf9e387d5db"
      },
      "authored": "2021-04-06T11:29:26+00:00"
    }
  }, {
    "fullUrl": "urn:uuid:423966bc-79eb-40db-ab0f-16e75fecfdcd",
    "resource": {
      "resourceType": "Questionnaire",
      "id": "423966bc-79eb-40db-ab0f-16e75fecfdcd",
      "identifier": [ {
        "value": "59263"
      } ],
      "version": "2021-04-06T11:29:26.887Z",
      "status": "active",
      "experimental": false,
      "date": "2021-04-06T11:29:26+00:00",
      "publisher": "User ID: 'HADFIELDR' User name: 'Ryan Hadfield' User skill set: 'T3'",
      "lastReviewDate": "2021-04-06",
      "contact": [ {
        "telecom": [ {
          "system": "phone",
          "value": "07777 888888"
        } ]
      } ],
      "subjectType": [ "Patient" ]
    }
  }, {
    "fullUrl": "urn:uuid:2d657918-0bcd-42e5-9fe3-a5ff7d34e99f",
    "resource": {
      "resourceType": "QuestionnaireResponse",
      "id": "2d657918-0bcd-42e5-9fe3-a5ff7d34e99f",
      "identifier": {
        "value": "59263"
      },
      "questionnaire": {
        "reference": "urn:uuid:1e78d164-f019-4926-b946-e47b3a23d362"
      },
      "status": "completed",
      "subject": {
        "reference": "urn:uuid:0f2c910d-1f5b-4fe9-97c7-a06371af4265"
      },
      "context": {
        "reference": "urn:uuid:1fbaa6fc-3e41-44db-93c7-cdf9e387d5db"
      },
      "authored": "2021-04-06T11:29:26+00:00",
      "item": [ {
        "linkId": "Tx224231",
        "text": "FROM WHAT YOU HAVE HEARD IS A CONSULTATION WITH A PRESCRIBER NEEDED?",
        "answer": [ {
          "valueString": "no"
        } ]
      } ]
    }
  }, {
    "fullUrl": "urn:uuid:1e78d164-f019-4926-b946-e47b3a23d362",
    "resource": {
      "resourceType": "Questionnaire",
      "id": "1e78d164-f019-4926-b946-e47b3a23d362",
      "identifier": [ {
        "value": "59263"
      } ],
      "version": "2021-04-06T11:29:26.887Z",
      "status": "active",
      "experimental": false,
      "date": "2021-04-06T11:29:26+00:00",
      "publisher": "User ID: 'HADFIELDR' User name: 'Ryan Hadfield' User skill set: 'T3'",
      "lastReviewDate": "2021-04-06",
      "contact": [ {
        "telecom": [ {
          "system": "phone",
          "value": "07777 888888"
        } ]
      } ],
      "subjectType": [ "Patient" ],
      "item": [ {
        "linkId": "59263",
        "prefix": "0",
        "text": "FROM WHAT YOU HAVE HEARD IS A CONSULTATION WITH A PRESCRIBER NEEDED?",
        "type": "choice",
        "required": true,
        "repeats": false,
        "option": [ {
          "valueString": "yes, Selected: false"
        }, {
          "valueString": "not sure, Selected: false"
        }, {
          "valueString": "no, Selected: true"
        } ]
      } ]
    }
  }, {
    "fullUrl": "urn:uuid:98bb42f8-0f3b-4d80-98e4-c24ad70d723f",
    "resource": {
      "resourceType": "QuestionnaireResponse",
      "id": "98bb42f8-0f3b-4d80-98e4-c24ad70d723f",
      "identifier": {
        "value": "59263"
      },
      "questionnaire": {
        "reference": "urn:uuid:17b60b6f-d852-4a06-bc79-48be0aae1a5c"
      },
      "status": "completed",
      "subject": {
        "reference": "urn:uuid:0f2c910d-1f5b-4fe9-97c7-a06371af4265"
      },
      "context": {
        "reference": "urn:uuid:1fbaa6fc-3e41-44db-93c7-cdf9e387d5db"
      },
      "authored": "2021-04-06T11:29:26+00:00",
      "item": [ {
        "linkId": "Tx222687",
        "text": "Have you got any of the medication available at the moment?",
        "answer": [ {
          "valueString": "no"
        } ]
      } ]
    }
  }, {
    "fullUrl": "urn:uuid:17b60b6f-d852-4a06-bc79-48be0aae1a5c",
    "resource": {
      "resourceType": "Questionnaire",
      "id": "17b60b6f-d852-4a06-bc79-48be0aae1a5c",
      "identifier": [ {
        "value": "59263"
      } ],
      "version": "2021-04-06T11:29:26.887Z",
      "status": "active",
      "experimental": false,
      "date": "2021-04-06T11:29:26+00:00",
      "publisher": "User ID: 'HADFIELDR' User name: 'Ryan Hadfield' User skill set: 'T3'",
      "lastReviewDate": "2021-04-06",
      "contact": [ {
        "telecom": [ {
          "system": "phone",
          "value": "07777 888888"
        } ]
      } ],
      "subjectType": [ "Patient" ],
      "item": [ {
        "linkId": "59263",
        "prefix": "200",
        "text": "Have you got any of the medication available at the moment?",
        "type": "choice",
        "required": true,
        "repeats": false,
        "option": [ {
          "valueString": "yes, Selected: false"
        }, {
          "valueString": "not sure, Selected: false"
        }, {
          "valueString": "no, Selected: true"
        } ]
      } ]
    }
  }, {
    "fullUrl": "urn:uuid:7d041b1d-c8fc-4673-93f9-82c31ba262cd",
    "resource": {
      "resourceType": "QuestionnaireResponse",
      "id": "7d041b1d-c8fc-4673-93f9-82c31ba262cd",
      "identifier": {
        "value": "59263"
      },
      "questionnaire": {
        "reference": "urn:uuid:2bed7826-8b5c-4092-895b-9803ed516c57"
      },
      "status": "completed",
      "subject": {
        "reference": "urn:uuid:0f2c910d-1f5b-4fe9-97c7-a06371af4265"
      },
      "context": {
        "reference": "urn:uuid:1fbaa6fc-3e41-44db-93c7-cdf9e387d5db"
      },
      "authored": "2021-04-06T11:29:26+00:00",
      "item": [ {
        "linkId": "Tx221367",
        "text": "When is the next dose due?",
        "answer": [ {
          "valueString": "within the next 12 hours"
        } ]
      } ]
    }
  }, {
    "fullUrl": "urn:uuid:2bed7826-8b5c-4092-895b-9803ed516c57",
    "resource": {
      "resourceType": "Questionnaire",
      "id": "2bed7826-8b5c-4092-895b-9803ed516c57",
      "identifier": [ {
        "value": "59263"
      } ],
      "version": "2021-04-06T11:29:26.887Z",
      "status": "active",
      "experimental": false,
      "date": "2021-04-06T11:29:26+00:00",
      "publisher": "User ID: 'HADFIELDR' User name: 'Ryan Hadfield' User skill set: 'T3'",
      "lastReviewDate": "2021-04-06",
      "contact": [ {
        "telecom": [ {
          "system": "phone",
          "value": "07777 888888"
        } ]
      } ],
      "subjectType": [ "Patient" ],
      "item": [ {
        "linkId": "59263",
        "prefix": "100",
        "text": "When is the next dose due?",
        "type": "choice",
        "required": true,
        "repeats": false,
        "option": [ {
          "valueString": "within the next 2 hours, Selected: false"
        }, {
          "valueString": "within the next 6 hours, Selected: false"
        }, {
          "valueString": "within the next 12 hours, Selected: true"
        }, {
          "valueString": "over 12 hours time, Selected: false"
        }, {
          "valueString": "not sure, Selected: false"
        } ]
      } ]
    }
  }, {
    "fullUrl": "urn:uuid:16540d38-efb0-4449-b7b9-0db1ed9bea98",
    "resource": {
      "resourceType": "QuestionnaireResponse",
      "id": "16540d38-efb0-4449-b7b9-0db1ed9bea98",
      "identifier": {
        "value": "59263"
      },
      "questionnaire": {
        "reference": "urn:uuid:c14ec200-10fe-4813-91fd-a834988d1e31"
      },
      "status": "completed",
      "subject": {
        "reference": "urn:uuid:0f2c910d-1f5b-4fe9-97c7-a06371af4265"
      },
      "context": {
        "reference": "urn:uuid:1fbaa6fc-3e41-44db-93c7-cdf9e387d5db"
      },
      "authored": "2021-04-06T11:29:26+00:00",
      "item": [ {
        "linkId": "Tx223441",
        "text": "STRING:SDPCRepeatPrescription",
        "answer": [ {
          "valueString": "\"PC repeat prescription\""
        } ]
      } ]
    }
  }, {
    "fullUrl": "urn:uuid:c14ec200-10fe-4813-91fd-a834988d1e31",
    "resource": {
      "resourceType": "Questionnaire",
      "id": "c14ec200-10fe-4813-91fd-a834988d1e31",
      "identifier": [ {
        "value": "59263"
      } ],
      "version": "2021-04-06T11:29:26.887Z",
      "status": "active",
      "experimental": false,
      "date": "2021-04-06T11:29:26+00:00",
      "publisher": "User ID: 'HADFIELDR' User name: 'Ryan Hadfield' User skill set: 'T3'",
      "lastReviewDate": "2021-04-06",
      "contact": [ {
        "telecom": [ {
          "system": "phone",
          "value": "07777 888888"
        } ]
      } ],
      "subjectType": [ "Patient" ],
      "item": [ {
        "linkId": "59263",
        "prefix": "1200",
        "text": "STRING:SDPCRepeatPrescription",
        "type": "choice",
        "required": true,
        "repeats": false,
        "option": [ {
          "valueString": "\"PC repeat prescription\", Selected: true"
        } ]
      } ]
    }
  }, {
    "fullUrl": "urn:uuid:dbdca931-ae2c-4b34-84ec-22677ef1f061",
    "resource": {
      "resourceType": "QuestionnaireResponse",
      "id": "dbdca931-ae2c-4b34-84ec-22677ef1f061",
      "identifier": {
        "value": "59263"
      },
      "questionnaire": {
        "reference": "urn:uuid:04cdf534-edf7-4dd1-915e-a7474a6c88fe"
      },
      "status": "completed",
      "subject": {
        "reference": "urn:uuid:0f2c910d-1f5b-4fe9-97c7-a06371af4265"
      },
      "context": {
        "reference": "urn:uuid:1fbaa6fc-3e41-44db-93c7-cdf9e387d5db"
      },
      "authored": "2021-04-06T11:29:26+00:00"
    }
  }, {
    "fullUrl": "urn:uuid:04cdf534-edf7-4dd1-915e-a7474a6c88fe",
    "resource": {
      "resourceType": "Questionnaire",
      "id": "04cdf534-edf7-4dd1-915e-a7474a6c88fe",
      "identifier": [ {
        "value": "59263"
      } ],
      "version": "2021-04-06T11:29:26.887Z",
      "status": "active",
      "experimental": false,
      "date": "2021-04-06T11:29:26+00:00",
      "publisher": "User ID: 'HADFIELDR' User name: 'Ryan Hadfield' User skill set: 'T3'",
      "lastReviewDate": "2021-04-06",
      "contact": [ {
        "telecom": [ {
          "system": "phone",
          "value": "07777 888888"
        } ]
      } ],
      "subjectType": [ "Patient" ]
    }
  }, {
    "fullUrl": "urn:uuid:1d2bbed5-1f18-4133-a47d-5e5d6f998614",
    "resource": {
      "resourceType": "QuestionnaireResponse",
      "id": "1d2bbed5-1f18-4133-a47d-5e5d6f998614",
      "identifier": {
        "value": "59263"
      },
      "questionnaire": {
        "reference": "urn:uuid:64a2dd2b-d2a2-4c63-8418-e832ec98daaa"
      },
      "status": "completed",
      "subject": {
        "reference": "urn:uuid:0f2c910d-1f5b-4fe9-97c7-a06371af4265"
      },
      "context": {
        "reference": "urn:uuid:1fbaa6fc-3e41-44db-93c7-cdf9e387d5db"
      },
      "authored": "2021-04-06T11:29:26+00:00"
    }
  }, {
    "fullUrl": "urn:uuid:64a2dd2b-d2a2-4c63-8418-e832ec98daaa",
    "resource": {
      "resourceType": "Questionnaire",
      "id": "64a2dd2b-d2a2-4c63-8418-e832ec98daaa",
      "identifier": [ {
        "value": "59263"
      } ],
      "version": "2021-04-06T11:29:26.887Z",
      "status": "active",
      "experimental": false,
      "date": "2021-04-06T11:29:26+00:00",
      "publisher": "User ID: 'HADFIELDR' User name: 'Ryan Hadfield' User skill set: 'T3'",
      "lastReviewDate": "2021-04-06",
      "contact": [ {
        "telecom": [ {
          "system": "phone",
          "value": "07777 888888"
        } ]
      } ],
      "subjectType": [ "Patient" ]
    }
  }, {
    "fullUrl": "urn:uuid:68b3f431-5cb8-44b2-aea3-f2ced918beaf",
    "resource": {
      "resourceType": "Observation",
      "id": "68b3f431-5cb8-44b2-aea3-f2ced918beaf",
      "status": "final",
      "code": {
        "coding": [ {
          "system": "http://snomed.info/sct",
          "code": "33962009",
          "display": "Presenting complaint"
        } ]
      },
      "subject": {
        "reference": "urn:uuid:0f2c910d-1f5b-4fe9-97c7-a06371af4265"
      },
      "context": {
        "reference": "urn:uuid:1fbaa6fc-3e41-44db-93c7-cdf9e387d5db"
      },
      "valueString": "test"
    }
  }, {
    "fullUrl": "urn:uuid:36edee71-0671-4265-a2a8-1a4a8e4fd97c",
    "resource": {
      "resourceType": "PractitionerRole",
      "id": "36edee71-0671-4265-a2a8-1a4a8e4fd97c",
      "practitioner": {
        "reference": "urn:uuid:5af9d5c7-f7b1-4948-99c8-b0c2688a0331"
      },
      "organization": {
        "reference": "urn:uuid:b64e82d0-0f27-424e-bab3-21d4bb5d3756"
      },
      "code": [ {
        "coding": [ {
          "system": "2.16.840.1.113883.2.1.3.2.4.17.339",
          "code": "DOCTOR",
          "display": "Doctor"
        } ]
      } ]
    }
  }, {
    "fullUrl": "urn:uuid:b64e82d0-0f27-424e-bab3-21d4bb5d3756",
    "resource": {
      "resourceType": "Organization",
      "id": "b64e82d0-0f27-424e-bab3-21d4bb5d3756",
      "identifier": [ {
        "value": "RYE"
      } ],
      "name": "1.SCAS Administrator (SCAS111)"
    }
  }, {
    "fullUrl": "urn:uuid:401ae28d-ca22-4448-bd82-02c052767837",
    "resource": {
      "resourceType": "PractitionerRole",
      "id": "401ae28d-ca22-4448-bd82-02c052767837",
      "practitioner": {
        "reference": "urn:uuid:a1d0e7c5-2b7c-4fb7-9272-1ccec6f61a30"
      },
      "organization": {
        "reference": "urn:uuid:29554e8a-2d82-4ed0-b4d0-053ab523e9af"
      },
      "code": [ {
        "coding": [ {
          "system": "2.16.840.1.113883.2.1.3.2.4.17.196",
          "code": "R0010",
          "display": "Medical Director"
        } ]
      } ]
    }
  }, {
    "fullUrl": "urn:uuid:29554e8a-2d82-4ed0-b4d0-053ab523e9af",
    "resource": {
      "resourceType": "Organization",
      "id": "29554e8a-2d82-4ed0-b4d0-053ab523e9af",
      "identifier": [ {
        "value": "RYE"
      } ],
      "name": "SCAS111"
    }
  }, {
    "fullUrl": "urn:uuid:b6f37dbf-108f-4081-8c86-fccd96544929",
    "resource": {
      "resourceType": "RelatedPerson",
      "id": "b6f37dbf-108f-4081-8c86-fccd96544929",
      "patient": {
        "reference": "urn:uuid:0f2c910d-1f5b-4fe9-97c7-a06371af4265"
      },
      "relationship": {
        "coding": [ {
          "system": "http://hl7.org/fhir/v2/0131",
          "code": "C",
          "display": "Emergency Contact"
        } ]
      },
      "telecom": [ {
        "system": "phone",
        "value": "tel:000000000000"
      } ]
    }
  }, {
    "fullUrl": "urn:uuid:15fb9c0e-7216-4054-86c6-e76dd601233d",
    "resource": {
      "resourceType": "Device",
      "id": "15fb9c0e-7216-4054-86c6-e76dd601233d",
      "model": "111 Adaptor",
      "version": "1.0.1"
    }
  }, {
    "fullUrl": "urn:uuid:277d7730-1e3a-47b5-a74c-ac729784bff2",
    "resource": {
      "resourceType": "List",
      "id": "277d7730-1e3a-47b5-a74c-ac729784bff2",
      "status": "current",
      "mode": "working",
      "title": "111 Report List",
      "code": {
        "coding": [ {
          "system": "http://snomed.info/sct",
          "code": "225390008",
          "display": "Triage"
        } ]
      },
      "subject": {
        "reference": "urn:uuid:0f2c910d-1f5b-4fe9-97c7-a06371af4265"
      },
      "encounter": {
        "reference": "urn:uuid:1fbaa6fc-3e41-44db-93c7-cdf9e387d5db"
      },
      "date": "2022-04-07T07:52:14+00:00",
      "source": {
        "reference": "urn:uuid:15fb9c0e-7216-4054-86c6-e76dd601233d"
      },
      "orderedBy": {
        "coding": [ {
          "system": "http://hl7.org/fhir/list-order",
          "code": "event-date",
          "display": "Sorted by Event Date"
        } ]
      },
      "entry": [ {
        "item": {
          "reference": "urn:uuid:5c06f1b9-0c8a-42c8-8ae7-b0269eea4d8f"
        }
      }, {
        "item": {
          "reference": "urn:uuid:b6f37dbf-108f-4081-8c86-fccd96544929"
        }
      }, {
        "item": {
          "reference": "urn:uuid:5af9d5c7-f7b1-4948-99c8-b0c2688a0331"
        }
      }, {
        "item": {
          "reference": "urn:uuid:4cbadf02-a30e-441d-8927-ab45dda85a0f"
        }
      }, {
        "item": {
          "reference": "urn:uuid:e7e41e09-2332-408a-9203-5db021b90e4f"
        }
      }, {
        "item": {
          "reference": "urn:uuid:29554e8a-2d82-4ed0-b4d0-053ab523e9af"
        }
      }, {
        "item": {
          "reference": "urn:uuid:b64e82d0-0f27-424e-bab3-21d4bb5d3756"
        }
      }, {
        "item": {
          "reference": "urn:uuid:68b3f431-5cb8-44b2-aea3-f2ced918beaf"
        }
      }, {
        "item": {
          "reference": "urn:uuid:a1d0e7c5-2b7c-4fb7-9272-1ccec6f61a30"
        }
      }, {
        "item": {
          "reference": "urn:uuid:86783f47-9214-4a81-aed1-377a80459fae"
        }
      }, {
        "item": {
          "reference": "urn:uuid:eead9233-bf96-4bfe-827a-22fd29bf07c9"
        }
      }, {
        "item": {
          "reference": "urn:uuid:c6cf7742-93be-4ca0-875a-e24bf0fb20e8"
        }
      }, {
        "item": {
          "reference": "urn:uuid:b4fbbc6f-4f93-4c33-b42a-7cf5cb1e8e7d"
        }
      }, {
        "item": {
          "reference": "urn:uuid:52165a91-ef33-4197-8c03-5db5e6dea560"
        }
      }, {
        "item": {
          "reference": "urn:uuid:861effc6-95ae-4e13-a479-47e7af04d5bf"
        }
      }, {
        "item": {
          "reference": "urn:uuid:a143998a-4a1d-4cef-96e1-5d1f83c50645"
        }
      }, {
        "item": {
          "reference": "urn:uuid:da9d6c04-c0e8-47a4-a926-48535860c9de"
        }
      }, {
        "item": {
          "reference": "urn:uuid:15c8195e-79d0-4d70-80c1-faccdf3d228a"
        }
      }, {
        "item": {
          "reference": "urn:uuid:976b786b-c186-4fde-93b4-ee19002317f1"
        }
      }, {
        "item": {
          "reference": "urn:uuid:1da96e69-d4d6-4986-9e88-ab6a2ea7e92f"
        }
      }, {
        "item": {
          "reference": "urn:uuid:1ca039af-76fe-4815-a09a-f83ed1e76ee3"
        }
      }, {
        "item": {
          "reference": "urn:uuid:0f632e8b-d919-4c68-a6eb-fd20f8bc52b3"
        }
      }, {
        "item": {
          "reference": "urn:uuid:5ba1b154-7623-44a5-8617-0c4d8646ba1f"
        }
      }, {
        "item": {
          "reference": "urn:uuid:f8373895-9ddd-4655-bad0-3a348f47ab0c"
        }
      }, {
        "item": {
          "reference": "urn:uuid:c7e7e94a-6b98-4b75-8ded-10e954a1df3f"
        }
      }, {
        "item": {
          "reference": "urn:uuid:2bed7826-8b5c-4092-895b-9803ed516c57"
        }
      }, {
        "item": {
          "reference": "urn:uuid:cfbda41a-d439-41fa-b03e-079ed6bdc95d"
        }
      }, {
        "item": {
          "reference": "urn:uuid:6417c344-702a-4470-8331-430951ba4360"
        }
      }, {
        "item": {
          "reference": "urn:uuid:17b60b6f-d852-4a06-bc79-48be0aae1a5c"
        }
      }, {
        "item": {
          "reference": "urn:uuid:abba2f49-18a6-4bfb-af6a-077e6e5af8d7"
        }
      }, {
        "item": {
          "reference": "urn:uuid:423966bc-79eb-40db-ab0f-16e75fecfdcd"
        }
      }, {
        "item": {
          "reference": "urn:uuid:05ef1fb5-6d56-4656-bd8e-0980ad6fde8b"
        }
      }, {
        "item": {
          "reference": "urn:uuid:d5f01427-bf33-4cb6-8673-e4e0915c944d"
        }
      }, {
        "item": {
          "reference": "urn:uuid:8e44e8c4-2a4d-4059-91c1-e8877a939aee"
        }
      }, {
        "item": {
          "reference": "urn:uuid:7682ea5e-e7f6-420b-942c-7b25d7b52473"
        }
      }, {
        "item": {
          "reference": "urn:uuid:65e767c8-f2d7-4bf3-9711-2b22125e95b4"
        }
      }, {
        "item": {
          "reference": "urn:uuid:dbdca931-ae2c-4b34-84ec-22677ef1f061"
        }
      }, {
        "item": {
          "reference": "urn:uuid:a1677d1b-5c48-40da-b338-77f980e4e370"
        }
      }, {
        "item": {
          "reference": "urn:uuid:be70e32a-aac5-4bbe-8970-d196eaa6f7c5"
        }
      }, {
        "item": {
          "reference": "urn:uuid:e44c28f6-21e3-464d-9a5c-104bdaee796f"
        }
      }, {
        "item": {
          "reference": "urn:uuid:de0412d4-5e39-4ad9-bebc-0bb1cb3a1643"
        }
      }, {
        "item": {
          "reference": "urn:uuid:79c75dc6-e125-451b-8115-928b00004962"
        }
      }, {
        "item": {
          "reference": "urn:uuid:f2068696-213b-48a5-8213-d13b21fadd4f"
        }
      }, {
        "item": {
          "reference": "urn:uuid:6943c130-f7db-4c44-b217-8ae086196643"
        }
      }, {
        "item": {
          "reference": "urn:uuid:eab58f2b-4e54-4eeb-a4f0-140f81edf758"
        }
      }, {
        "item": {
          "reference": "urn:uuid:98bb42f8-0f3b-4d80-98e4-c24ad70d723f"
        }
      }, {
        "item": {
          "reference": "urn:uuid:6b816c2d-99b8-41d6-98dc-0501609f3337"
        }
      }, {
        "item": {
          "reference": "urn:uuid:9f9ec9f3-e61f-4db8-b24d-1932773afb9d"
        }
      }, {
        "item": {
          "reference": "urn:uuid:1d847df5-a165-4db1-9ee5-004b79820667"
        }
      }, {
        "item": {
          "reference": "urn:uuid:9c91c12f-be9d-4e65-af2f-bcad63ee0b55"
        }
      }, {
        "item": {
          "reference": "urn:uuid:545be7e3-c329-444e-b360-f18690ab9627"
        }
      }, {
        "item": {
          "reference": "urn:uuid:e3a6b281-a6c3-461a-8429-d417db795f00"
        }
      }, {
        "item": {
          "reference": "urn:uuid:91dabed0-c2b6-4c79-b169-9670724351ae"
        }
      }, {
        "item": {
          "reference": "urn:uuid:7d54221e-8752-42e9-bacc-bd65463ef731"
        }
      }, {
        "item": {
          "reference": "urn:uuid:818cee01-46dc-4b98-b1da-1772455d657f"
        }
      }, {
        "item": {
          "reference": "urn:uuid:c35782ab-9c26-43dc-b07b-f716198fac21"
        }
      }, {
        "item": {
          "reference": "urn:uuid:838220ad-74d3-4dd0-a085-99ea420a34e9"
        }
      }, {
        "item": {
          "reference": "urn:uuid:f4cc374f-83b3-47ce-b200-fdd8a597f8fe"
        }
      }, {
        "item": {
          "reference": "urn:uuid:4c39ed96-638e-4275-848e-9d6b8774ca76"
        }
      }, {
        "item": {
          "reference": "urn:uuid:ddae921b-b5da-47b2-a92f-6ef5696274b7"
        }
      }, {
        "item": {
          "reference": "urn:uuid:9e99278f-fa21-4ae4-84f4-658ce0f94e9a"
        }
      }, {
        "item": {
          "reference": "urn:uuid:9e1a9ee5-9221-4700-a127-fd4bf987b6f3"
        }
      }, {
        "item": {
          "reference": "urn:uuid:5e678a70-292a-45f5-94f0-0c45a21658a0"
        }
      }, {
        "item": {
          "reference": "urn:uuid:8846c82d-1a4a-45a3-a870-7baab4bfab21"
        }
      }, {
        "item": {
          "reference": "urn:uuid:93db21b9-928a-4ba4-b822-0c8848b6afed"
        }
      }, {
        "item": {
          "reference": "urn:uuid:9005b480-01cc-482a-b13e-a0d373516cae"
        }
      }, {
        "item": {
          "reference": "urn:uuid:b5d5859b-da49-4639-be46-9d37b9973f06"
        }
      }, {
        "item": {
          "reference": "urn:uuid:04cdf534-edf7-4dd1-915e-a7474a6c88fe"
        }
      }, {
        "item": {
          "reference": "urn:uuid:ac70fd10-b4cf-4ebe-bd3d-b2d4d0a2857b"
        }
      }, {
        "item": {
          "reference": "urn:uuid:5fa851c3-1e41-4f9f-9cb1-c10aef298f77"
        }
      }, {
        "item": {
          "reference": "urn:uuid:1c90bff7-e342-4d90-9f6d-e097d26b95e0"
        }
      }, {
        "item": {
          "reference": "urn:uuid:efada9e8-ad33-49c8-a4d2-61452671d18e"
        }
      }, {
        "item": {
          "reference": "urn:uuid:c14ec200-10fe-4813-91fd-a834988d1e31"
        }
      }, {
        "item": {
          "reference": "urn:uuid:abb6cba3-7fbc-40a3-98f6-3ec3384b6d37"
        }
      }, {
        "item": {
          "reference": "urn:uuid:96e311a0-ac8b-4535-b169-c1a2b8376c34"
        }
      }, {
        "item": {
          "reference": "urn:uuid:3e0b242d-c9a5-42c8-a54e-2d719b646516"
        }
      }, {
        "item": {
          "reference": "urn:uuid:1e78d164-f019-4926-b946-e47b3a23d362"
        }
      }, {
        "item": {
          "reference": "urn:uuid:1a3261b7-ba74-40e7-a3d8-9bc62a4ebf58"
        }
      }, {
        "item": {
          "reference": "urn:uuid:16540d38-efb0-4449-b7b9-0db1ed9bea98"
        }
      }, {
        "item": {
          "reference": "urn:uuid:ef7ffa20-6292-4726-a250-a599bbb95dc5"
        }
      }, {
        "item": {
          "reference": "urn:uuid:f583ba60-da3f-4a2d-80f9-205406500d56"
        }
      }, {
        "item": {
          "reference": "urn:uuid:2d657918-0bcd-42e5-9fe3-a5ff7d34e99f"
        }
      }, {
        "item": {
          "reference": "urn:uuid:707291be-4118-420c-ab9e-8382c8bcfbc2"
        }
      }, {
        "item": {
          "reference": "urn:uuid:d1470a97-e9d9-4dc3-a2b8-406ffed401bd"
        }
      }, {
        "item": {
          "reference": "urn:uuid:9d1980e0-174a-4f07-bb10-236a28923785"
        }
      }, {
        "item": {
          "reference": "urn:uuid:6318e8a5-29a8-40ab-98f3-e7c40a2f542a"
        }
      }, {
        "item": {
          "reference": "urn:uuid:866c2b03-8b21-44af-ac95-363bc0c5212b"
        }
      }, {
        "item": {
          "reference": "urn:uuid:3f1a5890-4833-4da2-99f2-233394a34204"
        }
      }, {
        "item": {
          "reference": "urn:uuid:9d1ca4f8-44f9-4773-9aae-405831aa2c99"
        }
      }, {
        "item": {
          "reference": "urn:uuid:57d705ed-0544-4c6d-bf21-50356756da98"
        }
      }, {
        "item": {
          "reference": "urn:uuid:0b72c601-22b7-4abc-bb50-5eed702e050e"
        }
      }, {
        "item": {
          "reference": "urn:uuid:84223605-225d-4d80-8a3f-2793442fab9e"
        }
      }, {
        "item": {
          "reference": "urn:uuid:661c25e4-62dc-483e-bf55-b6ed3616cca5"
        }
      }, {
        "item": {
          "reference": "urn:uuid:c2cfc46e-1583-43f7-b76b-ecb3b7a9900c"
        }
      }, {
        "item": {
          "reference": "urn:uuid:4b88e453-7f78-44be-9f84-6077152024bd"
        }
      }, {
        "item": {
          "reference": "urn:uuid:34d93e55-9052-43b9-a0eb-0e7c85647ba8"
        }
      }, {
        "item": {
          "reference": "urn:uuid:976f20dd-3028-40d6-9c08-cffe04f73ea3"
        }
      }, {
        "item": {
          "reference": "urn:uuid:a1cce73b-7995-4f15-9093-74eade54e949"
        }
      }, {
        "item": {
          "reference": "urn:uuid:8f178203-7cf8-4fbb-b14c-61c0f2a92160"
        }
      }, {
        "item": {
          "reference": "urn:uuid:bfb2c62f-a5ef-4507-a2e8-f09472651655"
        }
      }, {
        "item": {
          "reference": "urn:uuid:4be8120d-1386-4879-ac16-53484708af64"
        }
      }, {
        "item": {
          "reference": "urn:uuid:64a2dd2b-d2a2-4c63-8418-e832ec98daaa"
        }
      }, {
        "item": {
          "reference": "urn:uuid:5eaabbb5-0794-4519-a0b4-ced245e25f63"
        }
      }, {
        "item": {
          "reference": "urn:uuid:1ae6e6d6-90f2-412f-9abb-c7f4faa77e21"
        }
      }, {
        "item": {
          "reference": "urn:uuid:8b089d89-50e6-4ad2-a4e4-ae5d884c686f"
        }
      }, {
        "item": {
          "reference": "urn:uuid:47a59d1a-41b6-4817-b92f-33737be6b1ec"
        }
      }, {
        "item": {
          "reference": "urn:uuid:2aed6116-271c-4b2c-9169-01e01a545d36"
        }
      }, {
        "item": {
          "reference": "urn:uuid:af587217-e631-40d1-9a72-cb6083011a02"
        }
      }, {
        "item": {
          "reference": "urn:uuid:335c7550-7c72-4e30-8db8-0455ce25e4a2"
        }
      }, {
        "item": {
          "reference": "urn:uuid:6ee3d2da-7ef1-4da6-b396-83f3ac97da45"
        }
      }, {
        "item": {
          "reference": "urn:uuid:7d041b1d-c8fc-4673-93f9-82c31ba262cd"
        }
      }, {
        "item": {
          "reference": "urn:uuid:362c8854-aeea-4654-8054-4ade92704aa2"
        }
      }, {
        "item": {
          "reference": "urn:uuid:15bc7e40-19e6-423c-b76a-590f5d1e7dde"
        }
      }, {
        "item": {
          "reference": "urn:uuid:728cd303-1f49-4729-8628-7392091c6166"
        }
      }, {
        "item": {
          "reference": "urn:uuid:939c469f-2a79-45c5-a240-2f265d906f66"
        }
      }, {
        "item": {
          "reference": "urn:uuid:d85a974b-a709-49a9-af53-697f07af1d4b"
        }
      }, {
        "item": {
          "reference": "urn:uuid:1d2bbed5-1f18-4133-a47d-5e5d6f998614"
        }
      }, {
        "item": {
          "reference": "urn:uuid:47ba63ce-b98b-43a5-93ea-a641524de123"
        }
      }, {
        "item": {
          "reference": "urn:uuid:48af4a8e-7a51-486f-8fe0-f55d7109af3a"
        }
      }, {
        "item": {
          "reference": "urn:uuid:58a6b63b-433c-408f-ba4b-4a5619ee72f4"
        }
      }, {
        "item": {
          "reference": "urn:uuid:b9b370ae-5584-459d-a683-3e071b6f87a4"
        }
      }, {
        "item": {
          "reference": "urn:uuid:2e9f8b91-ce30-442a-9e57-5c921d466adb"
        }
      }, {
        "item": {
          "reference": "urn:uuid:ac9006b3-6f2f-4638-96d7-0d777a3cc210"
        }
      }, {
        "item": {
          "reference": "urn:uuid:5316009f-52e1-481f-b0c5-7104024cc7d1"
        }
      }, {
        "item": {
          "reference": "urn:uuid:1cb34fd1-1150-45e0-bd55-0ce6cc81e8ef"
        }
      }, {
        "item": {
          "reference": "urn:uuid:ab07fd61-740e-4ce4-bc7f-1c00fcb8f183"
        }
      }, {
        "item": {
          "reference": "urn:uuid:1fe75d78-45f7-47d6-b690-422875071c3c"
        }
      }, {
        "item": {
          "reference": "urn:uuid:067c345d-addf-44c8-91a9-99e9c3e6d4e8"
        }
      }, {
        "item": {
          "reference": "urn:uuid:c1eeb92f-e088-4e41-aadd-8b075068695e"
        }
      }, {
        "item": {
          "reference": "urn:uuid:9a58fc89-e8b3-4372-87a9-f4043c0ad0ed"
        }
      }, {
        "item": {
          "reference": "urn:uuid:434d4471-6587-4734-8076-29b4cc7f6512"
        }
      }, {
        "item": {
          "reference": "urn:uuid:cff62822-9e3f-4fcb-aca0-997194d65837"
        }
      }, {
        "item": {
          "reference": "urn:uuid:1d514346-9cf9-4e57-8678-23f77b06c997"
        }
      } ]
    }
  } ]
}