{
  "resourceType": "Bundle",
  "identifier": {
    "type": {
      "text": "ClinicalDocument VersionNumber"
    },
    "value": "1"
  },
  "type": "message",
  "entry": [ {
    "fullUrl": "urn:uuid:2F182787-CA39-46F8-9B1C-8E77F3050067",
    "resource": {
      "resourceType": "MessageHeader",
      "id": "2F182787-CA39-46F8-9B1C-8E77F3050067",
      "event": {
        "system": "https://fhir.nhs.uk/STU3/CodeSystem/EventType-1",
        "code": "referral-1",
        "display": "Referral"
      },
      "destination": [ {
        "endpoint": "urn:nhs-uk:addressing:ods:FDH68RPX:DOSServiceID:2000038407"
      } ],
      "timestamp": "2021-04-06T11:29:27.000+00:00",
      "source": {
        "name": "NHS 111 Adaptor",
        "endpoint": "http://localhost:8080/report"
      },
      "reason": {
        "coding": [ {
          "system": "urn:nhs-itk:ns:201005:interaction",
          "code": "urn:nhs-itk:interaction:primaryOutofHourRecipientNHS111CDADocument-v2-0"
        } ]
      }
    }
  }, {
    "fullUrl": "urn:uuid:0017d7da-de0d-4d69-b88a-a3973a061517",
    "resource": {
      "resourceType": "Encounter",
      "id": "0017d7da-de0d-4d69-b88a-a3973a061517",
      "identifier": [ {
        "system": "2.16.840.1.113883.2.1.3.2.4.18.34",
        "value": "CAC4BF79-AF64-47E2-8162-53438279E2F9"
      }, {
        "system": "2.16.840.1.113883.2.1.3.2.4.18.35",
        "value": "59263"
      }, {
        "system": "2.16.840.1.113883.2.1.3.2.4.18.49",
        "value": "CAC4BF79-AF64-47E2-8162-53438279E2F9"
      } ],
      "status": "finished",
      "type": [ {
        "text": "111 Encounter Referral"
      } ],
      "subject": {
        "reference": "urn:uuid:23e461a9-4ebb-4c59-bd38-7a35b0eeaf93"
      },
      "participant": [ {
        "type": [ {
          "coding": [ {
            "system": "http://hl7.org/fhir/ValueSet/encounter-participant-type",
            "code": "PPRF",
            "display": "Author"
          } ]
        } ],
        "individual": {
          "reference": "urn:uuid:26f2b788-8c5b-4422-884f-f9c292d0d9e5"
        }
      }, {
        "type": [ {
          "text": "Informant"
        } ],
        "individual": {
          "reference": "urn:uuid:2682330c-669c-4ef8-aa9d-8ecae2c2d97b"
        }
      }, {
        "type": [ {
          "coding": [ {
            "system": "http://hl7.org/fhir/ValueSet/encounter-participant-type",
            "code": "ATND",
            "display": "Responsible Party"
          } ]
        } ],
        "individual": {
          "reference": "urn:uuid:abc4b964-7132-4899-a7d1-ae8ff6e4de97"
        }
      } ],
      "period": {
        "start": "2021-04-06T11:29:27+00:00"
      },
      "location": [ {
        "location": {
          "reference": "urn:uuid:f43184c0-f303-4eb2-be34-e79cfcde1e59"
        },
        "status": "completed"
      } ],
      "serviceProvider": {
        "reference": "urn:uuid:d55f2d71-ac22-41c7-aad5-9dff73cca545"
      }
    }
  }, {
    "fullUrl": "urn:uuid:d55f2d71-ac22-41c7-aad5-9dff73cca545",
    "resource": {
      "resourceType": "Organization",
      "id": "d55f2d71-ac22-41c7-aad5-9dff73cca545",
      "active": true,
      "type": [ {
        "text": "CST"
      } ],
      "name": "SCAS111"
    }
  }, {
    "fullUrl": "urn:uuid:26f2b788-8c5b-4422-884f-f9c292d0d9e5",
    "resource": {
      "resourceType": "Practitioner",
      "id": "26f2b788-8c5b-4422-884f-f9c292d0d9e5",
      "active": true,
      "name": [ {
        "use": "official",
        "family": "Hadfield",
        "given": [ "Ryan" ]
      } ]
    }
  }, {
    "fullUrl": "urn:uuid:2682330c-669c-4ef8-aa9d-8ecae2c2d97b",
    "resource": {
      "resourceType": "RelatedPerson",
      "id": "2682330c-669c-4ef8-aa9d-8ecae2c2d97b",
      "active": true,
      "patient": {
        "reference": "urn:uuid:23e461a9-4ebb-4c59-bd38-7a35b0eeaf93"
      },
      "relationship": {
        "coding": [ {
          "system": "2.16.840.1.113883.2.1.3.2.4.16.45",
          "code": "99",
          "display": "Not specified"
        } ]
      },
      "name": [ {
        "text": "Test Caller (Carer - Home)"
      } ],
      "telecom": [ {
        "system": "phone",
        "value": "tel:07777888888",
        "use": "home"
      } ],
      "gender": "unknown"
    }
  }, {
    "fullUrl": "urn:uuid:abc4b964-7132-4899-a7d1-ae8ff6e4de97",
    "resource": {
      "resourceType": "Practitioner",
      "id": "abc4b964-7132-4899-a7d1-ae8ff6e4de97",
      "active": true,
      "name": [ {
        "use": "official",
        "family": "Black",
        "given": [ "John" ]
      } ]
    }
  }, {
    "fullUrl": "urn:uuid:f43184c0-f303-4eb2-be34-e79cfcde1e59",
    "resource": {
      "resourceType": "Location",
      "id": "f43184c0-f303-4eb2-be34-e79cfcde1e59",
      "name": "Incident Location",
      "address": {
        "type": "physical",
        "line": [ "12A", "Otter Close", "Bishopstoke", "Eastleigh", "Hampshire" ],
        "postalCode": "SO50 8NF"
      }
    }
  }, {
    "fullUrl": "urn:uuid:23e461a9-4ebb-4c59-bd38-7a35b0eeaf93",
    "resource": {
      "resourceType": "Patient",
      "id": "23e461a9-4ebb-4c59-bd38-7a35b0eeaf93",
      "identifier": [ {
        "extension": [ {
          "url": "https://fhir.hl7.org.uk/STU3/StructureDefinition/Extension-CareConnect-NHSNumberVerificationStatus-1",
          "valueCodeableConcept": {
            "coding": [ {
              "system": "https://fhir.hl7.org.uk/STU3/StructureDefinition/Extension-CareConnect-NHSNumberVerificationStatus-1",
              "code": "02"
            } ]
          }
        } ],
        "system": "https://fhir.nhs.uk/Id/nhs-number",
        "value": "0000000000"
      } ],
      "active": true,
      "name": [ {
        "use": "official",
        "family": "Testone",
        "given": [ "Test" ]
      } ],
      "telecom": [ {
        "system": "phone",
        "value": "tel:000000000000",
        "use": "home"
      }, {
        "system": "phone",
        "value": "tel:01111111111",
        "use": "mobile"
      }, {
        "system": "phone",
        "value": "tel:000000000000"
      } ],
      "gender": "female",
      "birthDate": "1980-01-01",
      "address": [ {
        "use": "home",
        "line": [ "Southern House", "Sparrowgrove", "Otterbourne", "Winchester", "Hampshire" ],
        "postalCode": "SO21 2RU"
      }, {
        "type": "physical",
        "line": [ "12A", "Otter Close", "Bishopstoke", "Eastleigh", "Hampshire" ],
        "postalCode": "SO50 8NF"
      } ]
    }
  }, {
    "fullUrl": "urn:uuid:8c123de2-d113-459b-abf7-f5c0ec1b6d37",
    "resource": {
      "resourceType": "HealthcareService",
      "id": "8c123de2-d113-459b-abf7-f5c0ec1b6d37",
      "active": true,
      "providedBy": {
        "reference": "urn:uuid:10744a74-7419-4fc3-920a-6bc8c116e2e0"
      },
      "location": [ {
        "reference": "urn:uuid:46f75797-29d7-4cb0-8af2-750112ae7c40"
      } ],
      "name": "Lloyds Pharmacy, Stokewood Close, Fair Oak, Eastleigh"
    }
  }, {
    "fullUrl": "urn:uuid:46f75797-29d7-4cb0-8af2-750112ae7c40",
    "resource": {
      "resourceType": "Location",
      "id": "46f75797-29d7-4cb0-8af2-750112ae7c40",
      "managingOrganization": {
        "reference": "urn:uuid:10744a74-7419-4fc3-920a-6bc8c116e2e0"
      }
    }
  }, {
    "fullUrl": "urn:uuid:10744a74-7419-4fc3-920a-6bc8c116e2e0",
    "resource": {
      "resourceType": "Organization",
      "id": "10744a74-7419-4fc3-920a-6bc8c116e2e0",
      "identifier": [ {
        "value": "FDH68RPX"
      } ],
      "type": [ {
        "coding": [ {
          "code": "PRCP",
          "display": "Lloyds Pharmacy, Stokewood Close, Fair Oak, Eastleigh"
        } ]
      } ],
      "name": "Lloyds Pharmacy, Stokewood Close, Fair Oak, Eastleigh"
    }
  }, {
    "fullUrl": "urn:uuid:b3a441d1-625e-4d3a-967d-177fb3a7c1af",
    "resource": {
      "resourceType": "ReferralRequest",
      "id": "b3a441d1-625e-4d3a-967d-177fb3a7c1af",
      "status": "active",
      "intent": "plan",
      "priority": "routine",
      "subject": {
        "reference": "urn:uuid:23e461a9-4ebb-4c59-bd38-7a35b0eeaf93"
      },
      "context": {
        "reference": "urn:uuid:0017d7da-de0d-4d69-b88a-a3973a061517"
      },
      "occurrencePeriod": {
        "start": "2021-09-15T09:16:04+00:00",
        "end": "2021-09-15T10:16:04+00:00"
      },
      "authoredOn": "2021-04-06T11:29:25+00:00",
      "requester": {
        "agent": {
          "reference": "urn:uuid:4b7a541f-bced-46a8-9533-1aa2b7f8f136"
        },
        "onBehalfOf": {
          "reference": "urn:uuid:d55f2d71-ac22-41c7-aad5-9dff73cca545"
        }
      },
      "recipient": [ {
        "reference": "urn:uuid:8c123de2-d113-459b-abf7-f5c0ec1b6d37"
      } ],
      "reasonReference": [ {
        "reference": "urn:uuid:5841ac90-b2f8-4f00-9e93-7755ae26fe3f"
      } ],
      "supportingInfo": [ {
        "reference": "urn:uuid:1f65ced6-f3b8-4a24-a610-25b046faee38"
      } ]
    }
  }, {
    "fullUrl": "urn:uuid:1f65ced6-f3b8-4a24-a610-25b046faee38",
    "resource": {
      "resourceType": "ProcedureRequest",
      "id": "1f65ced6-f3b8-4a24-a610-25b046faee38",
      "status": "active",
      "intent": "plan",
      "priority": "routine",
      "doNotPerform": false,
      "code": {
        "coding": [ {
          "system": "2.16.840.1.113883.2.1.3.2.4.17.325",
          "code": "Dx86",
          "display": "Repeat Prescription required within 12 hours"
        } ]
      },
      "subject": {
        "reference": "urn:uuid:23e461a9-4ebb-4c59-bd38-7a35b0eeaf93"
      },
      "occurrencePeriod": {
        "start": "2021-09-15T09:16:04+00:00",
        "end": "2021-09-15T10:16:04+00:00"
      },
      "reasonReference": [ {
        "reference": "urn:uuid:5841ac90-b2f8-4f00-9e93-7755ae26fe3f"
      } ]
    }
  }, {
    "fullUrl": "urn:uuid:8432d190-10a3-46e0-84e1-835c241ca359",
    "resource": {
      "resourceType": "Composition",
      "id": "8432d190-10a3-46e0-84e1-835c241ca359",
      "identifier": {
        "use": "usual",
        "value": "B66502CD-A9B4-4F3E-83EB-981F572C2C91"
      },
      "status": "final",
      "type": {
        "coding": [ {
          "system": "http://snomed.info/sct",
          "code": "371531000",
          "display": "Report of clinical encounter (record artifact)"
        } ]
      },
      "subject": {
        "reference": "urn:uuid:23e461a9-4ebb-4c59-bd38-7a35b0eeaf93"
      },
      "encounter": {
        "reference": "urn:uuid:0017d7da-de0d-4d69-b88a-a3973a061517"
      },
      "date": "2021-09-15T09:16:04+00:00",
      "author": [ {
        "reference": "urn:uuid:26f2b788-8c5b-4422-884f-f9c292d0d9e5"
      } ],
      "title": "111 Report",
      "confidentiality": "N",
      "section": [ {
        "section": [ {
          "title": "Patient's Reported Condition",
          "text": {
            "status": "generated",
            "div": "<div xmlns=\"http://www.w3.org/1999/xhtml\">&lt;xml-fragment xmlns:npfitlc=&quot;NPFIT:HL7:Localisation&quot; xmlns:xsi=&quot;http://www.w3.org/2001/XMLSchema-instance&quot;&gt;\n                                                    &lt;urn:content xmlns:urn=&quot;urn:hl7-org:v3&quot;&gt;test&lt;/urn:content&gt;\n                                                    &lt;urn:br xmlns:urn=&quot;urn:hl7-org:v3&quot;/&gt;\n                                                &lt;/xml-fragment&gt;</div>"
          }
        }, {
          "title": "Pathways Disposition",
          "text": {
            "status": "generated",
            "div": "<div xmlns=\"http://www.w3.org/1999/xhtml\">&lt;xml-fragment xmlns:xsi=&quot;http://www.w3.org/2001/XMLSchema-instance&quot;&gt;Repeat Prescription required within 12 hours (Dx86)                                         &lt;urn:br xmlns:urn=&quot;urn:hl7-org:v3&quot;/&gt;\n                                                    &lt;urn:br xmlns:urn=&quot;urn:hl7-org:v3&quot;/&gt;                                         Selected service: Lloyds Pharmacy, Stokewood Close, Fair Oak, Eastle&lt;urn:br xmlns:urn=&quot;urn:hl7-org:v3&quot;/&gt;\n                                                &lt;/xml-fragment&gt;</div>"
          }
        }, {
          "title": "Consultation Summary",
          "text": {
            "status": "generated",
            "div": "<div xmlns=\"http://www.w3.org/1999/xhtml\">&lt;xml-fragment xmlns:xsi=&quot;http://www.w3.org/2001/XMLSchema-instance&quot;&gt;Prescription request&lt;urn:br xmlns:urn=&quot;urn:hl7-org:v3&quot;/&gt;Not enough medication until surgery opens&lt;urn:br xmlns:urn=&quot;urn:hl7-org:v3&quot;/&gt;No medication available&lt;urn:br xmlns:urn=&quot;urn:hl7-org:v3&quot;/&gt;Next dose due within next 12 hours&lt;urn:br xmlns:urn=&quot;urn:hl7-org:v3&quot;/&gt;\n                                                &lt;/xml-fragment&gt;</div>"
          }
        }, {
          "title": "Pathways Assessment",
          "text": {
            "status": "generated",
            "div": "<div xmlns=\"http://www.w3.org/1999/xhtml\">&lt;xml-fragment xmlns:xsi=&quot;http://www.w3.org/2001/XMLSchema-instance&quot;&gt;Reason for call menu - continued to next list.&lt;urn:br xmlns:urn=&quot;urn:hl7-org:v3&quot;/&gt;A prescription request was the main reason for the contact.&lt;urn:br xmlns:urn=&quot;urn:hl7-org:v3&quot;/&gt;The main reason for the contact was not a new or worsening illness.&lt;urn:br xmlns:urn=&quot;urn:hl7-org:v3&quot;/&gt;The individual did not have enough medication to last until the surgery next opened.&lt;urn:br xmlns:urn=&quot;urn:hl7-org:v3&quot;/&gt;The medication was suitable for repeat prescribing without further consultation.&lt;urn:br xmlns:urn=&quot;urn:hl7-org:v3&quot;/&gt;The individual had no medication available.&lt;urn:br xmlns:urn=&quot;urn:hl7-org:v3&quot;/&gt;The next dose was due within 12 hours.&lt;urn:br xmlns:urn=&quot;urn:hl7-org:v3&quot;/&gt;Instructions given were: The individual needs a repeat prescription.&lt;urn:br xmlns:urn=&quot;urn:hl7-org:v3&quot;/&gt;Directory of Services referral: Lloyds Pharmacy, Stokewood Close, Fair Oak, Eastleigh&lt;urn:br xmlns:urn=&quot;urn:hl7-org:v3&quot;/&gt;\n                                                &lt;/xml-fragment&gt;</div>"
          }
        }, {
          "title": "Advice Given",
          "text": {
            "status": "generated",
            "div": "<div xmlns=\"http://www.w3.org/1999/xhtml\">&lt;xml-fragment xmlns:xsi=&quot;http://www.w3.org/2001/XMLSchema-instance&quot;&gt;IF THE RECOMMENDED TIMEFRAME FALLS OUTSIDE OPENING HOURS: I will arrange for a clinician to speak to the individual.&lt;urn:br xmlns:urn=&quot;urn:hl7-org:v3&quot;/&gt;\n                                                    &lt;urn:br xmlns:urn=&quot;urn:hl7-org:v3&quot;/&gt;\n                                                &lt;/xml-fragment&gt;</div>"
          }
        }, {
          "title": "Information And Advice Given",
          "text": {
            "status": "generated",
            "div": "<div xmlns=\"http://www.w3.org/1999/xhtml\">&lt;xml-fragment xmlns:npfitlc=&quot;NPFIT:HL7:Localisation&quot; xmlns:xsi=&quot;http://www.w3.org/2001/XMLSchema-instance&quot;/&gt;</div>"
          }
        }, {
          "title": "Disposition",
          "text": {
            "status": "generated",
            "div": "<div xmlns=\"http://www.w3.org/1999/xhtml\">&lt;xml-fragment xmlns:npfitlc=&quot;NPFIT:HL7:Localisation&quot; xmlns:xsi=&quot;http://www.w3.org/2001/XMLSchema-instance&quot;&gt;\n                                                    &lt;urn:content xmlns:urn=&quot;urn:hl7-org:v3&quot;&gt;Repeat Prescription required within 12 hours&lt;urn:br/&gt;\n                                                    &lt;/urn:content&gt;\n                                                    &lt;urn:br xmlns:urn=&quot;urn:hl7-org:v3&quot;/&gt;\n                                                    &lt;urn:br xmlns:urn=&quot;urn:hl7-org:v3&quot;/&gt;\n                                                &lt;/xml-fragment&gt;</div>"
          }
        } ]
      }, {
        "title": "CarePlan",
        "entry": [ {
          "reference": "urn:uuid:2bad0b7c-2970-418d-a691-37f9c884f299"
        } ]
      }, {
        "title": "ReferralRequest",
        "entry": [ {
          "reference": "urn:uuid:b3a441d1-625e-4d3a-967d-177fb3a7c1af"
        } ]
      }, {
        "title": "QuestionnaireResponse",
        "entry": [ {
          "reference": "urn:uuid:c97bf69b-ccc1-4873-a020-e3b8c969a4b6"
        } ]
      }, {
        "title": "QuestionnaireResponse",
        "entry": [ {
          "reference": "urn:uuid:5bb4e889-9051-472e-ba4c-11fb40d6bbaa"
        } ]
      }, {
        "title": "QuestionnaireResponse",
        "entry": [ {
          "reference": "urn:uuid:5aebde04-2186-4f76-8323-3c4fc97ec076"
        } ]
      }, {
        "title": "QuestionnaireResponse",
        "entry": [ {
          "reference": "urn:uuid:cdcc2848-be37-4599-bc11-6cae4dff9746"
        } ]
      }, {
        "title": "QuestionnaireResponse",
        "entry": [ {
          "reference": "urn:uuid:23b20a9c-24cd-4c5a-9246-f197798a2b82"
        } ]
      }, {
        "title": "QuestionnaireResponse",
        "entry": [ {
          "reference": "urn:uuid:7f1a454f-ca8a-42f4-876d-7468d66f0445"
        } ]
      }, {
        "title": "QuestionnaireResponse",
        "entry": [ {
          "reference": "urn:uuid:836bed52-c86d-42cd-9d3c-6b1f8d2e89f0"
        } ]
      }, {
        "title": "QuestionnaireResponse",
        "entry": [ {
          "reference": "urn:uuid:98e0ec0c-4312-49fb-81fa-a8ed082579d4"
        } ]
      }, {
        "title": "QuestionnaireResponse",
        "entry": [ {
          "reference": "urn:uuid:ec23f4eb-1697-44cf-be13-1dc200ef51a3"
        } ]
      }, {
        "title": "QuestionnaireResponse",
        "entry": [ {
          "reference": "urn:uuid:3e89a3b3-8b98-4338-b1ae-3ea2cc1164ee"
        } ]
      }, {
        "title": "QuestionnaireResponse",
        "entry": [ {
          "reference": "urn:uuid:de2e1777-adb7-4ec8-91d1-b912f0964d45"
        } ]
      }, {
        "title": "QuestionnaireResponse",
        "entry": [ {
          "reference": "urn:uuid:b09bd733-5b35-48cd-a143-ba1db03965d3"
        } ]
      }, {
        "title": "QuestionnaireResponse",
        "entry": [ {
          "reference": "urn:uuid:681b37f9-f792-4d5c-9a28-76b735220952"
        } ]
      }, {
        "title": "QuestionnaireResponse",
        "entry": [ {
          "reference": "urn:uuid:08fd8812-e62a-4bfa-b2af-e15ffd8f1e5d"
        } ]
      }, {
        "title": "QuestionnaireResponse",
        "entry": [ {
          "reference": "urn:uuid:623feb52-ef0b-45a8-b5b0-f37a51ef337b"
        } ]
      }, {
        "title": "QuestionnaireResponse",
        "entry": [ {
          "reference": "urn:uuid:5affc562-8273-4552-a521-bf7b5bf9424b"
        } ]
      }, {
        "title": "QuestionnaireResponse",
        "entry": [ {
          "reference": "urn:uuid:0dfabd41-50fc-40f1-b90d-c4a63cf6a43c"
        } ]
      }, {
        "title": "QuestionnaireResponse",
        "entry": [ {
          "reference": "urn:uuid:bee95799-8dea-4f31-8cdd-0fb47af3ea20"
        } ]
      }, {
        "title": "QuestionnaireResponse",
        "entry": [ {
          "reference": "urn:uuid:f920ba6b-cee5-4f39-ae8b-f0dc57f44ba8"
        } ]
      }, {
        "title": "QuestionnaireResponse",
        "entry": [ {
          "reference": "urn:uuid:720bf7d3-7f90-40c1-9492-5b3b2727c38f"
        } ]
      }, {
        "title": "QuestionnaireResponse",
        "entry": [ {
          "reference": "urn:uuid:9d151502-fe6c-49cf-ad63-9d18df8ce469"
        } ]
      }, {
        "title": "QuestionnaireResponse",
        "entry": [ {
          "reference": "urn:uuid:c5c3dc78-706c-4094-90b9-b5548dd10d57"
        } ]
      }, {
        "title": "QuestionnaireResponse",
        "entry": [ {
          "reference": "urn:uuid:ffaa09a2-b0af-436d-b33a-d030a0fc98b1"
        } ]
      }, {
        "title": "QuestionnaireResponse",
        "entry": [ {
          "reference": "urn:uuid:108e3aef-6f98-498e-8272-3ba60bffc52c"
        } ]
      }, {
        "title": "QuestionnaireResponse",
        "entry": [ {
          "reference": "urn:uuid:49b07b95-33ad-4a98-a848-d8fdb0b88f4a"
        } ]
      }, {
        "title": "QuestionnaireResponse",
        "entry": [ {
          "reference": "urn:uuid:8263991b-59ef-47e8-a3ba-f4c6a29073b8"
        } ]
      }, {
        "title": "QuestionnaireResponse",
        "entry": [ {
          "reference": "urn:uuid:689a28a1-ba4a-4f00-a468-90ce47474a7d"
        } ]
      }, {
        "title": "QuestionnaireResponse",
        "entry": [ {
          "reference": "urn:uuid:568b8465-8678-456b-9ef9-bcf8159ecb01"
        } ]
      }, {
        "title": "QuestionnaireResponse",
        "entry": [ {
          "reference": "urn:uuid:942f4361-4c3b-40d0-8a0a-2c8dc9f316c4"
        } ]
      }, {
        "title": "QuestionnaireResponse",
        "entry": [ {
          "reference": "urn:uuid:bc67b726-e7b7-447e-968e-7ca6e0ec13f0"
        } ]
      }, {
        "title": "QuestionnaireResponse",
        "entry": [ {
          "reference": "urn:uuid:e65845d0-4189-47be-96cb-621a07cbfa7a"
        } ]
      }, {
        "title": "QuestionnaireResponse",
        "entry": [ {
          "reference": "urn:uuid:5e801ec9-99ef-4ba0-8c76-fc4609aea2df"
        } ]
      }, {
        "title": "QuestionnaireResponse",
        "entry": [ {
          "reference": "urn:uuid:ba52cc21-2f0f-4d6e-89c0-c836ef40d79f"
        } ]
      }, {
        "title": "QuestionnaireResponse",
        "entry": [ {
          "reference": "urn:uuid:44f553da-fab6-4c31-8771-f487f3d7303a"
        } ]
      }, {
        "title": "QuestionnaireResponse",
        "entry": [ {
          "reference": "urn:uuid:a0e0086a-f842-4400-abf6-5d8a43628304"
        } ]
      }, {
        "title": "QuestionnaireResponse",
        "entry": [ {
          "reference": "urn:uuid:00db0024-f7a0-45d4-91ca-0ef5e3e6ef0a"
        } ]
      }, {
        "title": "QuestionnaireResponse",
        "entry": [ {
          "reference": "urn:uuid:15b02430-b1b4-4be9-ac8f-ef35294e8a3a"
        } ]
      }, {
        "title": "QuestionnaireResponse",
        "entry": [ {
          "reference": "urn:uuid:c75e9ef1-0740-4abf-92a1-eb2ef90289b7"
        } ]
      }, {
        "title": "QuestionnaireResponse",
        "entry": [ {
          "reference": "urn:uuid:5b322d0b-9172-4a8e-9c4a-6c986d7ac8fe"
        } ]
      }, {
        "title": "QuestionnaireResponse",
        "entry": [ {
          "reference": "urn:uuid:81a0206a-ef15-4e05-9907-83750b861a28"
        } ]
      }, {
        "title": "QuestionnaireResponse",
        "entry": [ {
          "reference": "urn:uuid:57ae87f3-5576-46fa-84c9-f32891f2c8b0"
        } ]
      }, {
        "title": "QuestionnaireResponse",
        "entry": [ {
          "reference": "urn:uuid:e2f2a238-8a57-4fde-b7e9-eb436e7eb3c2"
        } ]
      }, {
        "title": "QuestionnaireResponse",
        "entry": [ {
          "reference": "urn:uuid:f10d899d-8896-4e16-9492-a79be78766e0"
        } ]
      }, {
        "title": "QuestionnaireResponse",
        "entry": [ {
          "reference": "urn:uuid:3521315f-ace4-4621-a015-daabf9e1be04"
        } ]
      }, {
        "title": "QuestionnaireResponse",
        "entry": [ {
          "reference": "urn:uuid:d87caeec-5c93-4442-88f7-d190a83b809a"
        } ]
      }, {
        "title": "QuestionnaireResponse",
        "entry": [ {
          "reference": "urn:uuid:be03c849-efd8-4ee4-a9ab-208980de4afd"
        } ]
      }, {
        "title": "QuestionnaireResponse",
        "entry": [ {
          "reference": "urn:uuid:9384ea6a-572b-4466-82eb-b1e13c62d590"
        } ]
      }, {
        "title": "QuestionnaireResponse",
        "entry": [ {
          "reference": "urn:uuid:fc0a8976-047f-45c9-b6f8-c3edd8852e71"
        } ]
      }, {
        "title": "QuestionnaireResponse",
        "entry": [ {
          "reference": "urn:uuid:09c904c4-1b8a-47a4-b75c-d56aae8dd550"
        } ]
      }, {
        "title": "QuestionnaireResponse",
        "entry": [ {
          "reference": "urn:uuid:67271cc3-dace-45ab-913a-fa1bda8157b8"
        } ]
      }, {
        "title": "QuestionnaireResponse",
        "entry": [ {
          "reference": "urn:uuid:60a1a185-cf45-4e68-9b76-b710efb3c9b7"
        } ]
      }, {
        "title": "QuestionnaireResponse",
        "entry": [ {
          "reference": "urn:uuid:67784570-481b-4380-bbec-7fcd115f53ea"
        } ]
      }, {
        "title": "QuestionnaireResponse",
        "entry": [ {
          "reference": "urn:uuid:b70451cb-15e9-4457-b2a3-ee003ab33699"
        } ]
      }, {
        "title": "QuestionnaireResponse",
        "entry": [ {
          "reference": "urn:uuid:e652cd85-6d1f-44a2-ad35-373d39669279"
        } ]
      }, {
        "title": "QuestionnaireResponse",
        "entry": [ {
          "reference": "urn:uuid:2aac682e-9ca1-4881-910f-45392c55b8f5"
        } ]
      }, {
        "title": "QuestionnaireResponse",
        "entry": [ {
          "reference": "urn:uuid:13417565-eb39-4578-93e4-7b8ded5c487d"
        } ]
      }, {
        "title": "QuestionnaireResponse",
        "entry": [ {
          "reference": "urn:uuid:96a113ca-eac1-45ca-86ca-53a47981a09c"
        } ]
      }, {
        "title": "QuestionnaireResponse",
        "entry": [ {
          "reference": "urn:uuid:946223c6-dec2-4a19-84c2-cac7c2beef69"
        } ]
      }, {
        "title": "QuestionnaireResponse",
        "entry": [ {
          "reference": "urn:uuid:835109b8-4fc5-4217-a59e-03d35784af46"
        } ]
      }, {
        "title": "QuestionnaireResponse",
        "entry": [ {
          "reference": "urn:uuid:5433b063-99e1-467f-ac69-00ccfda77d7e"
        } ]
      }, {
        "title": "QuestionnaireResponse",
        "entry": [ {
          "reference": "urn:uuid:743651ff-c1f2-4d1f-a971-bfee3d279ab0"
        } ]
      } ]
    }
  }, {
    "fullUrl": "urn:uuid:2bad0b7c-2970-418d-a691-37f9c884f299",
    "resource": {
      "resourceType": "CarePlan",
      "id": "2bad0b7c-2970-418d-a691-37f9c884f299",
      "status": "completed",
      "intent": "plan",
      "title": "Information And Advice Given",
      "subject": {
        "reference": "urn:uuid:23e461a9-4ebb-4c59-bd38-7a35b0eeaf93"
      },
      "context": {
        "reference": "urn:uuid:0017d7da-de0d-4d69-b88a-a3973a061517"
      },
      "period": {
        "start": "2021-04-06T11:29:27+00:00"
      },
      "addresses": [ {
        "reference": "urn:uuid:5841ac90-b2f8-4f00-9e93-7755ae26fe3f"
      } ]
    }
  }, {
    "fullUrl": "urn:uuid:a711e7f0-ae0a-470d-90a6-a55f48849d9e",
    "resource": {
      "resourceType": "Consent",
      "id": "a711e7f0-ae0a-470d-90a6-a55f48849d9e",
      "identifier": {
        "use": "usual",
        "value": "B66502CD-A9B4-4F3E-83EB-981F572C2C91"
      },
      "status": "active",
      "patient": {
        "reference": "urn:uuid:23e461a9-4ebb-4c59-bd38-7a35b0eeaf93"
      },
      "period": {
        "start": "2021-04-06T11:29:27+00:00"
      },
      "consentingParty": [ {
        "reference": "urn:uuid:23e461a9-4ebb-4c59-bd38-7a35b0eeaf93"
      } ],
      "action": [ {
        "coding": [ {
          "system": "http://snomed.info/sct",
          "code": "425691002",
          "display": "Consent given for electronic record sharing"
        } ],
        "text": "Consent given for electronic record sharing"
      } ],
      "organization": [ {
        "reference": "urn:uuid:d55f2d71-ac22-41c7-aad5-9dff73cca545"
      } ],
      "policyRule": "http://hl7.org/fhir/ConsentPolicy/opt-out",
      "data": [ {
        "meaning": "related",
        "reference": {
          "reference": "urn:uuid:0017d7da-de0d-4d69-b88a-a3973a061517"
        }
      } ]
    }
  }, {
    "fullUrl": "urn:uuid:5841ac90-b2f8-4f00-9e93-7755ae26fe3f",
    "resource": {
      "resourceType": "Condition",
      "id": "5841ac90-b2f8-4f00-9e93-7755ae26fe3f",
      "clinicalStatus": "active",
      "verificationStatus": "unknown",
      "subject": {
        "reference": "urn:uuid:23e461a9-4ebb-4c59-bd38-7a35b0eeaf93"
      },
      "context": {
        "reference": "urn:uuid:0017d7da-de0d-4d69-b88a-a3973a061517"
      },
      "evidence": [ {
        "detail": [ {
          "reference": "urn:uuid:c97bf69b-ccc1-4873-a020-e3b8c969a4b6"
        } ]
      }, {
        "detail": [ {
          "reference": "urn:uuid:5bb4e889-9051-472e-ba4c-11fb40d6bbaa"
        } ]
      }, {
        "detail": [ {
          "reference": "urn:uuid:5aebde04-2186-4f76-8323-3c4fc97ec076"
        } ]
      }, {
        "detail": [ {
          "reference": "urn:uuid:cdcc2848-be37-4599-bc11-6cae4dff9746"
        } ]
      }, {
        "detail": [ {
          "reference": "urn:uuid:23b20a9c-24cd-4c5a-9246-f197798a2b82"
        } ]
      }, {
        "detail": [ {
          "reference": "urn:uuid:7f1a454f-ca8a-42f4-876d-7468d66f0445"
        } ]
      }, {
        "detail": [ {
          "reference": "urn:uuid:836bed52-c86d-42cd-9d3c-6b1f8d2e89f0"
        } ]
      }, {
        "detail": [ {
          "reference": "urn:uuid:98e0ec0c-4312-49fb-81fa-a8ed082579d4"
        } ]
      }, {
        "detail": [ {
          "reference": "urn:uuid:ec23f4eb-1697-44cf-be13-1dc200ef51a3"
        } ]
      }, {
        "detail": [ {
          "reference": "urn:uuid:3e89a3b3-8b98-4338-b1ae-3ea2cc1164ee"
        } ]
      }, {
        "detail": [ {
          "reference": "urn:uuid:de2e1777-adb7-4ec8-91d1-b912f0964d45"
        } ]
      }, {
        "detail": [ {
          "reference": "urn:uuid:b09bd733-5b35-48cd-a143-ba1db03965d3"
        } ]
      }, {
        "detail": [ {
          "reference": "urn:uuid:681b37f9-f792-4d5c-9a28-76b735220952"
        } ]
      }, {
        "detail": [ {
          "reference": "urn:uuid:08fd8812-e62a-4bfa-b2af-e15ffd8f1e5d"
        } ]
      }, {
        "detail": [ {
          "reference": "urn:uuid:623feb52-ef0b-45a8-b5b0-f37a51ef337b"
        } ]
      }, {
        "detail": [ {
          "reference": "urn:uuid:5affc562-8273-4552-a521-bf7b5bf9424b"
        } ]
      }, {
        "detail": [ {
          "reference": "urn:uuid:0dfabd41-50fc-40f1-b90d-c4a63cf6a43c"
        } ]
      }, {
        "detail": [ {
          "reference": "urn:uuid:bee95799-8dea-4f31-8cdd-0fb47af3ea20"
        } ]
      }, {
        "detail": [ {
          "reference": "urn:uuid:f920ba6b-cee5-4f39-ae8b-f0dc57f44ba8"
        } ]
      }, {
        "detail": [ {
          "reference": "urn:uuid:720bf7d3-7f90-40c1-9492-5b3b2727c38f"
        } ]
      }, {
        "detail": [ {
          "reference": "urn:uuid:9d151502-fe6c-49cf-ad63-9d18df8ce469"
        } ]
      }, {
        "detail": [ {
          "reference": "urn:uuid:c5c3dc78-706c-4094-90b9-b5548dd10d57"
        } ]
      }, {
        "detail": [ {
          "reference": "urn:uuid:ffaa09a2-b0af-436d-b33a-d030a0fc98b1"
        } ]
      }, {
        "detail": [ {
          "reference": "urn:uuid:108e3aef-6f98-498e-8272-3ba60bffc52c"
        } ]
      }, {
        "detail": [ {
          "reference": "urn:uuid:49b07b95-33ad-4a98-a848-d8fdb0b88f4a"
        } ]
      }, {
        "detail": [ {
          "reference": "urn:uuid:8263991b-59ef-47e8-a3ba-f4c6a29073b8"
        } ]
      }, {
        "detail": [ {
          "reference": "urn:uuid:689a28a1-ba4a-4f00-a468-90ce47474a7d"
        } ]
      }, {
        "detail": [ {
          "reference": "urn:uuid:568b8465-8678-456b-9ef9-bcf8159ecb01"
        } ]
      }, {
        "detail": [ {
          "reference": "urn:uuid:942f4361-4c3b-40d0-8a0a-2c8dc9f316c4"
        } ]
      }, {
        "detail": [ {
          "reference": "urn:uuid:bc67b726-e7b7-447e-968e-7ca6e0ec13f0"
        } ]
      }, {
        "detail": [ {
          "reference": "urn:uuid:e65845d0-4189-47be-96cb-621a07cbfa7a"
        } ]
      }, {
        "detail": [ {
          "reference": "urn:uuid:5e801ec9-99ef-4ba0-8c76-fc4609aea2df"
        } ]
      }, {
        "detail": [ {
          "reference": "urn:uuid:ba52cc21-2f0f-4d6e-89c0-c836ef40d79f"
        } ]
      }, {
        "detail": [ {
          "reference": "urn:uuid:44f553da-fab6-4c31-8771-f487f3d7303a"
        } ]
      }, {
        "detail": [ {
          "reference": "urn:uuid:a0e0086a-f842-4400-abf6-5d8a43628304"
        } ]
      }, {
        "detail": [ {
          "reference": "urn:uuid:00db0024-f7a0-45d4-91ca-0ef5e3e6ef0a"
        } ]
      }, {
        "detail": [ {
          "reference": "urn:uuid:15b02430-b1b4-4be9-ac8f-ef35294e8a3a"
        } ]
      }, {
        "detail": [ {
          "reference": "urn:uuid:c75e9ef1-0740-4abf-92a1-eb2ef90289b7"
        } ]
      }, {
        "detail": [ {
          "reference": "urn:uuid:5b322d0b-9172-4a8e-9c4a-6c986d7ac8fe"
        } ]
      }, {
        "detail": [ {
          "reference": "urn:uuid:81a0206a-ef15-4e05-9907-83750b861a28"
        } ]
      }, {
        "detail": [ {
          "reference": "urn:uuid:57ae87f3-5576-46fa-84c9-f32891f2c8b0"
        } ]
      }, {
        "detail": [ {
          "reference": "urn:uuid:e2f2a238-8a57-4fde-b7e9-eb436e7eb3c2"
        } ]
      }, {
        "detail": [ {
          "reference": "urn:uuid:f10d899d-8896-4e16-9492-a79be78766e0"
        } ]
      }, {
        "detail": [ {
          "reference": "urn:uuid:3521315f-ace4-4621-a015-daabf9e1be04"
        } ]
      }, {
        "detail": [ {
          "reference": "urn:uuid:d87caeec-5c93-4442-88f7-d190a83b809a"
        } ]
      }, {
        "detail": [ {
          "reference": "urn:uuid:be03c849-efd8-4ee4-a9ab-208980de4afd"
        } ]
      }, {
        "detail": [ {
          "reference": "urn:uuid:9384ea6a-572b-4466-82eb-b1e13c62d590"
        } ]
      }, {
        "detail": [ {
          "reference": "urn:uuid:fc0a8976-047f-45c9-b6f8-c3edd8852e71"
        } ]
      }, {
        "detail": [ {
          "reference": "urn:uuid:09c904c4-1b8a-47a4-b75c-d56aae8dd550"
        } ]
      }, {
        "detail": [ {
          "reference": "urn:uuid:67271cc3-dace-45ab-913a-fa1bda8157b8"
        } ]
      }, {
        "detail": [ {
          "reference": "urn:uuid:60a1a185-cf45-4e68-9b76-b710efb3c9b7"
        } ]
      }, {
        "detail": [ {
          "reference": "urn:uuid:67784570-481b-4380-bbec-7fcd115f53ea"
        } ]
      }, {
        "detail": [ {
          "reference": "urn:uuid:b70451cb-15e9-4457-b2a3-ee003ab33699"
        } ]
      }, {
        "detail": [ {
          "reference": "urn:uuid:e652cd85-6d1f-44a2-ad35-373d39669279"
        } ]
      }, {
        "detail": [ {
          "reference": "urn:uuid:2aac682e-9ca1-4881-910f-45392c55b8f5"
        } ]
      }, {
        "detail": [ {
          "reference": "urn:uuid:13417565-eb39-4578-93e4-7b8ded5c487d"
        } ]
      }, {
        "detail": [ {
          "reference": "urn:uuid:96a113ca-eac1-45ca-86ca-53a47981a09c"
        } ]
      }, {
        "detail": [ {
          "reference": "urn:uuid:946223c6-dec2-4a19-84c2-cac7c2beef69"
        } ]
      }, {
        "detail": [ {
          "reference": "urn:uuid:835109b8-4fc5-4217-a59e-03d35784af46"
        } ]
      }, {
        "detail": [ {
          "reference": "urn:uuid:5433b063-99e1-467f-ac69-00ccfda77d7e"
        } ]
      }, {
        "detail": [ {
          "reference": "urn:uuid:743651ff-c1f2-4d1f-a971-bfee3d279ab0"
        } ]
      } ]
    }
  }, {
    "fullUrl": "urn:uuid:c97bf69b-ccc1-4873-a020-e3b8c969a4b6",
    "resource": {
      "resourceType": "QuestionnaireResponse",
      "id": "c97bf69b-ccc1-4873-a020-e3b8c969a4b6",
      "identifier": {
        "value": "59263"
      },
      "questionnaire": {
        "reference": "urn:uuid:07127feb-f286-4b3a-81ad-dd6dff1e8b06"
      },
      "status": "completed",
      "subject": {
        "reference": "urn:uuid:23e461a9-4ebb-4c59-bd38-7a35b0eeaf93"
      },
      "context": {
        "reference": "urn:uuid:0017d7da-de0d-4d69-b88a-a3973a061517"
      },
      "authored": "2021-04-06T11:29:26+00:00",
      "item": [ {
        "linkId": "Tx220074",
        "text": "What is the reason for the contact?",
        "answer": [ {
          "valueString": "an injury or other health problem"
        } ]
      } ]
    }
  }, {
    "fullUrl": "urn:uuid:07127feb-f286-4b3a-81ad-dd6dff1e8b06",
    "resource": {
      "resourceType": "Questionnaire",
      "id": "07127feb-f286-4b3a-81ad-dd6dff1e8b06",
      "identifier": [ {
        "value": "59263"
      } ],
      "version": "2021-04-06T11:29:26.887Z",
      "status": "active",
      "experimental": false,
      "date": "2021-04-06T11:29:26+00:00",
      "publisher": "User ID: 'HADFIELDR' User name: 'Ryan Hadfield' User skill set: 'T3'",
      "lastReviewDate": "2021-04-06",
      "contact": [ {
        "telecom": [ {
          "system": "phone",
          "value": "07777 888888"
        } ]
      } ],
      "subjectType": [ "Patient" ],
      "item": [ {
        "linkId": "59263",
        "prefix": "5",
        "text": "What is the reason for the contact?",
        "type": "choice",
        "required": true,
        "repeats": false,
        "option": [ {
          "valueString": "an injury or other health problem, Selected: true"
        }, {
          "valueString": "labour or childbirth, Selected: false"
        }, {
          "valueString": "a need to access another healthcare service, Selected: false"
        }, {
          "valueString": "a healthcare professional requesting contact with another clinician, Selected: false"
        }, {
          "valueString": "a report of results or tests, Selected: false"
        }, {
          "valueString": "a possible failure of contraception, Selected: false"
        }, {
          "valueString": "more, Selected: false"
        } ]
      } ]
    }
  }, {
    "fullUrl": "urn:uuid:5bb4e889-9051-472e-ba4c-11fb40d6bbaa",
    "resource": {
      "resourceType": "QuestionnaireResponse",
      "id": "5bb4e889-9051-472e-ba4c-11fb40d6bbaa",
      "identifier": {
        "value": "59263"
      },
      "questionnaire": {
        "reference": "urn:uuid:9dff822f-0914-4e8a-a8c4-9abf77ab893e"
      },
      "status": "completed",
      "subject": {
        "reference": "urn:uuid:23e461a9-4ebb-4c59-bd38-7a35b0eeaf93"
      },
      "context": {
        "reference": "urn:uuid:0017d7da-de0d-4d69-b88a-a3973a061517"
      },
      "authored": "2021-04-06T11:29:26+00:00",
      "item": [ {
        "linkId": "Tx221807",
        "text": "STRING:to'Immediatethreatstolife(SPA/OOHversion)'-'Majorbloodloss'stem",
        "answer": [ {
          "valueString": "\"present\""
        } ]
      } ]
    }
  }, {
    "fullUrl": "urn:uuid:9dff822f-0914-4e8a-a8c4-9abf77ab893e",
    "resource": {
      "resourceType": "Questionnaire",
      "id": "9dff822f-0914-4e8a-a8c4-9abf77ab893e",
      "identifier": [ {
        "value": "59263"
      } ],
      "version": "2021-04-06T11:29:26.887Z",
      "status": "active",
      "experimental": false,
      "date": "2021-04-06T11:29:26+00:00",
      "publisher": "User ID: 'HADFIELDR' User name: 'Ryan Hadfield' User skill set: 'T3'",
      "lastReviewDate": "2021-04-06",
      "contact": [ {
        "telecom": [ {
          "system": "phone",
          "value": "07777 888888"
        } ]
      } ],
      "subjectType": [ "Patient" ],
      "item": [ {
        "linkId": "59263",
        "prefix": "200",
        "text": "STRING:to'Immediatethreatstolife(SPA/OOHversion)'-'Majorbloodloss'stem",
        "type": "choice",
        "required": true,
        "repeats": false,
        "option": [ {
          "valueString": "\"present\", Selected: true"
        } ]
      } ]
    }
  }, {
    "fullUrl": "urn:uuid:5aebde04-2186-4f76-8323-3c4fc97ec076",
    "resource": {
      "resourceType": "QuestionnaireResponse",
      "id": "5aebde04-2186-4f76-8323-3c4fc97ec076",
      "identifier": {
        "value": "59263"
      },
      "questionnaire": {
        "reference": "urn:uuid:cf441d6e-b0ac-4f65-a070-20308c462cf3"
      },
      "status": "completed",
      "subject": {
        "reference": "urn:uuid:23e461a9-4ebb-4c59-bd38-7a35b0eeaf93"
      },
      "context": {
        "reference": "urn:uuid:0017d7da-de0d-4d69-b88a-a3973a061517"
      },
      "authored": "2021-04-06T11:29:26+00:00"
    }
  }, {
    "fullUrl": "urn:uuid:cf441d6e-b0ac-4f65-a070-20308c462cf3",
    "resource": {
      "resourceType": "Questionnaire",
      "id": "cf441d6e-b0ac-4f65-a070-20308c462cf3",
      "identifier": [ {
        "value": "59263"
      } ],
      "version": "2021-04-06T11:29:26.887Z",
      "status": "active",
      "experimental": false,
      "date": "2021-04-06T11:29:26+00:00",
      "publisher": "User ID: 'HADFIELDR' User name: 'Ryan Hadfield' User skill set: 'T3'",
      "lastReviewDate": "2021-04-06",
      "contact": [ {
        "telecom": [ {
          "system": "phone",
          "value": "07777 888888"
        } ]
      } ],
      "subjectType": [ "Patient" ]
    }
  }, {
    "fullUrl": "urn:uuid:cdcc2848-be37-4599-bc11-6cae4dff9746",
    "resource": {
      "resourceType": "QuestionnaireResponse",
      "id": "cdcc2848-be37-4599-bc11-6cae4dff9746",
      "identifier": {
        "value": "59263"
      },
      "questionnaire": {
        "reference": "urn:uuid:64b96e01-92d1-40aa-a6ab-aa2fadf87ba6"
      },
      "status": "completed",
      "subject": {
        "reference": "urn:uuid:23e461a9-4ebb-4c59-bd38-7a35b0eeaf93"
      },
      "context": {
        "reference": "urn:uuid:0017d7da-de0d-4d69-b88a-a3973a061517"
      },
      "authored": "2021-04-06T11:29:26+00:00",
      "item": [ {
        "linkId": "Tx221799",
        "text": "STRING:injury,illnessorlabourestablishedinEntryFlow",
        "answer": [ {
          "valueString": "\"present\""
        } ]
      } ]
    }
  }, {
    "fullUrl": "urn:uuid:64b96e01-92d1-40aa-a6ab-aa2fadf87ba6",
    "resource": {
      "resourceType": "Questionnaire",
      "id": "64b96e01-92d1-40aa-a6ab-aa2fadf87ba6",
      "identifier": [ {
        "value": "59263"
      } ],
      "version": "2021-04-06T11:29:26.887Z",
      "status": "active",
      "experimental": false,
      "date": "2021-04-06T11:29:26+00:00",
      "publisher": "User ID: 'HADFIELDR' User name: 'Ryan Hadfield' User skill set: 'T3'",
      "lastReviewDate": "2021-04-06",
      "contact": [ {
        "telecom": [ {
          "system": "phone",
          "value": "07777 888888"
        } ]
      } ],
      "subjectType": [ "Patient" ],
      "item": [ {
        "linkId": "59263",
        "prefix": "0",
        "text": "STRING:injury,illnessorlabourestablishedinEntryFlow",
        "type": "choice",
        "required": true,
        "repeats": false,
        "option": [ {
          "valueString": "\"present\", Selected: true"
        } ]
      } ]
    }
  }, {
    "fullUrl": "urn:uuid:23b20a9c-24cd-4c5a-9246-f197798a2b82",
    "resource": {
      "resourceType": "QuestionnaireResponse",
      "id": "23b20a9c-24cd-4c5a-9246-f197798a2b82",
      "identifier": {
        "value": "59263"
      },
      "questionnaire": {
        "reference": "urn:uuid:f5ae7d68-8606-443b-b359-67a90a50a98b"
      },
      "status": "completed",
      "subject": {
        "reference": "urn:uuid:23e461a9-4ebb-4c59-bd38-7a35b0eeaf93"
      },
      "context": {
        "reference": "urn:uuid:0017d7da-de0d-4d69-b88a-a3973a061517"
      },
      "authored": "2021-04-06T11:29:26+00:00",
      "item": [ {
        "linkId": "Tx224120",
        "text": "Have you been bleeding RED BLOOD very heavily IN THE LAST 2 HOURS?"
      } ]
    }
  }, {
    "fullUrl": "urn:uuid:f5ae7d68-8606-443b-b359-67a90a50a98b",
    "resource": {
      "resourceType": "Questionnaire",
      "id": "f5ae7d68-8606-443b-b359-67a90a50a98b",
      "identifier": [ {
        "value": "59263"
      } ],
      "version": "2021-04-06T11:29:26.887Z",
      "status": "active",
      "experimental": false,
      "date": "2021-04-06T11:29:26+00:00",
      "publisher": "User ID: 'HADFIELDR' User name: 'Ryan Hadfield' User skill set: 'T3'",
      "lastReviewDate": "2021-04-06",
      "contact": [ {
        "telecom": [ {
          "system": "phone",
          "value": "07777 888888"
        } ]
      } ],
      "subjectType": [ "Patient" ],
      "item": [ {
        "linkId": "59263",
        "prefix": "10100",
        "text": "Have you been bleeding RED BLOOD very heavily IN THE LAST 2 HOURS?",
        "type": "choice",
        "required": true,
        "repeats": false,
        "option": [ {
          "valueString": "yes, Selected: false"
        }, {
          "valueString": "not sure, Selected: false"
        }, {
          "valueString": "no, Selected: false"
        } ]
      } ]
    }
  }, {
    "fullUrl": "urn:uuid:7f1a454f-ca8a-42f4-876d-7468d66f0445",
    "resource": {
      "resourceType": "QuestionnaireResponse",
      "id": "7f1a454f-ca8a-42f4-876d-7468d66f0445",
      "identifier": {
        "value": "59263"
      },
      "questionnaire": {
        "reference": "urn:uuid:ec2cf60c-16ba-444c-b150-4c1f177e7654"
      },
      "status": "completed",
      "subject": {
        "reference": "urn:uuid:23e461a9-4ebb-4c59-bd38-7a35b0eeaf93"
      },
      "context": {
        "reference": "urn:uuid:0017d7da-de0d-4d69-b88a-a3973a061517"
      },
      "authored": "2021-04-06T11:29:26+00:00",
      "item": [ {
        "linkId": "Tx220074",
        "text": "What is the reason for the contact?",
        "answer": [ {
          "valueString": "more"
        } ]
      } ]
    }
  }, {
    "fullUrl": "urn:uuid:ec2cf60c-16ba-444c-b150-4c1f177e7654",
    "resource": {
      "resourceType": "Questionnaire",
      "id": "ec2cf60c-16ba-444c-b150-4c1f177e7654",
      "identifier": [ {
        "value": "59263"
      } ],
      "version": "2021-04-06T11:29:26.887Z",
      "status": "active",
      "experimental": false,
      "date": "2021-04-06T11:29:26+00:00",
      "publisher": "User ID: 'HADFIELDR' User name: 'Ryan Hadfield' User skill set: 'T3'",
      "lastReviewDate": "2021-04-06",
      "contact": [ {
        "telecom": [ {
          "system": "phone",
          "value": "07777 888888"
        } ]
      } ],
      "subjectType": [ "Patient" ],
      "item": [ {
        "linkId": "59263",
        "prefix": "5",
        "text": "What is the reason for the contact?",
        "type": "choice",
        "required": true,
        "repeats": false,
        "option": [ {
          "valueString": "an injury or other health problem, Selected: false"
        }, {
          "valueString": "labour or childbirth, Selected: false"
        }, {
          "valueString": "a need to access another healthcare service, Selected: false"
        }, {
          "valueString": "a healthcare professional requesting contact with another clinician, Selected: false"
        }, {
          "valueString": "a report of results or tests, Selected: false"
        }, {
          "valueString": "a possible failure of contraception, Selected: false"
        }, {
          "valueString": "more, Selected: true"
        } ]
      } ]
    }
  }, {
    "fullUrl": "urn:uuid:836bed52-c86d-42cd-9d3c-6b1f8d2e89f0",
    "resource": {
      "resourceType": "QuestionnaireResponse",
      "id": "836bed52-c86d-42cd-9d3c-6b1f8d2e89f0",
      "identifier": {
        "value": "59263"
      },
      "questionnaire": {
        "reference": "urn:uuid:2ead1883-8c1e-4d5f-b963-972c52699c2b"
      },
      "status": "completed",
      "subject": {
        "reference": "urn:uuid:23e461a9-4ebb-4c59-bd38-7a35b0eeaf93"
      },
      "context": {
        "reference": "urn:uuid:0017d7da-de0d-4d69-b88a-a3973a061517"
      },
      "authored": "2021-04-06T11:29:26+00:00",
      "item": [ {
        "linkId": "Tx221793",
        "text": "STRING:to'Social&information'-further'Callreason'menu",
        "answer": [ {
          "valueString": "\"present\""
        } ]
      } ]
    }
  }, {
    "fullUrl": "urn:uuid:2ead1883-8c1e-4d5f-b963-972c52699c2b",
    "resource": {
      "resourceType": "Questionnaire",
      "id": "2ead1883-8c1e-4d5f-b963-972c52699c2b",
      "identifier": [ {
        "value": "59263"
      } ],
      "version": "2021-04-06T11:29:26.887Z",
      "status": "active",
      "experimental": false,
      "date": "2021-04-06T11:29:26+00:00",
      "publisher": "User ID: 'HADFIELDR' User name: 'Ryan Hadfield' User skill set: 'T3'",
      "lastReviewDate": "2021-04-06",
      "contact": [ {
        "telecom": [ {
          "system": "phone",
          "value": "07777 888888"
        } ]
      } ],
      "subjectType": [ "Patient" ],
      "item": [ {
        "linkId": "59263",
        "prefix": "600",
        "text": "STRING:to'Social&information'-further'Callreason'menu",
        "type": "choice",
        "required": true,
        "repeats": false,
        "option": [ {
          "valueString": "\"present\", Selected: true"
        } ]
      } ]
    }
  }, {
    "fullUrl": "urn:uuid:98e0ec0c-4312-49fb-81fa-a8ed082579d4",
    "resource": {
      "resourceType": "QuestionnaireResponse",
      "id": "98e0ec0c-4312-49fb-81fa-a8ed082579d4",
      "identifier": {
        "value": "59263"
      },
      "questionnaire": {
        "reference": "urn:uuid:2a9907f0-f850-4d92-826a-a93a63cd7735"
      },
      "status": "completed",
      "subject": {
        "reference": "urn:uuid:23e461a9-4ebb-4c59-bd38-7a35b0eeaf93"
      },
      "context": {
        "reference": "urn:uuid:0017d7da-de0d-4d69-b88a-a3973a061517"
      },
      "authored": "2021-04-06T11:29:26+00:00"
    }
  }, {
    "fullUrl": "urn:uuid:2a9907f0-f850-4d92-826a-a93a63cd7735",
    "resource": {
      "resourceType": "Questionnaire",
      "id": "2a9907f0-f850-4d92-826a-a93a63cd7735",
      "identifier": [ {
        "value": "59263"
      } ],
      "version": "2021-04-06T11:29:26.887Z",
      "status": "active",
      "experimental": false,
      "date": "2021-04-06T11:29:26+00:00",
      "publisher": "User ID: 'HADFIELDR' User name: 'Ryan Hadfield' User skill set: 'T3'",
      "lastReviewDate": "2021-04-06",
      "contact": [ {
        "telecom": [ {
          "system": "phone",
          "value": "07777 888888"
        } ]
      } ],
      "subjectType": [ "Patient" ]
    }
  }, {
    "fullUrl": "urn:uuid:ec23f4eb-1697-44cf-be13-1dc200ef51a3",
    "resource": {
      "resourceType": "QuestionnaireResponse",
      "id": "ec23f4eb-1697-44cf-be13-1dc200ef51a3",
      "identifier": {
        "value": "59263"
      },
      "questionnaire": {
        "reference": "urn:uuid:f057ddf2-a397-4160-8a19-dd58084b652f"
      },
      "status": "completed",
      "subject": {
        "reference": "urn:uuid:23e461a9-4ebb-4c59-bd38-7a35b0eeaf93"
      },
      "context": {
        "reference": "urn:uuid:0017d7da-de0d-4d69-b88a-a3973a061517"
      },
      "authored": "2021-04-06T11:29:26+00:00",
      "item": [ {
        "linkId": "Tx221804",
        "text": "STRING:transfertofurthermenuquestionestablishedinEntryFlow",
        "answer": [ {
          "valueString": "\"present\""
        } ]
      } ]
    }
  }, {
    "fullUrl": "urn:uuid:f057ddf2-a397-4160-8a19-dd58084b652f",
    "resource": {
      "resourceType": "Questionnaire",
      "id": "f057ddf2-a397-4160-8a19-dd58084b652f",
      "identifier": [ {
        "value": "59263"
      } ],
      "version": "2021-04-06T11:29:26.887Z",
      "status": "active",
      "experimental": false,
      "date": "2021-04-06T11:29:26+00:00",
      "publisher": "User ID: 'HADFIELDR' User name: 'Ryan Hadfield' User skill set: 'T3'",
      "lastReviewDate": "2021-04-06",
      "contact": [ {
        "telecom": [ {
          "system": "phone",
          "value": "07777 888888"
        } ]
      } ],
      "subjectType": [ "Patient" ],
      "item": [ {
        "linkId": "59263",
        "prefix": "41",
        "text": "STRING:transfertofurthermenuquestionestablishedinEntryFlow",
        "type": "choice",
        "required": true,
        "repeats": false,
        "option": [ {
          "valueString": "\"present\", Selected: true"
        } ]
      } ]
    }
  }, {
    "fullUrl": "urn:uuid:3e89a3b3-8b98-4338-b1ae-3ea2cc1164ee",
    "resource": {
      "resourceType": "QuestionnaireResponse",
      "id": "3e89a3b3-8b98-4338-b1ae-3ea2cc1164ee",
      "identifier": {
        "value": "59263"
      },
      "questionnaire": {
        "reference": "urn:uuid:80206760-4195-4687-a3a9-9bdb8e3ecf37"
      },
      "status": "completed",
      "subject": {
        "reference": "urn:uuid:23e461a9-4ebb-4c59-bd38-7a35b0eeaf93"
      },
      "context": {
        "reference": "urn:uuid:0017d7da-de0d-4d69-b88a-a3973a061517"
      },
      "authored": "2021-04-06T11:29:26+00:00",
      "item": [ {
        "linkId": "Tx224998",
        "text": "SYSTEM_COVIDLEVEL2",
        "answer": [ {
          "valueString": "==\"covidlevel2\""
        } ]
      } ]
    }
  }, {
    "fullUrl": "urn:uuid:80206760-4195-4687-a3a9-9bdb8e3ecf37",
    "resource": {
      "resourceType": "Questionnaire",
      "id": "80206760-4195-4687-a3a9-9bdb8e3ecf37",
      "identifier": [ {
        "value": "59263"
      } ],
      "version": "2021-04-06T11:29:26.887Z",
      "status": "active",
      "experimental": false,
      "date": "2021-04-06T11:29:26+00:00",
      "publisher": "User ID: 'HADFIELDR' User name: 'Ryan Hadfield' User skill set: 'T3'",
      "lastReviewDate": "2021-04-06",
      "contact": [ {
        "telecom": [ {
          "system": "phone",
          "value": "07777 888888"
        } ]
      } ],
      "subjectType": [ "Patient" ],
      "item": [ {
        "linkId": "59263",
        "prefix": "5900",
        "text": "SYSTEM_COVIDLEVEL2",
        "type": "choice",
        "required": true,
        "repeats": false,
        "option": [ {
          "valueString": "==\"covidlevel2\", Selected: true"
        }, {
          "valueString": "*, Selected: false"
        } ]
      } ]
    }
  }, {
    "fullUrl": "urn:uuid:de2e1777-adb7-4ec8-91d1-b912f0964d45",
    "resource": {
      "resourceType": "QuestionnaireResponse",
      "id": "de2e1777-adb7-4ec8-91d1-b912f0964d45",
      "identifier": {
        "value": "59263"
      },
      "questionnaire": {
        "reference": "urn:uuid:a5ce970a-b893-452e-ac2b-288e62afb8af"
      },
      "status": "completed",
      "subject": {
        "reference": "urn:uuid:23e461a9-4ebb-4c59-bd38-7a35b0eeaf93"
      },
      "context": {
        "reference": "urn:uuid:0017d7da-de0d-4d69-b88a-a3973a061517"
      },
      "authored": "2021-04-06T11:29:26+00:00",
      "item": [ {
        "linkId": "Tx225069",
        "text": "What is the reason for the contact?",
        "answer": [ {
          "valueString": "a prescription request"
        } ]
      } ]
    }
  }, {
    "fullUrl": "urn:uuid:a5ce970a-b893-452e-ac2b-288e62afb8af",
    "resource": {
      "resourceType": "Questionnaire",
      "id": "a5ce970a-b893-452e-ac2b-288e62afb8af",
      "identifier": [ {
        "value": "59263"
      } ],
      "version": "2021-04-06T11:29:26.887Z",
      "status": "active",
      "experimental": false,
      "date": "2021-04-06T11:29:26+00:00",
      "publisher": "User ID: 'HADFIELDR' User name: 'Ryan Hadfield' User skill set: 'T3'",
      "lastReviewDate": "2021-04-06",
      "contact": [ {
        "telecom": [ {
          "system": "phone",
          "value": "07777 888888"
        } ]
      } ],
      "subjectType": [ "Patient" ],
      "item": [ {
        "linkId": "59263",
        "prefix": "6000",
        "text": "What is the reason for the contact?",
        "type": "choice",
        "required": true,
        "repeats": false,
        "option": [ {
          "valueString": "a child protection/vulnerable adult concern (specify), Selected: false"
        }, {
          "valueString": "a social or domestic emergency, Selected: false"
        }, {
          "valueString": "a prescription request, Selected: true"
        }, {
          "valueString": "an appointment request, Selected: false"
        }, {
          "valueString": "a request for health or medication information, Selected: false"
        }, {
          "valueString": "public health alert information, Selected: false"
        } ]
      } ]
    }
  }, {
    "fullUrl": "urn:uuid:b09bd733-5b35-48cd-a143-ba1db03965d3",
    "resource": {
      "resourceType": "QuestionnaireResponse",
      "id": "b09bd733-5b35-48cd-a143-ba1db03965d3",
      "identifier": {
        "value": "59263"
      },
      "questionnaire": {
        "reference": "urn:uuid:5d1e7674-1ae3-42bb-9e2d-e88dc5484c77"
      },
      "status": "completed",
      "subject": {
        "reference": "urn:uuid:23e461a9-4ebb-4c59-bd38-7a35b0eeaf93"
      },
      "context": {
        "reference": "urn:uuid:0017d7da-de0d-4d69-b88a-a3973a061517"
      },
      "authored": "2021-04-06T11:29:26+00:00",
      "item": [ {
        "linkId": "Tx220957",
        "text": "Is this contact about a new or worsening illness?",
        "answer": [ {
          "valueString": "no"
        } ]
      } ]
    }
  }, {
    "fullUrl": "urn:uuid:5d1e7674-1ae3-42bb-9e2d-e88dc5484c77",
    "resource": {
      "resourceType": "Questionnaire",
      "id": "5d1e7674-1ae3-42bb-9e2d-e88dc5484c77",
      "identifier": [ {
        "value": "59263"
      } ],
      "version": "2021-04-06T11:29:26.887Z",
      "status": "active",
      "experimental": false,
      "date": "2021-04-06T11:29:26+00:00",
      "publisher": "User ID: 'HADFIELDR' User name: 'Ryan Hadfield' User skill set: 'T3'",
      "lastReviewDate": "2021-04-06",
      "contact": [ {
        "telecom": [ {
          "system": "phone",
          "value": "07777 888888"
        } ]
      } ],
      "subjectType": [ "Patient" ],
      "item": [ {
        "linkId": "59263",
        "prefix": "1400",
        "text": "Is this contact about a new or worsening illness?",
        "type": "choice",
        "required": true,
        "repeats": false,
        "option": [ {
          "valueString": "yes, Selected: false"
        }, {
          "valueString": "not sure, Selected: false"
        }, {
          "valueString": "no, Selected: true"
        } ]
      } ]
    }
  }, {
    "fullUrl": "urn:uuid:681b37f9-f792-4d5c-9a28-76b735220952",
    "resource": {
      "resourceType": "QuestionnaireResponse",
      "id": "681b37f9-f792-4d5c-9a28-76b735220952",
      "identifier": {
        "value": "59263"
      },
      "questionnaire": {
        "reference": "urn:uuid:f195f441-c96a-4bfa-953e-e4085b18502b"
      },
      "status": "completed",
      "subject": {
        "reference": "urn:uuid:23e461a9-4ebb-4c59-bd38-7a35b0eeaf93"
      },
      "context": {
        "reference": "urn:uuid:0017d7da-de0d-4d69-b88a-a3973a061517"
      },
      "authored": "2021-04-06T11:29:26+00:00",
      "item": [ {
        "linkId": "Tx221352",
        "text": "Have you got enough medication to last until the surgery opens?",
        "answer": [ {
          "valueString": "no"
        } ]
      } ]
    }
  }, {
    "fullUrl": "urn:uuid:f195f441-c96a-4bfa-953e-e4085b18502b",
    "resource": {
      "resourceType": "Questionnaire",
      "id": "f195f441-c96a-4bfa-953e-e4085b18502b",
      "identifier": [ {
        "value": "59263"
      } ],
      "version": "2021-04-06T11:29:26.887Z",
      "status": "active",
      "experimental": false,
      "date": "2021-04-06T11:29:26+00:00",
      "publisher": "User ID: 'HADFIELDR' User name: 'Ryan Hadfield' User skill set: 'T3'",
      "lastReviewDate": "2021-04-06",
      "contact": [ {
        "telecom": [ {
          "system": "phone",
          "value": "07777 888888"
        } ]
      } ],
      "subjectType": [ "Patient" ],
      "item": [ {
        "linkId": "59263",
        "prefix": "1500",
        "text": "Have you got enough medication to last until the surgery opens?",
        "type": "choice",
        "required": true,
        "repeats": false,
        "option": [ {
          "valueString": "yes, Selected: false"
        }, {
          "valueString": "not sure, Selected: false"
        }, {
          "valueString": "no, Selected: true"
        } ]
      } ]
    }
  }, {
    "fullUrl": "urn:uuid:08fd8812-e62a-4bfa-b2af-e15ffd8f1e5d",
    "resource": {
      "resourceType": "QuestionnaireResponse",
      "id": "08fd8812-e62a-4bfa-b2af-e15ffd8f1e5d",
      "identifier": {
        "value": "59263"
      },
      "questionnaire": {
        "reference": "urn:uuid:3a1fcfe4-7977-4b6d-9384-4ca4021f38ac"
      },
      "status": "completed",
      "subject": {
        "reference": "urn:uuid:23e461a9-4ebb-4c59-bd38-7a35b0eeaf93"
      },
      "context": {
        "reference": "urn:uuid:0017d7da-de0d-4d69-b88a-a3973a061517"
      },
      "authored": "2021-04-06T11:29:26+00:00"
    }
  }, {
    "fullUrl": "urn:uuid:3a1fcfe4-7977-4b6d-9384-4ca4021f38ac",
    "resource": {
      "resourceType": "Questionnaire",
      "id": "3a1fcfe4-7977-4b6d-9384-4ca4021f38ac",
      "identifier": [ {
        "value": "59263"
      } ],
      "version": "2021-04-06T11:29:26.887Z",
      "status": "active",
      "experimental": false,
      "date": "2021-04-06T11:29:26+00:00",
      "publisher": "User ID: 'HADFIELDR' User name: 'Ryan Hadfield' User skill set: 'T3'",
      "lastReviewDate": "2021-04-06",
      "contact": [ {
        "telecom": [ {
          "system": "phone",
          "value": "07777 888888"
        } ]
      } ],
      "subjectType": [ "Patient" ]
    }
  }, {
    "fullUrl": "urn:uuid:623feb52-ef0b-45a8-b5b0-f37a51ef337b",
    "resource": {
      "resourceType": "QuestionnaireResponse",
      "id": "623feb52-ef0b-45a8-b5b0-f37a51ef337b",
      "identifier": {
        "value": "59263"
      },
      "questionnaire": {
        "reference": "urn:uuid:b7e6a25a-95b2-4a6f-ba8f-6b96116cbc9a"
      },
      "status": "completed",
      "subject": {
        "reference": "urn:uuid:23e461a9-4ebb-4c59-bd38-7a35b0eeaf93"
      },
      "context": {
        "reference": "urn:uuid:0017d7da-de0d-4d69-b88a-a3973a061517"
      },
      "authored": "2021-04-06T11:29:26+00:00",
      "item": [ {
        "linkId": "Tx224231",
        "text": "FROM WHAT YOU HAVE HEARD IS A CONSULTATION WITH A PRESCRIBER NEEDED?",
        "answer": [ {
          "valueString": "yes"
        } ]
      } ]
    }
  }, {
    "fullUrl": "urn:uuid:b7e6a25a-95b2-4a6f-ba8f-6b96116cbc9a",
    "resource": {
      "resourceType": "Questionnaire",
      "id": "b7e6a25a-95b2-4a6f-ba8f-6b96116cbc9a",
      "identifier": [ {
        "value": "59263"
      } ],
      "version": "2021-04-06T11:29:26.887Z",
      "status": "active",
      "experimental": false,
      "date": "2021-04-06T11:29:26+00:00",
      "publisher": "User ID: 'HADFIELDR' User name: 'Ryan Hadfield' User skill set: 'T3'",
      "lastReviewDate": "2021-04-06",
      "contact": [ {
        "telecom": [ {
          "system": "phone",
          "value": "07777 888888"
        } ]
      } ],
      "subjectType": [ "Patient" ],
      "item": [ {
        "linkId": "59263",
        "prefix": "0",
        "text": "FROM WHAT YOU HAVE HEARD IS A CONSULTATION WITH A PRESCRIBER NEEDED?",
        "type": "choice",
        "required": true,
        "repeats": false,
        "option": [ {
          "valueString": "yes, Selected: true"
        }, {
          "valueString": "not sure, Selected: false"
        }, {
          "valueString": "no, Selected: false"
        } ]
      } ]
    }
  }, {
    "fullUrl": "urn:uuid:5affc562-8273-4552-a521-bf7b5bf9424b",
    "resource": {
      "resourceType": "QuestionnaireResponse",
      "id": "5affc562-8273-4552-a521-bf7b5bf9424b",
      "identifier": {
        "value": "59263"
      },
      "questionnaire": {
        "reference": "urn:uuid:e0bbc840-f5ba-44ba-870e-043a579d7b44"
      },
      "status": "completed",
      "subject": {
        "reference": "urn:uuid:23e461a9-4ebb-4c59-bd38-7a35b0eeaf93"
      },
      "context": {
        "reference": "urn:uuid:0017d7da-de0d-4d69-b88a-a3973a061517"
      },
      "authored": "2021-04-06T11:29:26+00:00",
      "item": [ {
        "linkId": "Tx221367",
        "text": "When is the next dose due?",
        "answer": [ {
          "valueString": "within the next 12 hours"
        } ]
      } ]
    }
  }, {
    "fullUrl": "urn:uuid:e0bbc840-f5ba-44ba-870e-043a579d7b44",
    "resource": {
      "resourceType": "Questionnaire",
      "id": "e0bbc840-f5ba-44ba-870e-043a579d7b44",
      "identifier": [ {
        "value": "59263"
      } ],
      "version": "2021-04-06T11:29:26.887Z",
      "status": "active",
      "experimental": false,
      "date": "2021-04-06T11:29:26+00:00",
      "publisher": "User ID: 'HADFIELDR' User name: 'Ryan Hadfield' User skill set: 'T3'",
      "lastReviewDate": "2021-04-06",
      "contact": [ {
        "telecom": [ {
          "system": "phone",
          "value": "07777 888888"
        } ]
      } ],
      "subjectType": [ "Patient" ],
      "item": [ {
        "linkId": "59263",
        "prefix": "2900",
        "text": "When is the next dose due?",
        "type": "choice",
        "required": true,
        "repeats": false,
        "option": [ {
          "valueString": "within the next 2 hours, Selected: false"
        }, {
          "valueString": "within the next 6 hours, Selected: false"
        }, {
          "valueString": "within the next 12 hours, Selected: true"
        }, {
          "valueString": "over 12 hours time, Selected: false"
        }, {
          "valueString": "not sure, Selected: false"
        } ]
      } ]
    }
  }, {
    "fullUrl": "urn:uuid:0dfabd41-50fc-40f1-b90d-c4a63cf6a43c",
    "resource": {
      "resourceType": "QuestionnaireResponse",
      "id": "0dfabd41-50fc-40f1-b90d-c4a63cf6a43c",
      "identifier": {
        "value": "59263"
      },
      "questionnaire": {
        "reference": "urn:uuid:e874ae6c-123d-4fd2-98f3-b49fc06010ca"
      },
      "status": "completed",
      "subject": {
        "reference": "urn:uuid:23e461a9-4ebb-4c59-bd38-7a35b0eeaf93"
      },
      "context": {
        "reference": "urn:uuid:0017d7da-de0d-4d69-b88a-a3973a061517"
      },
      "authored": "2021-04-06T11:29:26+00:00",
      "item": [ {
        "linkId": "Tx221449",
        "text": "STRING:SDPCFullPrimaryCareassessmentandprescribingcapability",
        "answer": [ {
          "valueString": "\"PC full Primary Care assessment and prescribing capability\""
        } ]
      } ]
    }
  }, {
    "fullUrl": "urn:uuid:e874ae6c-123d-4fd2-98f3-b49fc06010ca",
    "resource": {
      "resourceType": "Questionnaire",
      "id": "e874ae6c-123d-4fd2-98f3-b49fc06010ca",
      "identifier": [ {
        "value": "59263"
      } ],
      "version": "2021-04-06T11:29:26.887Z",
      "status": "active",
      "experimental": false,
      "date": "2021-04-06T11:29:26+00:00",
      "publisher": "User ID: 'HADFIELDR' User name: 'Ryan Hadfield' User skill set: 'T3'",
      "lastReviewDate": "2021-04-06",
      "contact": [ {
        "telecom": [ {
          "system": "phone",
          "value": "07777 888888"
        } ]
      } ],
      "subjectType": [ "Patient" ],
      "item": [ {
        "linkId": "59263",
        "prefix": "3000",
        "text": "STRING:SDPCFullPrimaryCareassessmentandprescribingcapability",
        "type": "choice",
        "required": true,
        "repeats": false,
        "option": [ {
          "valueString": "\"PC full Primary Care assessment and prescribing capability\", Selected: true"
        } ]
      } ]
    }
  }, {
    "fullUrl": "urn:uuid:bee95799-8dea-4f31-8cdd-0fb47af3ea20",
    "resource": {
      "resourceType": "QuestionnaireResponse",
      "id": "bee95799-8dea-4f31-8cdd-0fb47af3ea20",
      "identifier": {
        "value": "59263"
      },
      "questionnaire": {
        "reference": "urn:uuid:63b352b5-0524-456e-97ce-127c85340329"
      },
      "status": "completed",
      "subject": {
        "reference": "urn:uuid:23e461a9-4ebb-4c59-bd38-7a35b0eeaf93"
      },
      "context": {
        "reference": "urn:uuid:0017d7da-de0d-4d69-b88a-a3973a061517"
      },
      "authored": "2021-04-06T11:29:26+00:00"
    }
  }, {
    "fullUrl": "urn:uuid:63b352b5-0524-456e-97ce-127c85340329",
    "resource": {
      "resourceType": "Questionnaire",
      "id": "63b352b5-0524-456e-97ce-127c85340329",
      "identifier": [ {
        "value": "59263"
      } ],
      "version": "2021-04-06T11:29:26.887Z",
      "status": "active",
      "experimental": false,
      "date": "2021-04-06T11:29:26+00:00",
      "publisher": "User ID: 'HADFIELDR' User name: 'Ryan Hadfield' User skill set: 'T3'",
      "lastReviewDate": "2021-04-06",
      "contact": [ {
        "telecom": [ {
          "system": "phone",
          "value": "07777 888888"
        } ]
      } ],
      "subjectType": [ "Patient" ]
    }
  }, {
    "fullUrl": "urn:uuid:f920ba6b-cee5-4f39-ae8b-f0dc57f44ba8",
    "resource": {
      "resourceType": "QuestionnaireResponse",
      "id": "f920ba6b-cee5-4f39-ae8b-f0dc57f44ba8",
      "identifier": {
        "value": "59263"
      },
      "questionnaire": {
        "reference": "urn:uuid:db942513-c2ce-479c-8779-34692ee122cd"
      },
      "status": "completed",
      "subject": {
        "reference": "urn:uuid:23e461a9-4ebb-4c59-bd38-7a35b0eeaf93"
      },
      "context": {
        "reference": "urn:uuid:0017d7da-de0d-4d69-b88a-a3973a061517"
      },
      "authored": "2021-04-06T11:29:26+00:00",
      "item": [ {
        "linkId": "Tx220074",
        "text": "What is the reason for the contact?",
        "answer": [ {
          "valueString": "an injury or other health problem"
        } ]
      } ]
    }
  }, {
    "fullUrl": "urn:uuid:db942513-c2ce-479c-8779-34692ee122cd",
    "resource": {
      "resourceType": "Questionnaire",
      "id": "db942513-c2ce-479c-8779-34692ee122cd",
      "identifier": [ {
        "value": "59263"
      } ],
      "version": "2021-04-06T11:29:26.887Z",
      "status": "active",
      "experimental": false,
      "date": "2021-04-06T11:29:26+00:00",
      "publisher": "User ID: 'HADFIELDR' User name: 'Ryan Hadfield' User skill set: 'T3'",
      "lastReviewDate": "2021-04-06",
      "contact": [ {
        "telecom": [ {
          "system": "phone",
          "value": "07777 888888"
        } ]
      } ],
      "subjectType": [ "Patient" ],
      "item": [ {
        "linkId": "59263",
        "prefix": "5",
        "text": "What is the reason for the contact?",
        "type": "choice",
        "required": true,
        "repeats": false,
        "option": [ {
          "valueString": "an injury or other health problem, Selected: true"
        }, {
          "valueString": "labour or childbirth, Selected: false"
        }, {
          "valueString": "a need to access another healthcare service, Selected: false"
        }, {
          "valueString": "a healthcare professional requesting contact with another clinician, Selected: false"
        }, {
          "valueString": "a report of results or tests, Selected: false"
        }, {
          "valueString": "a possible failure of contraception, Selected: false"
        }, {
          "valueString": "more, Selected: false"
        } ]
      } ]
    }
  }, {
    "fullUrl": "urn:uuid:720bf7d3-7f90-40c1-9492-5b3b2727c38f",
    "resource": {
      "resourceType": "QuestionnaireResponse",
      "id": "720bf7d3-7f90-40c1-9492-5b3b2727c38f",
      "identifier": {
        "value": "59263"
      },
      "questionnaire": {
        "reference": "urn:uuid:f14cc726-cbe3-413c-88e3-a4ba4452dea8"
      },
      "status": "completed",
      "subject": {
        "reference": "urn:uuid:23e461a9-4ebb-4c59-bd38-7a35b0eeaf93"
      },
      "context": {
        "reference": "urn:uuid:0017d7da-de0d-4d69-b88a-a3973a061517"
      },
      "authored": "2021-04-06T11:29:26+00:00",
      "item": [ {
        "linkId": "Tx221807",
        "text": "STRING:to'Immediatethreatstolife(SPA/OOHversion)'-'Majorbloodloss'stem",
        "answer": [ {
          "valueString": "\"present\""
        } ]
      } ]
    }
  }, {
    "fullUrl": "urn:uuid:f14cc726-cbe3-413c-88e3-a4ba4452dea8",
    "resource": {
      "resourceType": "Questionnaire",
      "id": "f14cc726-cbe3-413c-88e3-a4ba4452dea8",
      "identifier": [ {
        "value": "59263"
      } ],
      "version": "2021-04-06T11:29:26.887Z",
      "status": "active",
      "experimental": false,
      "date": "2021-04-06T11:29:26+00:00",
      "publisher": "User ID: 'HADFIELDR' User name: 'Ryan Hadfield' User skill set: 'T3'",
      "lastReviewDate": "2021-04-06",
      "contact": [ {
        "telecom": [ {
          "system": "phone",
          "value": "07777 888888"
        } ]
      } ],
      "subjectType": [ "Patient" ],
      "item": [ {
        "linkId": "59263",
        "prefix": "200",
        "text": "STRING:to'Immediatethreatstolife(SPA/OOHversion)'-'Majorbloodloss'stem",
        "type": "choice",
        "required": true,
        "repeats": false,
        "option": [ {
          "valueString": "\"present\", Selected: true"
        } ]
      } ]
    }
  }, {
    "fullUrl": "urn:uuid:9d151502-fe6c-49cf-ad63-9d18df8ce469",
    "resource": {
      "resourceType": "QuestionnaireResponse",
      "id": "9d151502-fe6c-49cf-ad63-9d18df8ce469",
      "identifier": {
        "value": "59263"
      },
      "questionnaire": {
        "reference": "urn:uuid:cf829a09-9559-4e29-8fda-5e1aeeaf7508"
      },
      "status": "completed",
      "subject": {
        "reference": "urn:uuid:23e461a9-4ebb-4c59-bd38-7a35b0eeaf93"
      },
      "context": {
        "reference": "urn:uuid:0017d7da-de0d-4d69-b88a-a3973a061517"
      },
      "authored": "2021-04-06T11:29:26+00:00"
    }
  }, {
    "fullUrl": "urn:uuid:cf829a09-9559-4e29-8fda-5e1aeeaf7508",
    "resource": {
      "resourceType": "Questionnaire",
      "id": "cf829a09-9559-4e29-8fda-5e1aeeaf7508",
      "identifier": [ {
        "value": "59263"
      } ],
      "version": "2021-04-06T11:29:26.887Z",
      "status": "active",
      "experimental": false,
      "date": "2021-04-06T11:29:26+00:00",
      "publisher": "User ID: 'HADFIELDR' User name: 'Ryan Hadfield' User skill set: 'T3'",
      "lastReviewDate": "2021-04-06",
      "contact": [ {
        "telecom": [ {
          "system": "phone",
          "value": "07777 888888"
        } ]
      } ],
      "subjectType": [ "Patient" ]
    }
  }, {
    "fullUrl": "urn:uuid:c5c3dc78-706c-4094-90b9-b5548dd10d57",
    "resource": {
      "resourceType": "QuestionnaireResponse",
      "id": "c5c3dc78-706c-4094-90b9-b5548dd10d57",
      "identifier": {
        "value": "59263"
      },
      "questionnaire": {
        "reference": "urn:uuid:34a1e99a-9640-436d-b3bf-7f4905c85891"
      },
      "status": "completed",
      "subject": {
        "reference": "urn:uuid:23e461a9-4ebb-4c59-bd38-7a35b0eeaf93"
      },
      "context": {
        "reference": "urn:uuid:0017d7da-de0d-4d69-b88a-a3973a061517"
      },
      "authored": "2021-04-06T11:29:26+00:00",
      "item": [ {
        "linkId": "Tx221799",
        "text": "STRING:injury,illnessorlabourestablishedinEntryFlow",
        "answer": [ {
          "valueString": "\"present\""
        } ]
      } ]
    }
  }, {
    "fullUrl": "urn:uuid:34a1e99a-9640-436d-b3bf-7f4905c85891",
    "resource": {
      "resourceType": "Questionnaire",
      "id": "34a1e99a-9640-436d-b3bf-7f4905c85891",
      "identifier": [ {
        "value": "59263"
      } ],
      "version": "2021-04-06T11:29:26.887Z",
      "status": "active",
      "experimental": false,
      "date": "2021-04-06T11:29:26+00:00",
      "publisher": "User ID: 'HADFIELDR' User name: 'Ryan Hadfield' User skill set: 'T3'",
      "lastReviewDate": "2021-04-06",
      "contact": [ {
        "telecom": [ {
          "system": "phone",
          "value": "07777 888888"
        } ]
      } ],
      "subjectType": [ "Patient" ],
      "item": [ {
        "linkId": "59263",
        "prefix": "0",
        "text": "STRING:injury,illnessorlabourestablishedinEntryFlow",
        "type": "choice",
        "required": true,
        "repeats": false,
        "option": [ {
          "valueString": "\"present\", Selected: true"
        } ]
      } ]
    }
  }, {
    "fullUrl": "urn:uuid:ffaa09a2-b0af-436d-b33a-d030a0fc98b1",
    "resource": {
      "resourceType": "QuestionnaireResponse",
      "id": "ffaa09a2-b0af-436d-b33a-d030a0fc98b1",
      "identifier": {
        "value": "59263"
      },
      "questionnaire": {
        "reference": "urn:uuid:ddf42864-d353-4b19-a60b-6d494a728549"
      },
      "status": "completed",
      "subject": {
        "reference": "urn:uuid:23e461a9-4ebb-4c59-bd38-7a35b0eeaf93"
      },
      "context": {
        "reference": "urn:uuid:0017d7da-de0d-4d69-b88a-a3973a061517"
      },
      "authored": "2021-04-06T11:29:26+00:00",
      "item": [ {
        "linkId": "Tx224120",
        "text": "Have you been bleeding RED BLOOD very heavily IN THE LAST 2 HOURS?",
        "answer": [ {
          "valueString": "no"
        } ]
      } ]
    }
  }, {
    "fullUrl": "urn:uuid:ddf42864-d353-4b19-a60b-6d494a728549",
    "resource": {
      "resourceType": "Questionnaire",
      "id": "ddf42864-d353-4b19-a60b-6d494a728549",
      "identifier": [ {
        "value": "59263"
      } ],
      "version": "2021-04-06T11:29:26.887Z",
      "status": "active",
      "experimental": false,
      "date": "2021-04-06T11:29:26+00:00",
      "publisher": "User ID: 'HADFIELDR' User name: 'Ryan Hadfield' User skill set: 'T3'",
      "lastReviewDate": "2021-04-06",
      "contact": [ {
        "telecom": [ {
          "system": "phone",
          "value": "07777 888888"
        } ]
      } ],
      "subjectType": [ "Patient" ],
      "item": [ {
        "linkId": "59263",
        "prefix": "10100",
        "text": "Have you been bleeding RED BLOOD very heavily IN THE LAST 2 HOURS?",
        "type": "choice",
        "required": true,
        "repeats": false,
        "option": [ {
          "valueString": "yes, Selected: false"
        }, {
          "valueString": "not sure, Selected: false"
        }, {
          "valueString": "no, Selected: true"
        } ]
      } ]
    }
  }, {
    "fullUrl": "urn:uuid:108e3aef-6f98-498e-8272-3ba60bffc52c",
    "resource": {
      "resourceType": "QuestionnaireResponse",
      "id": "108e3aef-6f98-498e-8272-3ba60bffc52c",
      "identifier": {
        "value": "59263"
      },
      "questionnaire": {
        "reference": "urn:uuid:7ffbfe0d-497f-476b-b8e7-300943d33c4f"
      },
      "status": "completed",
      "subject": {
        "reference": "urn:uuid:23e461a9-4ebb-4c59-bd38-7a35b0eeaf93"
      },
      "context": {
        "reference": "urn:uuid:0017d7da-de0d-4d69-b88a-a3973a061517"
      },
      "authored": "2021-04-06T11:29:26+00:00",
      "item": [ {
        "linkId": "Tx221343",
        "text": "SocialConcernsExcluded",
        "answer": [ {
          "valueString": "*"
        } ]
      } ]
    }
  }, {
    "fullUrl": "urn:uuid:7ffbfe0d-497f-476b-b8e7-300943d33c4f",
    "resource": {
      "resourceType": "Questionnaire",
      "id": "7ffbfe0d-497f-476b-b8e7-300943d33c4f",
      "identifier": [ {
        "value": "59263"
      } ],
      "version": "2021-04-06T11:29:26.887Z",
      "status": "active",
      "experimental": false,
      "date": "2021-04-06T11:29:26+00:00",
      "publisher": "User ID: 'HADFIELDR' User name: 'Ryan Hadfield' User skill set: 'T3'",
      "lastReviewDate": "2021-04-06",
      "contact": [ {
        "telecom": [ {
          "system": "phone",
          "value": "07777 888888"
        } ]
      } ],
      "subjectType": [ "Patient" ],
      "item": [ {
        "linkId": "59263",
        "prefix": "1100",
        "text": "SocialConcernsExcluded",
        "type": "choice",
        "required": true,
        "repeats": false,
        "option": [ {
          "valueString": "==\"present\", Selected: false"
        }, {
          "valueString": "*, Selected: true"
        } ]
      } ]
    }
  }, {
    "fullUrl": "urn:uuid:49b07b95-33ad-4a98-a848-d8fdb0b88f4a",
    "resource": {
      "resourceType": "QuestionnaireResponse",
      "id": "49b07b95-33ad-4a98-a848-d8fdb0b88f4a",
      "identifier": {
        "value": "59263"
      },
      "questionnaire": {
        "reference": "urn:uuid:08f2faab-12a9-434d-aedc-f728d4851f80"
      },
      "status": "completed",
      "subject": {
        "reference": "urn:uuid:23e461a9-4ebb-4c59-bd38-7a35b0eeaf93"
      },
      "context": {
        "reference": "urn:uuid:0017d7da-de0d-4d69-b88a-a3973a061517"
      },
      "authored": "2021-04-06T11:29:26+00:00",
      "item": [ {
        "linkId": "Tx130011",
        "text": "What is the main problem?"
      } ]
    }
  }, {
    "fullUrl": "urn:uuid:08f2faab-12a9-434d-aedc-f728d4851f80",
    "resource": {
      "resourceType": "Questionnaire",
      "id": "08f2faab-12a9-434d-aedc-f728d4851f80",
      "identifier": [ {
        "value": "59263"
      } ],
      "version": "2021-04-06T11:29:26.887Z",
      "status": "active",
      "experimental": false,
      "date": "2021-04-06T11:29:26+00:00",
      "publisher": "User ID: 'HADFIELDR' User name: 'Ryan Hadfield' User skill set: 'T3'",
      "lastReviewDate": "2021-04-06",
      "contact": [ {
        "telecom": [ {
          "system": "phone",
          "value": "07777 888888"
        } ]
      } ],
      "subjectType": [ "Patient" ],
      "item": [ {
        "linkId": "59263",
        "prefix": "2300",
        "text": "What is the main problem?",
        "type": "choice",
        "required": true,
        "repeats": false,
        "option": [ {
          "valueString": "the individual has been told to follow a particular course of action (specify), Selected: false"
        }, {
          "valueString": "the individual is an identified frequent caller, Selected: false"
        }, {
          "valueString": "injury (specify), Selected: false"
        }, {
          "valueString": "illness or other health problem (specify), Selected: false"
        }, {
          "valueString": "child protection/vulnerable adult concern, Selected: false"
        }, {
          "valueString": "social or domestic emergency, Selected: false"
        }, {
          "valueString": "the environment potentially poses an immediate threat to life (specify), Selected: false"
        } ]
      } ]
    }
  }, {
    "fullUrl": "urn:uuid:8263991b-59ef-47e8-a3ba-f4c6a29073b8",
    "resource": {
      "resourceType": "QuestionnaireResponse",
      "id": "8263991b-59ef-47e8-a3ba-f4c6a29073b8",
      "identifier": {
        "value": "59263"
      },
      "questionnaire": {
        "reference": "urn:uuid:186c0467-dbfa-496e-8792-939588519e3d"
      },
      "status": "completed",
      "subject": {
        "reference": "urn:uuid:23e461a9-4ebb-4c59-bd38-7a35b0eeaf93"
      },
      "context": {
        "reference": "urn:uuid:0017d7da-de0d-4d69-b88a-a3973a061517"
      },
      "authored": "2021-04-06T11:29:26+00:00",
      "item": [ {
        "linkId": "Tx220074",
        "text": "What is the reason for the contact?",
        "answer": [ {
          "valueString": "more"
        } ]
      } ]
    }
  }, {
    "fullUrl": "urn:uuid:186c0467-dbfa-496e-8792-939588519e3d",
    "resource": {
      "resourceType": "Questionnaire",
      "id": "186c0467-dbfa-496e-8792-939588519e3d",
      "identifier": [ {
        "value": "59263"
      } ],
      "version": "2021-04-06T11:29:26.887Z",
      "status": "active",
      "experimental": false,
      "date": "2021-04-06T11:29:26+00:00",
      "publisher": "User ID: 'HADFIELDR' User name: 'Ryan Hadfield' User skill set: 'T3'",
      "lastReviewDate": "2021-04-06",
      "contact": [ {
        "telecom": [ {
          "system": "phone",
          "value": "07777 888888"
        } ]
      } ],
      "subjectType": [ "Patient" ],
      "item": [ {
        "linkId": "59263",
        "prefix": "5",
        "text": "What is the reason for the contact?",
        "type": "choice",
        "required": true,
        "repeats": false,
        "option": [ {
          "valueString": "an injury or other health problem, Selected: false"
        }, {
          "valueString": "labour or childbirth, Selected: false"
        }, {
          "valueString": "a need to access another healthcare service, Selected: false"
        }, {
          "valueString": "a healthcare professional requesting contact with another clinician, Selected: false"
        }, {
          "valueString": "a report of results or tests, Selected: false"
        }, {
          "valueString": "a possible failure of contraception, Selected: false"
        }, {
          "valueString": "more, Selected: true"
        } ]
      } ]
    }
  }, {
    "fullUrl": "urn:uuid:689a28a1-ba4a-4f00-a468-90ce47474a7d",
    "resource": {
      "resourceType": "QuestionnaireResponse",
      "id": "689a28a1-ba4a-4f00-a468-90ce47474a7d",
      "identifier": {
        "value": "59263"
      },
      "questionnaire": {
        "reference": "urn:uuid:59088bb2-811b-4b47-8cdc-2d63c456563f"
      },
      "status": "completed",
      "subject": {
        "reference": "urn:uuid:23e461a9-4ebb-4c59-bd38-7a35b0eeaf93"
      },
      "context": {
        "reference": "urn:uuid:0017d7da-de0d-4d69-b88a-a3973a061517"
      },
      "authored": "2021-04-06T11:29:26+00:00",
      "item": [ {
        "linkId": "Tx221793",
        "text": "STRING:to'Social&information'-further'Callreason'menu",
        "answer": [ {
          "valueString": "\"present\""
        } ]
      } ]
    }
  }, {
    "fullUrl": "urn:uuid:59088bb2-811b-4b47-8cdc-2d63c456563f",
    "resource": {
      "resourceType": "Questionnaire",
      "id": "59088bb2-811b-4b47-8cdc-2d63c456563f",
      "identifier": [ {
        "value": "59263"
      } ],
      "version": "2021-04-06T11:29:26.887Z",
      "status": "active",
      "experimental": false,
      "date": "2021-04-06T11:29:26+00:00",
      "publisher": "User ID: 'HADFIELDR' User name: 'Ryan Hadfield' User skill set: 'T3'",
      "lastReviewDate": "2021-04-06",
      "contact": [ {
        "telecom": [ {
          "system": "phone",
          "value": "07777 888888"
        } ]
      } ],
      "subjectType": [ "Patient" ],
      "item": [ {
        "linkId": "59263",
        "prefix": "600",
        "text": "STRING:to'Social&information'-further'Callreason'menu",
        "type": "choice",
        "required": true,
        "repeats": false,
        "option": [ {
          "valueString": "\"present\", Selected: true"
        } ]
      } ]
    }
  }, {
    "fullUrl": "urn:uuid:568b8465-8678-456b-9ef9-bcf8159ecb01",
    "resource": {
      "resourceType": "QuestionnaireResponse",
      "id": "568b8465-8678-456b-9ef9-bcf8159ecb01",
      "identifier": {
        "value": "59263"
      },
      "questionnaire": {
        "reference": "urn:uuid:b18a5d28-90de-4255-8a29-028d9ed403b0"
      },
      "status": "completed",
      "subject": {
        "reference": "urn:uuid:23e461a9-4ebb-4c59-bd38-7a35b0eeaf93"
      },
      "context": {
        "reference": "urn:uuid:0017d7da-de0d-4d69-b88a-a3973a061517"
      },
      "authored": "2021-04-06T11:29:26+00:00"
    }
  }, {
    "fullUrl": "urn:uuid:b18a5d28-90de-4255-8a29-028d9ed403b0",
    "resource": {
      "resourceType": "Questionnaire",
      "id": "b18a5d28-90de-4255-8a29-028d9ed403b0",
      "identifier": [ {
        "value": "59263"
      } ],
      "version": "2021-04-06T11:29:26.887Z",
      "status": "active",
      "experimental": false,
      "date": "2021-04-06T11:29:26+00:00",
      "publisher": "User ID: 'HADFIELDR' User name: 'Ryan Hadfield' User skill set: 'T3'",
      "lastReviewDate": "2021-04-06",
      "contact": [ {
        "telecom": [ {
          "system": "phone",
          "value": "07777 888888"
        } ]
      } ],
      "subjectType": [ "Patient" ]
    }
  }, {
    "fullUrl": "urn:uuid:942f4361-4c3b-40d0-8a0a-2c8dc9f316c4",
    "resource": {
      "resourceType": "QuestionnaireResponse",
      "id": "942f4361-4c3b-40d0-8a0a-2c8dc9f316c4",
      "identifier": {
        "value": "59263"
      },
      "questionnaire": {
        "reference": "urn:uuid:b00b1686-3255-4cba-a9a1-78768bc8762c"
      },
      "status": "completed",
      "subject": {
        "reference": "urn:uuid:23e461a9-4ebb-4c59-bd38-7a35b0eeaf93"
      },
      "context": {
        "reference": "urn:uuid:0017d7da-de0d-4d69-b88a-a3973a061517"
      },
      "authored": "2021-04-06T11:29:26+00:00",
      "item": [ {
        "linkId": "Tx221804",
        "text": "STRING:transfertofurthermenuquestionestablishedinEntryFlow",
        "answer": [ {
          "valueString": "\"present\""
        } ]
      } ]
    }
  }, {
    "fullUrl": "urn:uuid:b00b1686-3255-4cba-a9a1-78768bc8762c",
    "resource": {
      "resourceType": "Questionnaire",
      "id": "b00b1686-3255-4cba-a9a1-78768bc8762c",
      "identifier": [ {
        "value": "59263"
      } ],
      "version": "2021-04-06T11:29:26.887Z",
      "status": "active",
      "experimental": false,
      "date": "2021-04-06T11:29:26+00:00",
      "publisher": "User ID: 'HADFIELDR' User name: 'Ryan Hadfield' User skill set: 'T3'",
      "lastReviewDate": "2021-04-06",
      "contact": [ {
        "telecom": [ {
          "system": "phone",
          "value": "07777 888888"
        } ]
      } ],
      "subjectType": [ "Patient" ],
      "item": [ {
        "linkId": "59263",
        "prefix": "41",
        "text": "STRING:transfertofurthermenuquestionestablishedinEntryFlow",
        "type": "choice",
        "required": true,
        "repeats": false,
        "option": [ {
          "valueString": "\"present\", Selected: true"
        } ]
      } ]
    }
  }, {
    "fullUrl": "urn:uuid:bc67b726-e7b7-447e-968e-7ca6e0ec13f0",
    "resource": {
      "resourceType": "QuestionnaireResponse",
      "id": "bc67b726-e7b7-447e-968e-7ca6e0ec13f0",
      "identifier": {
        "value": "59263"
      },
      "questionnaire": {
        "reference": "urn:uuid:c4106f4c-b8a8-4352-92ee-7183879d18eb"
      },
      "status": "completed",
      "subject": {
        "reference": "urn:uuid:23e461a9-4ebb-4c59-bd38-7a35b0eeaf93"
      },
      "context": {
        "reference": "urn:uuid:0017d7da-de0d-4d69-b88a-a3973a061517"
      },
      "authored": "2021-04-06T11:29:26+00:00",
      "item": [ {
        "linkId": "Tx224998",
        "text": "SYSTEM_COVIDLEVEL2",
        "answer": [ {
          "valueString": "==\"covidlevel2\""
        } ]
      } ]
    }
  }, {
    "fullUrl": "urn:uuid:c4106f4c-b8a8-4352-92ee-7183879d18eb",
    "resource": {
      "resourceType": "Questionnaire",
      "id": "c4106f4c-b8a8-4352-92ee-7183879d18eb",
      "identifier": [ {
        "value": "59263"
      } ],
      "version": "2021-04-06T11:29:26.887Z",
      "status": "active",
      "experimental": false,
      "date": "2021-04-06T11:29:26+00:00",
      "publisher": "User ID: 'HADFIELDR' User name: 'Ryan Hadfield' User skill set: 'T3'",
      "lastReviewDate": "2021-04-06",
      "contact": [ {
        "telecom": [ {
          "system": "phone",
          "value": "07777 888888"
        } ]
      } ],
      "subjectType": [ "Patient" ],
      "item": [ {
        "linkId": "59263",
        "prefix": "5900",
        "text": "SYSTEM_COVIDLEVEL2",
        "type": "choice",
        "required": true,
        "repeats": false,
        "option": [ {
          "valueString": "==\"covidlevel2\", Selected: true"
        }, {
          "valueString": "*, Selected: false"
        } ]
      } ]
    }
  }, {
    "fullUrl": "urn:uuid:e65845d0-4189-47be-96cb-621a07cbfa7a",
    "resource": {
      "resourceType": "QuestionnaireResponse",
      "id": "e65845d0-4189-47be-96cb-621a07cbfa7a",
      "identifier": {
        "value": "59263"
      },
      "questionnaire": {
        "reference": "urn:uuid:c6095c05-3f22-4a66-af03-58c367733b04"
      },
      "status": "completed",
      "subject": {
        "reference": "urn:uuid:23e461a9-4ebb-4c59-bd38-7a35b0eeaf93"
      },
      "context": {
        "reference": "urn:uuid:0017d7da-de0d-4d69-b88a-a3973a061517"
      },
      "authored": "2021-04-06T11:29:26+00:00",
      "item": [ {
        "linkId": "Tx225069",
        "text": "What is the reason for the contact?",
        "answer": [ {
          "valueString": "a prescription request"
        } ]
      } ]
    }
  }, {
    "fullUrl": "urn:uuid:c6095c05-3f22-4a66-af03-58c367733b04",
    "resource": {
      "resourceType": "Questionnaire",
      "id": "c6095c05-3f22-4a66-af03-58c367733b04",
      "identifier": [ {
        "value": "59263"
      } ],
      "version": "2021-04-06T11:29:26.887Z",
      "status": "active",
      "experimental": false,
      "date": "2021-04-06T11:29:26+00:00",
      "publisher": "User ID: 'HADFIELDR' User name: 'Ryan Hadfield' User skill set: 'T3'",
      "lastReviewDate": "2021-04-06",
      "contact": [ {
        "telecom": [ {
          "system": "phone",
          "value": "07777 888888"
        } ]
      } ],
      "subjectType": [ "Patient" ],
      "item": [ {
        "linkId": "59263",
        "prefix": "6000",
        "text": "What is the reason for the contact?",
        "type": "choice",
        "required": true,
        "repeats": false,
        "option": [ {
          "valueString": "a child protection/vulnerable adult concern (specify), Selected: false"
        }, {
          "valueString": "a social or domestic emergency, Selected: false"
        }, {
          "valueString": "a prescription request, Selected: true"
        }, {
          "valueString": "an appointment request, Selected: false"
        }, {
          "valueString": "a request for health or medication information, Selected: false"
        }, {
          "valueString": "public health alert information, Selected: false"
        } ]
      } ]
    }
  }, {
    "fullUrl": "urn:uuid:5e801ec9-99ef-4ba0-8c76-fc4609aea2df",
    "resource": {
      "resourceType": "QuestionnaireResponse",
      "id": "5e801ec9-99ef-4ba0-8c76-fc4609aea2df",
      "identifier": {
        "value": "59263"
      },
      "questionnaire": {
        "reference": "urn:uuid:d7477384-396b-47ac-8530-d65b3b242856"
      },
      "status": "completed",
      "subject": {
        "reference": "urn:uuid:23e461a9-4ebb-4c59-bd38-7a35b0eeaf93"
      },
      "context": {
        "reference": "urn:uuid:0017d7da-de0d-4d69-b88a-a3973a061517"
      },
      "authored": "2021-04-06T11:29:26+00:00",
      "item": [ {
        "linkId": "Tx220957",
        "text": "Is this contact about a new or worsening illness?",
        "answer": [ {
          "valueString": "no"
        } ]
      } ]
    }
  }, {
    "fullUrl": "urn:uuid:d7477384-396b-47ac-8530-d65b3b242856",
    "resource": {
      "resourceType": "Questionnaire",
      "id": "d7477384-396b-47ac-8530-d65b3b242856",
      "identifier": [ {
        "value": "59263"
      } ],
      "version": "2021-04-06T11:29:26.887Z",
      "status": "active",
      "experimental": false,
      "date": "2021-04-06T11:29:26+00:00",
      "publisher": "User ID: 'HADFIELDR' User name: 'Ryan Hadfield' User skill set: 'T3'",
      "lastReviewDate": "2021-04-06",
      "contact": [ {
        "telecom": [ {
          "system": "phone",
          "value": "07777 888888"
        } ]
      } ],
      "subjectType": [ "Patient" ],
      "item": [ {
        "linkId": "59263",
        "prefix": "1400",
        "text": "Is this contact about a new or worsening illness?",
        "type": "choice",
        "required": true,
        "repeats": false,
        "option": [ {
          "valueString": "yes, Selected: false"
        }, {
          "valueString": "not sure, Selected: false"
        }, {
          "valueString": "no, Selected: true"
        } ]
      } ]
    }
  }, {
    "fullUrl": "urn:uuid:ba52cc21-2f0f-4d6e-89c0-c836ef40d79f",
    "resource": {
      "resourceType": "QuestionnaireResponse",
      "id": "ba52cc21-2f0f-4d6e-89c0-c836ef40d79f",
      "identifier": {
        "value": "59263"
      },
      "questionnaire": {
        "reference": "urn:uuid:9b0efe1c-9f72-4eb2-a605-fdd7568a3452"
      },
      "status": "completed",
      "subject": {
        "reference": "urn:uuid:23e461a9-4ebb-4c59-bd38-7a35b0eeaf93"
      },
      "context": {
        "reference": "urn:uuid:0017d7da-de0d-4d69-b88a-a3973a061517"
      },
      "authored": "2021-04-06T11:29:26+00:00",
      "item": [ {
        "linkId": "Tx221352",
        "text": "Have you got enough medication to last until the surgery opens?",
        "answer": [ {
          "valueString": "no"
        } ]
      } ]
    }
  }, {
    "fullUrl": "urn:uuid:9b0efe1c-9f72-4eb2-a605-fdd7568a3452",
    "resource": {
      "resourceType": "Questionnaire",
      "id": "9b0efe1c-9f72-4eb2-a605-fdd7568a3452",
      "identifier": [ {
        "value": "59263"
      } ],
      "version": "2021-04-06T11:29:26.887Z",
      "status": "active",
      "experimental": false,
      "date": "2021-04-06T11:29:26+00:00",
      "publisher": "User ID: 'HADFIELDR' User name: 'Ryan Hadfield' User skill set: 'T3'",
      "lastReviewDate": "2021-04-06",
      "contact": [ {
        "telecom": [ {
          "system": "phone",
          "value": "07777 888888"
        } ]
      } ],
      "subjectType": [ "Patient" ],
      "item": [ {
        "linkId": "59263",
        "prefix": "1500",
        "text": "Have you got enough medication to last until the surgery opens?",
        "type": "choice",
        "required": true,
        "repeats": false,
        "option": [ {
          "valueString": "yes, Selected: false"
        }, {
          "valueString": "not sure, Selected: false"
        }, {
          "valueString": "no, Selected: true"
        } ]
      } ]
    }
  }, {
    "fullUrl": "urn:uuid:44f553da-fab6-4c31-8771-f487f3d7303a",
    "resource": {
      "resourceType": "QuestionnaireResponse",
      "id": "44f553da-fab6-4c31-8771-f487f3d7303a",
      "identifier": {
        "value": "59263"
      },
      "questionnaire": {
        "reference": "urn:uuid:ff98c696-0293-41a1-9eec-b8745d68b402"
      },
      "status": "completed",
      "subject": {
        "reference": "urn:uuid:23e461a9-4ebb-4c59-bd38-7a35b0eeaf93"
      },
      "context": {
        "reference": "urn:uuid:0017d7da-de0d-4d69-b88a-a3973a061517"
      },
      "authored": "2021-04-06T11:29:26+00:00"
    }
  }, {
    "fullUrl": "urn:uuid:ff98c696-0293-41a1-9eec-b8745d68b402",
    "resource": {
      "resourceType": "Questionnaire",
      "id": "ff98c696-0293-41a1-9eec-b8745d68b402",
      "identifier": [ {
        "value": "59263"
      } ],
      "version": "2021-04-06T11:29:26.887Z",
      "status": "active",
      "experimental": false,
      "date": "2021-04-06T11:29:26+00:00",
      "publisher": "User ID: 'HADFIELDR' User name: 'Ryan Hadfield' User skill set: 'T3'",
      "lastReviewDate": "2021-04-06",
      "contact": [ {
        "telecom": [ {
          "system": "phone",
          "value": "07777 888888"
        } ]
      } ],
      "subjectType": [ "Patient" ]
    }
  }, {
    "fullUrl": "urn:uuid:a0e0086a-f842-4400-abf6-5d8a43628304",
    "resource": {
      "resourceType": "QuestionnaireResponse",
      "id": "a0e0086a-f842-4400-abf6-5d8a43628304",
      "identifier": {
        "value": "59263"
      },
      "questionnaire": {
        "reference": "urn:uuid:a89ed900-1748-4721-9309-848ef3356763"
      },
      "status": "completed",
      "subject": {
        "reference": "urn:uuid:23e461a9-4ebb-4c59-bd38-7a35b0eeaf93"
      },
      "context": {
        "reference": "urn:uuid:0017d7da-de0d-4d69-b88a-a3973a061517"
      },
      "authored": "2021-04-06T11:29:26+00:00",
      "item": [ {
        "linkId": "Tx224231",
        "text": "FROM WHAT YOU HAVE HEARD IS A CONSULTATION WITH A PRESCRIBER NEEDED?",
        "answer": [ {
          "valueString": "no"
        } ]
      } ]
    }
  }, {
    "fullUrl": "urn:uuid:a89ed900-1748-4721-9309-848ef3356763",
    "resource": {
      "resourceType": "Questionnaire",
      "id": "a89ed900-1748-4721-9309-848ef3356763",
      "identifier": [ {
        "value": "59263"
      } ],
      "version": "2021-04-06T11:29:26.887Z",
      "status": "active",
      "experimental": false,
      "date": "2021-04-06T11:29:26+00:00",
      "publisher": "User ID: 'HADFIELDR' User name: 'Ryan Hadfield' User skill set: 'T3'",
      "lastReviewDate": "2021-04-06",
      "contact": [ {
        "telecom": [ {
          "system": "phone",
          "value": "07777 888888"
        } ]
      } ],
      "subjectType": [ "Patient" ],
      "item": [ {
        "linkId": "59263",
        "prefix": "0",
        "text": "FROM WHAT YOU HAVE HEARD IS A CONSULTATION WITH A PRESCRIBER NEEDED?",
        "type": "choice",
        "required": true,
        "repeats": false,
        "option": [ {
          "valueString": "yes, Selected: false"
        }, {
          "valueString": "not sure, Selected: false"
        }, {
          "valueString": "no, Selected: true"
        } ]
      } ]
    }
  }, {
    "fullUrl": "urn:uuid:00db0024-f7a0-45d4-91ca-0ef5e3e6ef0a",
    "resource": {
      "resourceType": "QuestionnaireResponse",
      "id": "00db0024-f7a0-45d4-91ca-0ef5e3e6ef0a",
      "identifier": {
        "value": "59263"
      },
      "questionnaire": {
        "reference": "urn:uuid:f1575929-e4cf-49d3-a7e0-779a9c5c2b97"
      },
      "status": "completed",
      "subject": {
        "reference": "urn:uuid:23e461a9-4ebb-4c59-bd38-7a35b0eeaf93"
      },
      "context": {
        "reference": "urn:uuid:0017d7da-de0d-4d69-b88a-a3973a061517"
      },
      "authored": "2021-04-06T11:29:26+00:00",
      "item": [ {
        "linkId": "Tx222687",
        "text": "Have you got any of the medication available at the moment?",
        "answer": [ {
          "valueString": "no"
        } ]
      } ]
    }
  }, {
    "fullUrl": "urn:uuid:f1575929-e4cf-49d3-a7e0-779a9c5c2b97",
    "resource": {
      "resourceType": "Questionnaire",
      "id": "f1575929-e4cf-49d3-a7e0-779a9c5c2b97",
      "identifier": [ {
        "value": "59263"
      } ],
      "version": "2021-04-06T11:29:26.887Z",
      "status": "active",
      "experimental": false,
      "date": "2021-04-06T11:29:26+00:00",
      "publisher": "User ID: 'HADFIELDR' User name: 'Ryan Hadfield' User skill set: 'T3'",
      "lastReviewDate": "2021-04-06",
      "contact": [ {
        "telecom": [ {
          "system": "phone",
          "value": "07777 888888"
        } ]
      } ],
      "subjectType": [ "Patient" ],
      "item": [ {
        "linkId": "59263",
        "prefix": "200",
        "text": "Have you got any of the medication available at the moment?",
        "type": "choice",
        "required": true,
        "repeats": false,
        "option": [ {
          "valueString": "yes, Selected: false"
        }, {
          "valueString": "not sure, Selected: false"
        }, {
          "valueString": "no, Selected: true"
        } ]
      } ]
    }
  }, {
    "fullUrl": "urn:uuid:15b02430-b1b4-4be9-ac8f-ef35294e8a3a",
    "resource": {
      "resourceType": "QuestionnaireResponse",
      "id": "15b02430-b1b4-4be9-ac8f-ef35294e8a3a",
      "identifier": {
        "value": "59263"
      },
      "questionnaire": {
        "reference": "urn:uuid:efedc831-e985-4fd1-929b-3d9b51c603e5"
      },
      "status": "completed",
      "subject": {
        "reference": "urn:uuid:23e461a9-4ebb-4c59-bd38-7a35b0eeaf93"
      },
      "context": {
        "reference": "urn:uuid:0017d7da-de0d-4d69-b88a-a3973a061517"
      },
      "authored": "2021-04-06T11:29:26+00:00",
      "item": [ {
        "linkId": "Tx221367",
        "text": "When is the next dose due?",
        "answer": [ {
          "valueString": "within the next 12 hours"
        } ]
      } ]
    }
  }, {
    "fullUrl": "urn:uuid:efedc831-e985-4fd1-929b-3d9b51c603e5",
    "resource": {
      "resourceType": "Questionnaire",
      "id": "efedc831-e985-4fd1-929b-3d9b51c603e5",
      "identifier": [ {
        "value": "59263"
      } ],
      "version": "2021-04-06T11:29:26.887Z",
      "status": "active",
      "experimental": false,
      "date": "2021-04-06T11:29:26+00:00",
      "publisher": "User ID: 'HADFIELDR' User name: 'Ryan Hadfield' User skill set: 'T3'",
      "lastReviewDate": "2021-04-06",
      "contact": [ {
        "telecom": [ {
          "system": "phone",
          "value": "07777 888888"
        } ]
      } ],
      "subjectType": [ "Patient" ],
      "item": [ {
        "linkId": "59263",
        "prefix": "100",
        "text": "When is the next dose due?",
        "type": "choice",
        "required": true,
        "repeats": false,
        "option": [ {
          "valueString": "within the next 2 hours, Selected: false"
        }, {
          "valueString": "within the next 6 hours, Selected: false"
        }, {
          "valueString": "within the next 12 hours, Selected: true"
        }, {
          "valueString": "over 12 hours time, Selected: false"
        }, {
          "valueString": "not sure, Selected: false"
        } ]
      } ]
    }
  }, {
    "fullUrl": "urn:uuid:c75e9ef1-0740-4abf-92a1-eb2ef90289b7",
    "resource": {
      "resourceType": "QuestionnaireResponse",
      "id": "c75e9ef1-0740-4abf-92a1-eb2ef90289b7",
      "identifier": {
        "value": "59263"
      },
      "questionnaire": {
        "reference": "urn:uuid:b1542d73-49eb-4f0b-8332-652a57b77274"
      },
      "status": "completed",
      "subject": {
        "reference": "urn:uuid:23e461a9-4ebb-4c59-bd38-7a35b0eeaf93"
      },
      "context": {
        "reference": "urn:uuid:0017d7da-de0d-4d69-b88a-a3973a061517"
      },
      "authored": "2021-04-06T11:29:26+00:00",
      "item": [ {
        "linkId": "Tx223441",
        "text": "STRING:SDPCRepeatPrescription",
        "answer": [ {
          "valueString": "\"PC repeat prescription\""
        } ]
      } ]
    }
  }, {
    "fullUrl": "urn:uuid:b1542d73-49eb-4f0b-8332-652a57b77274",
    "resource": {
      "resourceType": "Questionnaire",
      "id": "b1542d73-49eb-4f0b-8332-652a57b77274",
      "identifier": [ {
        "value": "59263"
      } ],
      "version": "2021-04-06T11:29:26.887Z",
      "status": "active",
      "experimental": false,
      "date": "2021-04-06T11:29:26+00:00",
      "publisher": "User ID: 'HADFIELDR' User name: 'Ryan Hadfield' User skill set: 'T3'",
      "lastReviewDate": "2021-04-06",
      "contact": [ {
        "telecom": [ {
          "system": "phone",
          "value": "07777 888888"
        } ]
      } ],
      "subjectType": [ "Patient" ],
      "item": [ {
        "linkId": "59263",
        "prefix": "1200",
        "text": "STRING:SDPCRepeatPrescription",
        "type": "choice",
        "required": true,
        "repeats": false,
        "option": [ {
          "valueString": "\"PC repeat prescription\", Selected: true"
        } ]
      } ]
    }
  }, {
    "fullUrl": "urn:uuid:5b322d0b-9172-4a8e-9c4a-6c986d7ac8fe",
    "resource": {
      "resourceType": "QuestionnaireResponse",
      "id": "5b322d0b-9172-4a8e-9c4a-6c986d7ac8fe",
      "identifier": {
        "value": "59263"
      },
      "questionnaire": {
        "reference": "urn:uuid:7ae97251-c417-42a4-8870-7605e20ea9a9"
      },
      "status": "completed",
      "subject": {
        "reference": "urn:uuid:23e461a9-4ebb-4c59-bd38-7a35b0eeaf93"
      },
      "context": {
        "reference": "urn:uuid:0017d7da-de0d-4d69-b88a-a3973a061517"
      },
      "authored": "2021-04-06T11:29:26+00:00"
    }
  }, {
    "fullUrl": "urn:uuid:7ae97251-c417-42a4-8870-7605e20ea9a9",
    "resource": {
      "resourceType": "Questionnaire",
      "id": "7ae97251-c417-42a4-8870-7605e20ea9a9",
      "identifier": [ {
        "value": "59263"
      } ],
      "version": "2021-04-06T11:29:26.887Z",
      "status": "active",
      "experimental": false,
      "date": "2021-04-06T11:29:26+00:00",
      "publisher": "User ID: 'HADFIELDR' User name: 'Ryan Hadfield' User skill set: 'T3'",
      "lastReviewDate": "2021-04-06",
      "contact": [ {
        "telecom": [ {
          "system": "phone",
          "value": "07777 888888"
        } ]
      } ],
      "subjectType": [ "Patient" ]
    }
  }, {
    "fullUrl": "urn:uuid:81a0206a-ef15-4e05-9907-83750b861a28",
    "resource": {
      "resourceType": "QuestionnaireResponse",
      "id": "81a0206a-ef15-4e05-9907-83750b861a28",
      "identifier": {
        "value": "59263"
      },
      "questionnaire": {
        "reference": "urn:uuid:c3f85ff1-6db3-4abf-b15e-aaa04a9955f0"
      },
      "status": "completed",
      "subject": {
        "reference": "urn:uuid:23e461a9-4ebb-4c59-bd38-7a35b0eeaf93"
      },
      "context": {
        "reference": "urn:uuid:0017d7da-de0d-4d69-b88a-a3973a061517"
      },
      "authored": "2021-04-06T11:29:26+00:00",
      "item": [ {
        "linkId": "Tx220074",
        "text": "What is the reason for the contact?",
        "answer": [ {
          "valueString": "an injury or other health problem"
        } ]
      } ]
    }
  }, {
    "fullUrl": "urn:uuid:c3f85ff1-6db3-4abf-b15e-aaa04a9955f0",
    "resource": {
      "resourceType": "Questionnaire",
      "id": "c3f85ff1-6db3-4abf-b15e-aaa04a9955f0",
      "identifier": [ {
        "value": "59263"
      } ],
      "version": "2021-04-06T11:29:26.887Z",
      "status": "active",
      "experimental": false,
      "date": "2021-04-06T11:29:26+00:00",
      "publisher": "User ID: 'HADFIELDR' User name: 'Ryan Hadfield' User skill set: 'T3'",
      "lastReviewDate": "2021-04-06",
      "contact": [ {
        "telecom": [ {
          "system": "phone",
          "value": "07777 888888"
        } ]
      } ],
      "subjectType": [ "Patient" ],
      "item": [ {
        "linkId": "59263",
        "prefix": "5",
        "text": "What is the reason for the contact?",
        "type": "choice",
        "required": true,
        "repeats": false,
        "option": [ {
          "valueString": "an injury or other health problem, Selected: true"
        }, {
          "valueString": "labour or childbirth, Selected: false"
        }, {
          "valueString": "a need to access another healthcare service, Selected: false"
        }, {
          "valueString": "a healthcare professional requesting contact with another clinician, Selected: false"
        }, {
          "valueString": "a report of results or tests, Selected: false"
        }, {
          "valueString": "a possible failure of contraception, Selected: false"
        }, {
          "valueString": "more, Selected: false"
        } ]
      } ]
    }
  }, {
    "fullUrl": "urn:uuid:57ae87f3-5576-46fa-84c9-f32891f2c8b0",
    "resource": {
      "resourceType": "QuestionnaireResponse",
      "id": "57ae87f3-5576-46fa-84c9-f32891f2c8b0",
      "identifier": {
        "value": "59263"
      },
      "questionnaire": {
        "reference": "urn:uuid:7eb2f024-3004-4936-9c09-6db1e05b6d64"
      },
      "status": "completed",
      "subject": {
        "reference": "urn:uuid:23e461a9-4ebb-4c59-bd38-7a35b0eeaf93"
      },
      "context": {
        "reference": "urn:uuid:0017d7da-de0d-4d69-b88a-a3973a061517"
      },
      "authored": "2021-04-06T11:29:26+00:00",
      "item": [ {
        "linkId": "Tx221807",
        "text": "STRING:to'Immediatethreatstolife(SPA/OOHversion)'-'Majorbloodloss'stem",
        "answer": [ {
          "valueString": "\"present\""
        } ]
      } ]
    }
  }, {
    "fullUrl": "urn:uuid:7eb2f024-3004-4936-9c09-6db1e05b6d64",
    "resource": {
      "resourceType": "Questionnaire",
      "id": "7eb2f024-3004-4936-9c09-6db1e05b6d64",
      "identifier": [ {
        "value": "59263"
      } ],
      "version": "2021-04-06T11:29:26.887Z",
      "status": "active",
      "experimental": false,
      "date": "2021-04-06T11:29:26+00:00",
      "publisher": "User ID: 'HADFIELDR' User name: 'Ryan Hadfield' User skill set: 'T3'",
      "lastReviewDate": "2021-04-06",
      "contact": [ {
        "telecom": [ {
          "system": "phone",
          "value": "07777 888888"
        } ]
      } ],
      "subjectType": [ "Patient" ],
      "item": [ {
        "linkId": "59263",
        "prefix": "200",
        "text": "STRING:to'Immediatethreatstolife(SPA/OOHversion)'-'Majorbloodloss'stem",
        "type": "choice",
        "required": true,
        "repeats": false,
        "option": [ {
          "valueString": "\"present\", Selected: true"
        } ]
      } ]
    }
  }, {
    "fullUrl": "urn:uuid:e2f2a238-8a57-4fde-b7e9-eb436e7eb3c2",
    "resource": {
      "resourceType": "QuestionnaireResponse",
      "id": "e2f2a238-8a57-4fde-b7e9-eb436e7eb3c2",
      "identifier": {
        "value": "59263"
      },
      "questionnaire": {
        "reference": "urn:uuid:6d88710b-11cb-43ff-a0ba-1e5a53bf20cc"
      },
      "status": "completed",
      "subject": {
        "reference": "urn:uuid:23e461a9-4ebb-4c59-bd38-7a35b0eeaf93"
      },
      "context": {
        "reference": "urn:uuid:0017d7da-de0d-4d69-b88a-a3973a061517"
      },
      "authored": "2021-04-06T11:29:26+00:00"
    }
  }, {
    "fullUrl": "urn:uuid:6d88710b-11cb-43ff-a0ba-1e5a53bf20cc",
    "resource": {
      "resourceType": "Questionnaire",
      "id": "6d88710b-11cb-43ff-a0ba-1e5a53bf20cc",
      "identifier": [ {
        "value": "59263"
      } ],
      "version": "2021-04-06T11:29:26.887Z",
      "status": "active",
      "experimental": false,
      "date": "2021-04-06T11:29:26+00:00",
      "publisher": "User ID: 'HADFIELDR' User name: 'Ryan Hadfield' User skill set: 'T3'",
      "lastReviewDate": "2021-04-06",
      "contact": [ {
        "telecom": [ {
          "system": "phone",
          "value": "07777 888888"
        } ]
      } ],
      "subjectType": [ "Patient" ]
    }
  }, {
    "fullUrl": "urn:uuid:f10d899d-8896-4e16-9492-a79be78766e0",
    "resource": {
      "resourceType": "QuestionnaireResponse",
      "id": "f10d899d-8896-4e16-9492-a79be78766e0",
      "identifier": {
        "value": "59263"
      },
      "questionnaire": {
        "reference": "urn:uuid:c125e0c6-af59-4cae-be9b-aed9e0513eae"
      },
      "status": "completed",
      "subject": {
        "reference": "urn:uuid:23e461a9-4ebb-4c59-bd38-7a35b0eeaf93"
      },
      "context": {
        "reference": "urn:uuid:0017d7da-de0d-4d69-b88a-a3973a061517"
      },
      "authored": "2021-04-06T11:29:26+00:00",
      "item": [ {
        "linkId": "Tx221799",
        "text": "STRING:injury,illnessorlabourestablishedinEntryFlow",
        "answer": [ {
          "valueString": "\"present\""
        } ]
      } ]
    }
  }, {
    "fullUrl": "urn:uuid:c125e0c6-af59-4cae-be9b-aed9e0513eae",
    "resource": {
      "resourceType": "Questionnaire",
      "id": "c125e0c6-af59-4cae-be9b-aed9e0513eae",
      "identifier": [ {
        "value": "59263"
      } ],
      "version": "2021-04-06T11:29:26.887Z",
      "status": "active",
      "experimental": false,
      "date": "2021-04-06T11:29:26+00:00",
      "publisher": "User ID: 'HADFIELDR' User name: 'Ryan Hadfield' User skill set: 'T3'",
      "lastReviewDate": "2021-04-06",
      "contact": [ {
        "telecom": [ {
          "system": "phone",
          "value": "07777 888888"
        } ]
      } ],
      "subjectType": [ "Patient" ],
      "item": [ {
        "linkId": "59263",
        "prefix": "0",
        "text": "STRING:injury,illnessorlabourestablishedinEntryFlow",
        "type": "choice",
        "required": true,
        "repeats": false,
        "option": [ {
          "valueString": "\"present\", Selected: true"
        } ]
      } ]
    }
  }, {
    "fullUrl": "urn:uuid:3521315f-ace4-4621-a015-daabf9e1be04",
    "resource": {
      "resourceType": "QuestionnaireResponse",
      "id": "3521315f-ace4-4621-a015-daabf9e1be04",
      "identifier": {
        "value": "59263"
      },
      "questionnaire": {
        "reference": "urn:uuid:782da02d-0250-496a-8e40-ceb26e511203"
      },
      "status": "completed",
      "subject": {
        "reference": "urn:uuid:23e461a9-4ebb-4c59-bd38-7a35b0eeaf93"
      },
      "context": {
        "reference": "urn:uuid:0017d7da-de0d-4d69-b88a-a3973a061517"
      },
      "authored": "2021-04-06T11:29:26+00:00",
      "item": [ {
        "linkId": "Tx224120",
        "text": "Have you been bleeding RED BLOOD very heavily IN THE LAST 2 HOURS?",
        "answer": [ {
          "valueString": "no"
        } ]
      } ]
    }
  }, {
    "fullUrl": "urn:uuid:782da02d-0250-496a-8e40-ceb26e511203",
    "resource": {
      "resourceType": "Questionnaire",
      "id": "782da02d-0250-496a-8e40-ceb26e511203",
      "identifier": [ {
        "value": "59263"
      } ],
      "version": "2021-04-06T11:29:26.887Z",
      "status": "active",
      "experimental": false,
      "date": "2021-04-06T11:29:26+00:00",
      "publisher": "User ID: 'HADFIELDR' User name: 'Ryan Hadfield' User skill set: 'T3'",
      "lastReviewDate": "2021-04-06",
      "contact": [ {
        "telecom": [ {
          "system": "phone",
          "value": "07777 888888"
        } ]
      } ],
      "subjectType": [ "Patient" ],
      "item": [ {
        "linkId": "59263",
        "prefix": "10100",
        "text": "Have you been bleeding RED BLOOD very heavily IN THE LAST 2 HOURS?",
        "type": "choice",
        "required": true,
        "repeats": false,
        "option": [ {
          "valueString": "yes, Selected: false"
        }, {
          "valueString": "not sure, Selected: false"
        }, {
          "valueString": "no, Selected: true"
        } ]
      } ]
    }
  }, {
    "fullUrl": "urn:uuid:d87caeec-5c93-4442-88f7-d190a83b809a",
    "resource": {
      "resourceType": "QuestionnaireResponse",
      "id": "d87caeec-5c93-4442-88f7-d190a83b809a",
      "identifier": {
        "value": "59263"
      },
      "questionnaire": {
        "reference": "urn:uuid:0dce87f7-98d0-4b0a-b312-dc19d8cceb37"
      },
      "status": "completed",
      "subject": {
        "reference": "urn:uuid:23e461a9-4ebb-4c59-bd38-7a35b0eeaf93"
      },
      "context": {
        "reference": "urn:uuid:0017d7da-de0d-4d69-b88a-a3973a061517"
      },
      "authored": "2021-04-06T11:29:26+00:00",
      "item": [ {
        "linkId": "Tx221343",
        "text": "SocialConcernsExcluded",
        "answer": [ {
          "valueString": "*"
        } ]
      } ]
    }
  }, {
    "fullUrl": "urn:uuid:0dce87f7-98d0-4b0a-b312-dc19d8cceb37",
    "resource": {
      "resourceType": "Questionnaire",
      "id": "0dce87f7-98d0-4b0a-b312-dc19d8cceb37",
      "identifier": [ {
        "value": "59263"
      } ],
      "version": "2021-04-06T11:29:26.887Z",
      "status": "active",
      "experimental": false,
      "date": "2021-04-06T11:29:26+00:00",
      "publisher": "User ID: 'HADFIELDR' User name: 'Ryan Hadfield' User skill set: 'T3'",
      "lastReviewDate": "2021-04-06",
      "contact": [ {
        "telecom": [ {
          "system": "phone",
          "value": "07777 888888"
        } ]
      } ],
      "subjectType": [ "Patient" ],
      "item": [ {
        "linkId": "59263",
        "prefix": "1100",
        "text": "SocialConcernsExcluded",
        "type": "choice",
        "required": true,
        "repeats": false,
        "option": [ {
          "valueString": "==\"present\", Selected: false"
        }, {
          "valueString": "*, Selected: true"
        } ]
      } ]
    }
  }, {
    "fullUrl": "urn:uuid:be03c849-efd8-4ee4-a9ab-208980de4afd",
    "resource": {
      "resourceType": "QuestionnaireResponse",
      "id": "be03c849-efd8-4ee4-a9ab-208980de4afd",
      "identifier": {
        "value": "59263"
      },
      "questionnaire": {
        "reference": "urn:uuid:60ab0ce6-f2b5-4826-a402-064c0f2bdb17"
      },
      "status": "completed",
      "subject": {
        "reference": "urn:uuid:23e461a9-4ebb-4c59-bd38-7a35b0eeaf93"
      },
      "context": {
        "reference": "urn:uuid:0017d7da-de0d-4d69-b88a-a3973a061517"
      },
      "authored": "2021-04-06T11:29:26+00:00",
      "item": [ {
        "linkId": "Tx130011",
        "text": "What is the main problem?"
      } ]
    }
  }, {
    "fullUrl": "urn:uuid:60ab0ce6-f2b5-4826-a402-064c0f2bdb17",
    "resource": {
      "resourceType": "Questionnaire",
      "id": "60ab0ce6-f2b5-4826-a402-064c0f2bdb17",
      "identifier": [ {
        "value": "59263"
      } ],
      "version": "2021-04-06T11:29:26.887Z",
      "status": "active",
      "experimental": false,
      "date": "2021-04-06T11:29:26+00:00",
      "publisher": "User ID: 'HADFIELDR' User name: 'Ryan Hadfield' User skill set: 'T3'",
      "lastReviewDate": "2021-04-06",
      "contact": [ {
        "telecom": [ {
          "system": "phone",
          "value": "07777 888888"
        } ]
      } ],
      "subjectType": [ "Patient" ],
      "item": [ {
        "linkId": "59263",
        "prefix": "2300",
        "text": "What is the main problem?",
        "type": "choice",
        "required": true,
        "repeats": false,
        "option": [ {
          "valueString": "the individual has been told to follow a particular course of action (specify), Selected: false"
        }, {
          "valueString": "the individual is an identified frequent caller, Selected: false"
        }, {
          "valueString": "injury (specify), Selected: false"
        }, {
          "valueString": "illness or other health problem (specify), Selected: false"
        }, {
          "valueString": "child protection/vulnerable adult concern, Selected: false"
        }, {
          "valueString": "social or domestic emergency, Selected: false"
        }, {
          "valueString": "the environment potentially poses an immediate threat to life (specify), Selected: false"
        } ]
      } ]
    }
  }, {
    "fullUrl": "urn:uuid:9384ea6a-572b-4466-82eb-b1e13c62d590",
    "resource": {
      "resourceType": "QuestionnaireResponse",
      "id": "9384ea6a-572b-4466-82eb-b1e13c62d590",
      "identifier": {
        "value": "59263"
      },
      "questionnaire": {
        "reference": "urn:uuid:83931bd1-dd46-4c04-8085-f24bea23840e"
      },
      "status": "completed",
      "subject": {
        "reference": "urn:uuid:23e461a9-4ebb-4c59-bd38-7a35b0eeaf93"
      },
      "context": {
        "reference": "urn:uuid:0017d7da-de0d-4d69-b88a-a3973a061517"
      },
      "authored": "2021-04-06T11:29:26+00:00",
      "item": [ {
        "linkId": "Tx220074",
        "text": "What is the reason for the contact?",
        "answer": [ {
          "valueString": "more"
        } ]
      } ]
    }
  }, {
    "fullUrl": "urn:uuid:83931bd1-dd46-4c04-8085-f24bea23840e",
    "resource": {
      "resourceType": "Questionnaire",
      "id": "83931bd1-dd46-4c04-8085-f24bea23840e",
      "identifier": [ {
        "value": "59263"
      } ],
      "version": "2021-04-06T11:29:26.887Z",
      "status": "active",
      "experimental": false,
      "date": "2021-04-06T11:29:26+00:00",
      "publisher": "User ID: 'HADFIELDR' User name: 'Ryan Hadfield' User skill set: 'T3'",
      "lastReviewDate": "2021-04-06",
      "contact": [ {
        "telecom": [ {
          "system": "phone",
          "value": "07777 888888"
        } ]
      } ],
      "subjectType": [ "Patient" ],
      "item": [ {
        "linkId": "59263",
        "prefix": "5",
        "text": "What is the reason for the contact?",
        "type": "choice",
        "required": true,
        "repeats": false,
        "option": [ {
          "valueString": "an injury or other health problem, Selected: false"
        }, {
          "valueString": "labour or childbirth, Selected: false"
        }, {
          "valueString": "a need to access another healthcare service, Selected: false"
        }, {
          "valueString": "a healthcare professional requesting contact with another clinician, Selected: false"
        }, {
          "valueString": "a report of results or tests, Selected: false"
        }, {
          "valueString": "a possible failure of contraception, Selected: false"
        }, {
          "valueString": "more, Selected: true"
        } ]
      } ]
    }
  }, {
    "fullUrl": "urn:uuid:fc0a8976-047f-45c9-b6f8-c3edd8852e71",
    "resource": {
      "resourceType": "QuestionnaireResponse",
      "id": "fc0a8976-047f-45c9-b6f8-c3edd8852e71",
      "identifier": {
        "value": "59263"
      },
      "questionnaire": {
        "reference": "urn:uuid:fbb3eef3-55d7-45ca-be47-6b16a5f4c1c6"
      },
      "status": "completed",
      "subject": {
        "reference": "urn:uuid:23e461a9-4ebb-4c59-bd38-7a35b0eeaf93"
      },
      "context": {
        "reference": "urn:uuid:0017d7da-de0d-4d69-b88a-a3973a061517"
      },
      "authored": "2021-04-06T11:29:26+00:00",
      "item": [ {
        "linkId": "Tx221793",
        "text": "STRING:to'Social&information'-further'Callreason'menu",
        "answer": [ {
          "valueString": "\"present\""
        } ]
      } ]
    }
  }, {
    "fullUrl": "urn:uuid:fbb3eef3-55d7-45ca-be47-6b16a5f4c1c6",
    "resource": {
      "resourceType": "Questionnaire",
      "id": "fbb3eef3-55d7-45ca-be47-6b16a5f4c1c6",
      "identifier": [ {
        "value": "59263"
      } ],
      "version": "2021-04-06T11:29:26.887Z",
      "status": "active",
      "experimental": false,
      "date": "2021-04-06T11:29:26+00:00",
      "publisher": "User ID: 'HADFIELDR' User name: 'Ryan Hadfield' User skill set: 'T3'",
      "lastReviewDate": "2021-04-06",
      "contact": [ {
        "telecom": [ {
          "system": "phone",
          "value": "07777 888888"
        } ]
      } ],
      "subjectType": [ "Patient" ],
      "item": [ {
        "linkId": "59263",
        "prefix": "600",
        "text": "STRING:to'Social&information'-further'Callreason'menu",
        "type": "choice",
        "required": true,
        "repeats": false,
        "option": [ {
          "valueString": "\"present\", Selected: true"
        } ]
      } ]
    }
  }, {
    "fullUrl": "urn:uuid:09c904c4-1b8a-47a4-b75c-d56aae8dd550",
    "resource": {
      "resourceType": "QuestionnaireResponse",
      "id": "09c904c4-1b8a-47a4-b75c-d56aae8dd550",
      "identifier": {
        "value": "59263"
      },
      "questionnaire": {
        "reference": "urn:uuid:a198583a-8b1d-42b3-a48e-beaadac1ec35"
      },
      "status": "completed",
      "subject": {
        "reference": "urn:uuid:23e461a9-4ebb-4c59-bd38-7a35b0eeaf93"
      },
      "context": {
        "reference": "urn:uuid:0017d7da-de0d-4d69-b88a-a3973a061517"
      },
      "authored": "2021-04-06T11:29:26+00:00"
    }
  }, {
    "fullUrl": "urn:uuid:a198583a-8b1d-42b3-a48e-beaadac1ec35",
    "resource": {
      "resourceType": "Questionnaire",
      "id": "a198583a-8b1d-42b3-a48e-beaadac1ec35",
      "identifier": [ {
        "value": "59263"
      } ],
      "version": "2021-04-06T11:29:26.887Z",
      "status": "active",
      "experimental": false,
      "date": "2021-04-06T11:29:26+00:00",
      "publisher": "User ID: 'HADFIELDR' User name: 'Ryan Hadfield' User skill set: 'T3'",
      "lastReviewDate": "2021-04-06",
      "contact": [ {
        "telecom": [ {
          "system": "phone",
          "value": "07777 888888"
        } ]
      } ],
      "subjectType": [ "Patient" ]
    }
  }, {
    "fullUrl": "urn:uuid:67271cc3-dace-45ab-913a-fa1bda8157b8",
    "resource": {
      "resourceType": "QuestionnaireResponse",
      "id": "67271cc3-dace-45ab-913a-fa1bda8157b8",
      "identifier": {
        "value": "59263"
      },
      "questionnaire": {
        "reference": "urn:uuid:d3bf138d-98a0-41ec-8317-541811bc77c2"
      },
      "status": "completed",
      "subject": {
        "reference": "urn:uuid:23e461a9-4ebb-4c59-bd38-7a35b0eeaf93"
      },
      "context": {
        "reference": "urn:uuid:0017d7da-de0d-4d69-b88a-a3973a061517"
      },
      "authored": "2021-04-06T11:29:26+00:00",
      "item": [ {
        "linkId": "Tx221804",
        "text": "STRING:transfertofurthermenuquestionestablishedinEntryFlow",
        "answer": [ {
          "valueString": "\"present\""
        } ]
      } ]
    }
  }, {
    "fullUrl": "urn:uuid:d3bf138d-98a0-41ec-8317-541811bc77c2",
    "resource": {
      "resourceType": "Questionnaire",
      "id": "d3bf138d-98a0-41ec-8317-541811bc77c2",
      "identifier": [ {
        "value": "59263"
      } ],
      "version": "2021-04-06T11:29:26.887Z",
      "status": "active",
      "experimental": false,
      "date": "2021-04-06T11:29:26+00:00",
      "publisher": "User ID: 'HADFIELDR' User name: 'Ryan Hadfield' User skill set: 'T3'",
      "lastReviewDate": "2021-04-06",
      "contact": [ {
        "telecom": [ {
          "system": "phone",
          "value": "07777 888888"
        } ]
      } ],
      "subjectType": [ "Patient" ],
      "item": [ {
        "linkId": "59263",
        "prefix": "41",
        "text": "STRING:transfertofurthermenuquestionestablishedinEntryFlow",
        "type": "choice",
        "required": true,
        "repeats": false,
        "option": [ {
          "valueString": "\"present\", Selected: true"
        } ]
      } ]
    }
  }, {
    "fullUrl": "urn:uuid:60a1a185-cf45-4e68-9b76-b710efb3c9b7",
    "resource": {
      "resourceType": "QuestionnaireResponse",
      "id": "60a1a185-cf45-4e68-9b76-b710efb3c9b7",
      "identifier": {
        "value": "59263"
      },
      "questionnaire": {
        "reference": "urn:uuid:3e4f989e-8766-47a0-a6b5-e56cae0a4e8a"
      },
      "status": "completed",
      "subject": {
        "reference": "urn:uuid:23e461a9-4ebb-4c59-bd38-7a35b0eeaf93"
      },
      "context": {
        "reference": "urn:uuid:0017d7da-de0d-4d69-b88a-a3973a061517"
      },
      "authored": "2021-04-06T11:29:26+00:00",
      "item": [ {
        "linkId": "Tx224998",
        "text": "SYSTEM_COVIDLEVEL2",
        "answer": [ {
          "valueString": "==\"covidlevel2\""
        } ]
      } ]
    }
  }, {
    "fullUrl": "urn:uuid:3e4f989e-8766-47a0-a6b5-e56cae0a4e8a",
    "resource": {
      "resourceType": "Questionnaire",
      "id": "3e4f989e-8766-47a0-a6b5-e56cae0a4e8a",
      "identifier": [ {
        "value": "59263"
      } ],
      "version": "2021-04-06T11:29:26.887Z",
      "status": "active",
      "experimental": false,
      "date": "2021-04-06T11:29:26+00:00",
      "publisher": "User ID: 'HADFIELDR' User name: 'Ryan Hadfield' User skill set: 'T3'",
      "lastReviewDate": "2021-04-06",
      "contact": [ {
        "telecom": [ {
          "system": "phone",
          "value": "07777 888888"
        } ]
      } ],
      "subjectType": [ "Patient" ],
      "item": [ {
        "linkId": "59263",
        "prefix": "5900",
        "text": "SYSTEM_COVIDLEVEL2",
        "type": "choice",
        "required": true,
        "repeats": false,
        "option": [ {
          "valueString": "==\"covidlevel2\", Selected: true"
        }, {
          "valueString": "*, Selected: false"
        } ]
      } ]
    }
  }, {
    "fullUrl": "urn:uuid:67784570-481b-4380-bbec-7fcd115f53ea",
    "resource": {
      "resourceType": "QuestionnaireResponse",
      "id": "67784570-481b-4380-bbec-7fcd115f53ea",
      "identifier": {
        "value": "59263"
      },
      "questionnaire": {
        "reference": "urn:uuid:7171a6fb-6530-48c4-926a-d410ee91f655"
      },
      "status": "completed",
      "subject": {
        "reference": "urn:uuid:23e461a9-4ebb-4c59-bd38-7a35b0eeaf93"
      },
      "context": {
        "reference": "urn:uuid:0017d7da-de0d-4d69-b88a-a3973a061517"
      },
      "authored": "2021-04-06T11:29:26+00:00",
      "item": [ {
        "linkId": "Tx225069",
        "text": "What is the reason for the contact?",
        "answer": [ {
          "valueString": "a prescription request"
        } ]
      } ]
    }
  }, {
    "fullUrl": "urn:uuid:7171a6fb-6530-48c4-926a-d410ee91f655",
    "resource": {
      "resourceType": "Questionnaire",
      "id": "7171a6fb-6530-48c4-926a-d410ee91f655",
      "identifier": [ {
        "value": "59263"
      } ],
      "version": "2021-04-06T11:29:26.887Z",
      "status": "active",
      "experimental": false,
      "date": "2021-04-06T11:29:26+00:00",
      "publisher": "User ID: 'HADFIELDR' User name: 'Ryan Hadfield' User skill set: 'T3'",
      "lastReviewDate": "2021-04-06",
      "contact": [ {
        "telecom": [ {
          "system": "phone",
          "value": "07777 888888"
        } ]
      } ],
      "subjectType": [ "Patient" ],
      "item": [ {
        "linkId": "59263",
        "prefix": "6000",
        "text": "What is the reason for the contact?",
        "type": "choice",
        "required": true,
        "repeats": false,
        "option": [ {
          "valueString": "a child protection/vulnerable adult concern (specify), Selected: false"
        }, {
          "valueString": "a social or domestic emergency, Selected: false"
        }, {
          "valueString": "a prescription request, Selected: true"
        }, {
          "valueString": "an appointment request, Selected: false"
        }, {
          "valueString": "a request for health or medication information, Selected: false"
        }, {
          "valueString": "public health alert information, Selected: false"
        } ]
      } ]
    }
  }, {
    "fullUrl": "urn:uuid:b70451cb-15e9-4457-b2a3-ee003ab33699",
    "resource": {
      "resourceType": "QuestionnaireResponse",
      "id": "b70451cb-15e9-4457-b2a3-ee003ab33699",
      "identifier": {
        "value": "59263"
      },
      "questionnaire": {
        "reference": "urn:uuid:29c5946a-0eb8-4f5f-8353-2a94dbd73c6b"
      },
      "status": "completed",
      "subject": {
        "reference": "urn:uuid:23e461a9-4ebb-4c59-bd38-7a35b0eeaf93"
      },
      "context": {
        "reference": "urn:uuid:0017d7da-de0d-4d69-b88a-a3973a061517"
      },
      "authored": "2021-04-06T11:29:26+00:00",
      "item": [ {
        "linkId": "Tx220957",
        "text": "Is this contact about a new or worsening illness?",
        "answer": [ {
          "valueString": "no"
        } ]
      } ]
    }
  }, {
    "fullUrl": "urn:uuid:29c5946a-0eb8-4f5f-8353-2a94dbd73c6b",
    "resource": {
      "resourceType": "Questionnaire",
      "id": "29c5946a-0eb8-4f5f-8353-2a94dbd73c6b",
      "identifier": [ {
        "value": "59263"
      } ],
      "version": "2021-04-06T11:29:26.887Z",
      "status": "active",
      "experimental": false,
      "date": "2021-04-06T11:29:26+00:00",
      "publisher": "User ID: 'HADFIELDR' User name: 'Ryan Hadfield' User skill set: 'T3'",
      "lastReviewDate": "2021-04-06",
      "contact": [ {
        "telecom": [ {
          "system": "phone",
          "value": "07777 888888"
        } ]
      } ],
      "subjectType": [ "Patient" ],
      "item": [ {
        "linkId": "59263",
        "prefix": "1400",
        "text": "Is this contact about a new or worsening illness?",
        "type": "choice",
        "required": true,
        "repeats": false,
        "option": [ {
          "valueString": "yes, Selected: false"
        }, {
          "valueString": "not sure, Selected: false"
        }, {
          "valueString": "no, Selected: true"
        } ]
      } ]
    }
  }, {
    "fullUrl": "urn:uuid:e652cd85-6d1f-44a2-ad35-373d39669279",
    "resource": {
      "resourceType": "QuestionnaireResponse",
      "id": "e652cd85-6d1f-44a2-ad35-373d39669279",
      "identifier": {
        "value": "59263"
      },
      "questionnaire": {
        "reference": "urn:uuid:07db1e36-71f4-4000-ac38-0b443d4d234d"
      },
      "status": "completed",
      "subject": {
        "reference": "urn:uuid:23e461a9-4ebb-4c59-bd38-7a35b0eeaf93"
      },
      "context": {
        "reference": "urn:uuid:0017d7da-de0d-4d69-b88a-a3973a061517"
      },
      "authored": "2021-04-06T11:29:26+00:00",
      "item": [ {
        "linkId": "Tx221352",
        "text": "Have you got enough medication to last until the surgery opens?",
        "answer": [ {
          "valueString": "no"
        } ]
      } ]
    }
  }, {
    "fullUrl": "urn:uuid:07db1e36-71f4-4000-ac38-0b443d4d234d",
    "resource": {
      "resourceType": "Questionnaire",
      "id": "07db1e36-71f4-4000-ac38-0b443d4d234d",
      "identifier": [ {
        "value": "59263"
      } ],
      "version": "2021-04-06T11:29:26.887Z",
      "status": "active",
      "experimental": false,
      "date": "2021-04-06T11:29:26+00:00",
      "publisher": "User ID: 'HADFIELDR' User name: 'Ryan Hadfield' User skill set: 'T3'",
      "lastReviewDate": "2021-04-06",
      "contact": [ {
        "telecom": [ {
          "system": "phone",
          "value": "07777 888888"
        } ]
      } ],
      "subjectType": [ "Patient" ],
      "item": [ {
        "linkId": "59263",
        "prefix": "1500",
        "text": "Have you got enough medication to last until the surgery opens?",
        "type": "choice",
        "required": true,
        "repeats": false,
        "option": [ {
          "valueString": "yes, Selected: false"
        }, {
          "valueString": "not sure, Selected: false"
        }, {
          "valueString": "no, Selected: true"
        } ]
      } ]
    }
  }, {
    "fullUrl": "urn:uuid:2aac682e-9ca1-4881-910f-45392c55b8f5",
    "resource": {
      "resourceType": "QuestionnaireResponse",
      "id": "2aac682e-9ca1-4881-910f-45392c55b8f5",
      "identifier": {
        "value": "59263"
      },
      "questionnaire": {
        "reference": "urn:uuid:86c627b1-24f3-4fc3-b492-92ea4af34535"
      },
      "status": "completed",
      "subject": {
        "reference": "urn:uuid:23e461a9-4ebb-4c59-bd38-7a35b0eeaf93"
      },
      "context": {
        "reference": "urn:uuid:0017d7da-de0d-4d69-b88a-a3973a061517"
      },
      "authored": "2021-04-06T11:29:26+00:00"
    }
  }, {
    "fullUrl": "urn:uuid:86c627b1-24f3-4fc3-b492-92ea4af34535",
    "resource": {
      "resourceType": "Questionnaire",
      "id": "86c627b1-24f3-4fc3-b492-92ea4af34535",
      "identifier": [ {
        "value": "59263"
      } ],
      "version": "2021-04-06T11:29:26.887Z",
      "status": "active",
      "experimental": false,
      "date": "2021-04-06T11:29:26+00:00",
      "publisher": "User ID: 'HADFIELDR' User name: 'Ryan Hadfield' User skill set: 'T3'",
      "lastReviewDate": "2021-04-06",
      "contact": [ {
        "telecom": [ {
          "system": "phone",
          "value": "07777 888888"
        } ]
      } ],
      "subjectType": [ "Patient" ]
    }
  }, {
    "fullUrl": "urn:uuid:13417565-eb39-4578-93e4-7b8ded5c487d",
    "resource": {
      "resourceType": "QuestionnaireResponse",
      "id": "13417565-eb39-4578-93e4-7b8ded5c487d",
      "identifier": {
        "value": "59263"
      },
      "questionnaire": {
        "reference": "urn:uuid:964d7f5a-5472-4c4a-bad4-526fdf62f552"
      },
      "status": "completed",
      "subject": {
        "reference": "urn:uuid:23e461a9-4ebb-4c59-bd38-7a35b0eeaf93"
      },
      "context": {
        "reference": "urn:uuid:0017d7da-de0d-4d69-b88a-a3973a061517"
      },
      "authored": "2021-04-06T11:29:26+00:00",
      "item": [ {
        "linkId": "Tx224231",
        "text": "FROM WHAT YOU HAVE HEARD IS A CONSULTATION WITH A PRESCRIBER NEEDED?",
        "answer": [ {
          "valueString": "no"
        } ]
      } ]
    }
  }, {
    "fullUrl": "urn:uuid:964d7f5a-5472-4c4a-bad4-526fdf62f552",
    "resource": {
      "resourceType": "Questionnaire",
      "id": "964d7f5a-5472-4c4a-bad4-526fdf62f552",
      "identifier": [ {
        "value": "59263"
      } ],
      "version": "2021-04-06T11:29:26.887Z",
      "status": "active",
      "experimental": false,
      "date": "2021-04-06T11:29:26+00:00",
      "publisher": "User ID: 'HADFIELDR' User name: 'Ryan Hadfield' User skill set: 'T3'",
      "lastReviewDate": "2021-04-06",
      "contact": [ {
        "telecom": [ {
          "system": "phone",
          "value": "07777 888888"
        } ]
      } ],
      "subjectType": [ "Patient" ],
      "item": [ {
        "linkId": "59263",
        "prefix": "0",
        "text": "FROM WHAT YOU HAVE HEARD IS A CONSULTATION WITH A PRESCRIBER NEEDED?",
        "type": "choice",
        "required": true,
        "repeats": false,
        "option": [ {
          "valueString": "yes, Selected: false"
        }, {
          "valueString": "not sure, Selected: false"
        }, {
          "valueString": "no, Selected: true"
        } ]
      } ]
    }
  }, {
    "fullUrl": "urn:uuid:96a113ca-eac1-45ca-86ca-53a47981a09c",
    "resource": {
      "resourceType": "QuestionnaireResponse",
      "id": "96a113ca-eac1-45ca-86ca-53a47981a09c",
      "identifier": {
        "value": "59263"
      },
      "questionnaire": {
        "reference": "urn:uuid:818f39ce-3ce9-4abf-b251-7f0d7dc99204"
      },
      "status": "completed",
      "subject": {
        "reference": "urn:uuid:23e461a9-4ebb-4c59-bd38-7a35b0eeaf93"
      },
      "context": {
        "reference": "urn:uuid:0017d7da-de0d-4d69-b88a-a3973a061517"
      },
      "authored": "2021-04-06T11:29:26+00:00",
      "item": [ {
        "linkId": "Tx222687",
        "text": "Have you got any of the medication available at the moment?",
        "answer": [ {
          "valueString": "no"
        } ]
      } ]
    }
  }, {
    "fullUrl": "urn:uuid:818f39ce-3ce9-4abf-b251-7f0d7dc99204",
    "resource": {
      "resourceType": "Questionnaire",
      "id": "818f39ce-3ce9-4abf-b251-7f0d7dc99204",
      "identifier": [ {
        "value": "59263"
      } ],
      "version": "2021-04-06T11:29:26.887Z",
      "status": "active",
      "experimental": false,
      "date": "2021-04-06T11:29:26+00:00",
      "publisher": "User ID: 'HADFIELDR' User name: 'Ryan Hadfield' User skill set: 'T3'",
      "lastReviewDate": "2021-04-06",
      "contact": [ {
        "telecom": [ {
          "system": "phone",
          "value": "07777 888888"
        } ]
      } ],
      "subjectType": [ "Patient" ],
      "item": [ {
        "linkId": "59263",
        "prefix": "200",
        "text": "Have you got any of the medication available at the moment?",
        "type": "choice",
        "required": true,
        "repeats": false,
        "option": [ {
          "valueString": "yes, Selected: false"
        }, {
          "valueString": "not sure, Selected: false"
        }, {
          "valueString": "no, Selected: true"
        } ]
      } ]
    }
  }, {
    "fullUrl": "urn:uuid:946223c6-dec2-4a19-84c2-cac7c2beef69",
    "resource": {
      "resourceType": "QuestionnaireResponse",
      "id": "946223c6-dec2-4a19-84c2-cac7c2beef69",
      "identifier": {
        "value": "59263"
      },
      "questionnaire": {
        "reference": "urn:uuid:fef00e8f-f5ac-4610-854c-18512257d213"
      },
      "status": "completed",
      "subject": {
        "reference": "urn:uuid:23e461a9-4ebb-4c59-bd38-7a35b0eeaf93"
      },
      "context": {
        "reference": "urn:uuid:0017d7da-de0d-4d69-b88a-a3973a061517"
      },
      "authored": "2021-04-06T11:29:26+00:00",
      "item": [ {
        "linkId": "Tx221367",
        "text": "When is the next dose due?",
        "answer": [ {
          "valueString": "within the next 12 hours"
        } ]
      } ]
    }
  }, {
    "fullUrl": "urn:uuid:fef00e8f-f5ac-4610-854c-18512257d213",
    "resource": {
      "resourceType": "Questionnaire",
      "id": "fef00e8f-f5ac-4610-854c-18512257d213",
      "identifier": [ {
        "value": "59263"
      } ],
      "version": "2021-04-06T11:29:26.887Z",
      "status": "active",
      "experimental": false,
      "date": "2021-04-06T11:29:26+00:00",
      "publisher": "User ID: 'HADFIELDR' User name: 'Ryan Hadfield' User skill set: 'T3'",
      "lastReviewDate": "2021-04-06",
      "contact": [ {
        "telecom": [ {
          "system": "phone",
          "value": "07777 888888"
        } ]
      } ],
      "subjectType": [ "Patient" ],
      "item": [ {
        "linkId": "59263",
        "prefix": "100",
        "text": "When is the next dose due?",
        "type": "choice",
        "required": true,
        "repeats": false,
        "option": [ {
          "valueString": "within the next 2 hours, Selected: false"
        }, {
          "valueString": "within the next 6 hours, Selected: false"
        }, {
          "valueString": "within the next 12 hours, Selected: true"
        }, {
          "valueString": "over 12 hours time, Selected: false"
        }, {
          "valueString": "not sure, Selected: false"
        } ]
      } ]
    }
  }, {
    "fullUrl": "urn:uuid:835109b8-4fc5-4217-a59e-03d35784af46",
    "resource": {
      "resourceType": "QuestionnaireResponse",
      "id": "835109b8-4fc5-4217-a59e-03d35784af46",
      "identifier": {
        "value": "59263"
      },
      "questionnaire": {
        "reference": "urn:uuid:1574ed0c-3afd-4a3b-a930-e4c233d1b3b6"
      },
      "status": "completed",
      "subject": {
        "reference": "urn:uuid:23e461a9-4ebb-4c59-bd38-7a35b0eeaf93"
      },
      "context": {
        "reference": "urn:uuid:0017d7da-de0d-4d69-b88a-a3973a061517"
      },
      "authored": "2021-04-06T11:29:26+00:00",
      "item": [ {
        "linkId": "Tx223441",
        "text": "STRING:SDPCRepeatPrescription",
        "answer": [ {
          "valueString": "\"PC repeat prescription\""
        } ]
      } ]
    }
  }, {
    "fullUrl": "urn:uuid:1574ed0c-3afd-4a3b-a930-e4c233d1b3b6",
    "resource": {
      "resourceType": "Questionnaire",
      "id": "1574ed0c-3afd-4a3b-a930-e4c233d1b3b6",
      "identifier": [ {
        "value": "59263"
      } ],
      "version": "2021-04-06T11:29:26.887Z",
      "status": "active",
      "experimental": false,
      "date": "2021-04-06T11:29:26+00:00",
      "publisher": "User ID: 'HADFIELDR' User name: 'Ryan Hadfield' User skill set: 'T3'",
      "lastReviewDate": "2021-04-06",
      "contact": [ {
        "telecom": [ {
          "system": "phone",
          "value": "07777 888888"
        } ]
      } ],
      "subjectType": [ "Patient" ],
      "item": [ {
        "linkId": "59263",
        "prefix": "1200",
        "text": "STRING:SDPCRepeatPrescription",
        "type": "choice",
        "required": true,
        "repeats": false,
        "option": [ {
          "valueString": "\"PC repeat prescription\", Selected: true"
        } ]
      } ]
    }
  }, {
    "fullUrl": "urn:uuid:5433b063-99e1-467f-ac69-00ccfda77d7e",
    "resource": {
      "resourceType": "QuestionnaireResponse",
      "id": "5433b063-99e1-467f-ac69-00ccfda77d7e",
      "identifier": {
        "value": "59263"
      },
      "questionnaire": {
        "reference": "urn:uuid:d291b034-f24f-420d-8455-c5d084b90aa4"
      },
      "status": "completed",
      "subject": {
        "reference": "urn:uuid:23e461a9-4ebb-4c59-bd38-7a35b0eeaf93"
      },
      "context": {
        "reference": "urn:uuid:0017d7da-de0d-4d69-b88a-a3973a061517"
      },
      "authored": "2021-04-06T11:29:26+00:00"
    }
  }, {
    "fullUrl": "urn:uuid:d291b034-f24f-420d-8455-c5d084b90aa4",
    "resource": {
      "resourceType": "Questionnaire",
      "id": "d291b034-f24f-420d-8455-c5d084b90aa4",
      "identifier": [ {
        "value": "59263"
      } ],
      "version": "2021-04-06T11:29:26.887Z",
      "status": "active",
      "experimental": false,
      "date": "2021-04-06T11:29:26+00:00",
      "publisher": "User ID: 'HADFIELDR' User name: 'Ryan Hadfield' User skill set: 'T3'",
      "lastReviewDate": "2021-04-06",
      "contact": [ {
        "telecom": [ {
          "system": "phone",
          "value": "07777 888888"
        } ]
      } ],
      "subjectType": [ "Patient" ]
    }
  }, {
    "fullUrl": "urn:uuid:743651ff-c1f2-4d1f-a971-bfee3d279ab0",
    "resource": {
      "resourceType": "QuestionnaireResponse",
      "id": "743651ff-c1f2-4d1f-a971-bfee3d279ab0",
      "identifier": {
        "value": "59263"
      },
      "questionnaire": {
        "reference": "urn:uuid:c9b02a3d-5196-4e7e-9772-bb00c31a9003"
      },
      "status": "completed",
      "subject": {
        "reference": "urn:uuid:23e461a9-4ebb-4c59-bd38-7a35b0eeaf93"
      },
      "context": {
        "reference": "urn:uuid:0017d7da-de0d-4d69-b88a-a3973a061517"
      },
      "authored": "2021-04-06T11:29:26+00:00"
    }
  }, {
    "fullUrl": "urn:uuid:c9b02a3d-5196-4e7e-9772-bb00c31a9003",
    "resource": {
      "resourceType": "Questionnaire",
      "id": "c9b02a3d-5196-4e7e-9772-bb00c31a9003",
      "identifier": [ {
        "value": "59263"
      } ],
      "version": "2021-04-06T11:29:26.887Z",
      "status": "active",
      "experimental": false,
      "date": "2021-04-06T11:29:26+00:00",
      "publisher": "User ID: 'HADFIELDR' User name: 'Ryan Hadfield' User skill set: 'T3'",
      "lastReviewDate": "2021-04-06",
      "contact": [ {
        "telecom": [ {
          "system": "phone",
          "value": "07777 888888"
        } ]
      } ],
      "subjectType": [ "Patient" ]
    }
  }, {
    "fullUrl": "urn:uuid:15971900-e53b-4ff0-85f4-40a0438e6077",
    "resource": {
      "resourceType": "Observation",
      "id": "15971900-e53b-4ff0-85f4-40a0438e6077",
      "status": "final",
      "code": {
        "coding": [ {
          "system": "http://snomed.info/sct",
          "code": "33962009",
          "display": "Presenting complaint"
        } ]
      },
      "subject": {
        "reference": "urn:uuid:23e461a9-4ebb-4c59-bd38-7a35b0eeaf93"
      },
      "context": {
        "reference": "urn:uuid:0017d7da-de0d-4d69-b88a-a3973a061517"
      },
      "valueString": "test"
    }
  }, {
    "fullUrl": "urn:uuid:7397f9cb-66d3-44a3-a62f-b0b454201c95",
    "resource": {
      "resourceType": "PractitionerRole",
      "id": "7397f9cb-66d3-44a3-a62f-b0b454201c95",
      "practitioner": {
        "reference": "urn:uuid:26f2b788-8c5b-4422-884f-f9c292d0d9e5"
      },
      "organization": {
        "reference": "urn:uuid:8f539304-3cd8-418e-8e32-ea0e85a8c0b9"
      },
      "code": [ {
        "coding": [ {
          "system": "2.16.840.1.113883.2.1.3.2.4.17.339",
          "code": "DOCTOR",
          "display": "Doctor"
        } ]
      } ]
    }
  }, {
    "fullUrl": "urn:uuid:8f539304-3cd8-418e-8e32-ea0e85a8c0b9",
    "resource": {
      "resourceType": "Organization",
      "id": "8f539304-3cd8-418e-8e32-ea0e85a8c0b9",
      "identifier": [ {
        "value": "RYE"
      } ],
      "name": "1.SCAS Administrator (SCAS111)"
    }
  }, {
    "fullUrl": "urn:uuid:fb96ede9-b040-495b-8b16-28b84854836a",
    "resource": {
      "resourceType": "PractitionerRole",
      "id": "fb96ede9-b040-495b-8b16-28b84854836a",
      "practitioner": {
        "reference": "urn:uuid:abc4b964-7132-4899-a7d1-ae8ff6e4de97"
      },
      "organization": {
        "reference": "urn:uuid:406835ca-5f7b-4e95-83dd-72271c0f6279"
      },
      "code": [ {
        "coding": [ {
          "system": "2.16.840.1.113883.2.1.3.2.4.17.196",
          "code": "R0010",
          "display": "Medical Director"
        } ]
      } ]
    }
  }, {
    "fullUrl": "urn:uuid:406835ca-5f7b-4e95-83dd-72271c0f6279",
    "resource": {
      "resourceType": "Organization",
      "id": "406835ca-5f7b-4e95-83dd-72271c0f6279",
      "identifier": [ {
        "value": "RYE"
      } ],
      "name": "SCAS111"
    }
  }, {
    "fullUrl": "urn:uuid:20efd73a-a543-486d-b77c-70cdf74100c7",
    "resource": {
      "resourceType": "RelatedPerson",
      "id": "20efd73a-a543-486d-b77c-70cdf74100c7",
      "patient": {
        "reference": "urn:uuid:23e461a9-4ebb-4c59-bd38-7a35b0eeaf93"
      },
      "relationship": {
        "coding": [ {
          "system": "http://hl7.org/fhir/v2/0131",
          "code": "C",
          "display": "Emergency Contact"
        } ]
      },
      "telecom": [ {
        "system": "phone",
        "value": "tel:000000000000"
      } ]
    }
  }, {
    "fullUrl": "urn:uuid:4b7a541f-bced-46a8-9533-1aa2b7f8f136",
    "resource": {
      "resourceType": "Device",
      "id": "4b7a541f-bced-46a8-9533-1aa2b7f8f136",
      "model": "111 Adaptor",
      "version": "0.9.0"
    }
  }, {
    "fullUrl": "urn:uuid:93c19cd0-ec36-4329-b8ce-6907f7b32d9c",
    "resource": {
      "resourceType": "List",
      "id": "93c19cd0-ec36-4329-b8ce-6907f7b32d9c",
      "status": "current",
      "mode": "working",
      "title": "111 Report List",
      "code": {
        "coding": [ {
          "system": "http://snomed.info/sct",
          "code": "225390008",
          "display": "Triage"
        } ]
      },
      "subject": {
        "reference": "urn:uuid:23e461a9-4ebb-4c59-bd38-7a35b0eeaf93"
      },
      "encounter": {
        "reference": "urn:uuid:0017d7da-de0d-4d69-b88a-a3973a061517"
      },
      "date": "2021-09-15T09:16:04+00:00",
      "source": {
        "reference": "urn:uuid:4b7a541f-bced-46a8-9533-1aa2b7f8f136"
      },
      "orderedBy": {
        "coding": [ {
          "system": "http://hl7.org/fhir/list-order",
          "code": "event-date",
          "display": "Sorted by Event Date"
        } ]
      },
      "entry": [ {
        "item": {
          "reference": "urn:uuid:10744a74-7419-4fc3-920a-6bc8c116e2e0"
        }
      }, {
        "item": {
          "reference": "urn:uuid:406835ca-5f7b-4e95-83dd-72271c0f6279"
        }
      }, {
        "item": {
          "reference": "urn:uuid:5841ac90-b2f8-4f00-9e93-7755ae26fe3f"
        }
      }, {
        "item": {
          "reference": "urn:uuid:2682330c-669c-4ef8-aa9d-8ecae2c2d97b"
        }
      }, {
        "item": {
          "reference": "urn:uuid:d55f2d71-ac22-41c7-aad5-9dff73cca545"
        }
      }, {
        "item": {
          "reference": "urn:uuid:20efd73a-a543-486d-b77c-70cdf74100c7"
        }
      }, {
        "item": {
          "reference": "urn:uuid:15971900-e53b-4ff0-85f4-40a0438e6077"
        }
      }, {
        "item": {
          "reference": "urn:uuid:abc4b964-7132-4899-a7d1-ae8ff6e4de97"
        }
      }, {
        "item": {
          "reference": "urn:uuid:26f2b788-8c5b-4422-884f-f9c292d0d9e5"
        }
      }, {
        "item": {
          "reference": "urn:uuid:8f539304-3cd8-418e-8e32-ea0e85a8c0b9"
        }
      }, {
        "item": {
          "reference": "urn:uuid:fc0a8976-047f-45c9-b6f8-c3edd8852e71"
        }
      }, {
        "item": {
          "reference": "urn:uuid:23b20a9c-24cd-4c5a-9246-f197798a2b82"
        }
      }, {
        "item": {
          "reference": "urn:uuid:623feb52-ef0b-45a8-b5b0-f37a51ef337b"
        }
      }, {
        "item": {
          "reference": "urn:uuid:818f39ce-3ce9-4abf-b251-7f0d7dc99204"
        }
      }, {
        "item": {
          "reference": "urn:uuid:2a9907f0-f850-4d92-826a-a93a63cd7735"
        }
      }, {
        "item": {
          "reference": "urn:uuid:08f2faab-12a9-434d-aedc-f728d4851f80"
        }
      }, {
        "item": {
          "reference": "urn:uuid:44f553da-fab6-4c31-8771-f487f3d7303a"
        }
      }, {
        "item": {
          "reference": "urn:uuid:07127feb-f286-4b3a-81ad-dd6dff1e8b06"
        }
      }, {
        "item": {
          "reference": "urn:uuid:0dfabd41-50fc-40f1-b90d-c4a63cf6a43c"
        }
      }, {
        "item": {
          "reference": "urn:uuid:b09bd733-5b35-48cd-a143-ba1db03965d3"
        }
      }, {
        "item": {
          "reference": "urn:uuid:29c5946a-0eb8-4f5f-8353-2a94dbd73c6b"
        }
      }, {
        "item": {
          "reference": "urn:uuid:e65845d0-4189-47be-96cb-621a07cbfa7a"
        }
      }, {
        "item": {
          "reference": "urn:uuid:63b352b5-0524-456e-97ce-127c85340329"
        }
      }, {
        "item": {
          "reference": "urn:uuid:a198583a-8b1d-42b3-a48e-beaadac1ec35"
        }
      }, {
        "item": {
          "reference": "urn:uuid:5aebde04-2186-4f76-8323-3c4fc97ec076"
        }
      }, {
        "item": {
          "reference": "urn:uuid:681b37f9-f792-4d5c-9a28-76b735220952"
        }
      }, {
        "item": {
          "reference": "urn:uuid:be03c849-efd8-4ee4-a9ab-208980de4afd"
        }
      }, {
        "item": {
          "reference": "urn:uuid:f1575929-e4cf-49d3-a7e0-779a9c5c2b97"
        }
      }, {
        "item": {
          "reference": "urn:uuid:00db0024-f7a0-45d4-91ca-0ef5e3e6ef0a"
        }
      }, {
        "item": {
          "reference": "urn:uuid:ec2cf60c-16ba-444c-b150-4c1f177e7654"
        }
      }, {
        "item": {
          "reference": "urn:uuid:3521315f-ace4-4621-a015-daabf9e1be04"
        }
      }, {
        "item": {
          "reference": "urn:uuid:08fd8812-e62a-4bfa-b2af-e15ffd8f1e5d"
        }
      }, {
        "item": {
          "reference": "urn:uuid:835109b8-4fc5-4217-a59e-03d35784af46"
        }
      }, {
        "item": {
          "reference": "urn:uuid:b1542d73-49eb-4f0b-8332-652a57b77274"
        }
      }, {
        "item": {
          "reference": "urn:uuid:3a1fcfe4-7977-4b6d-9384-4ca4021f38ac"
        }
      }, {
        "item": {
          "reference": "urn:uuid:db942513-c2ce-479c-8779-34692ee122cd"
        }
      }, {
        "item": {
          "reference": "urn:uuid:ddf42864-d353-4b19-a60b-6d494a728549"
        }
      }, {
        "item": {
          "reference": "urn:uuid:3e4f989e-8766-47a0-a6b5-e56cae0a4e8a"
        }
      }, {
        "item": {
          "reference": "urn:uuid:bee95799-8dea-4f31-8cdd-0fb47af3ea20"
        }
      }, {
        "item": {
          "reference": "urn:uuid:0dce87f7-98d0-4b0a-b312-dc19d8cceb37"
        }
      }, {
        "item": {
          "reference": "urn:uuid:5b322d0b-9172-4a8e-9c4a-6c986d7ac8fe"
        }
      }, {
        "item": {
          "reference": "urn:uuid:e652cd85-6d1f-44a2-ad35-373d39669279"
        }
      }, {
        "item": {
          "reference": "urn:uuid:e874ae6c-123d-4fd2-98f3-b49fc06010ca"
        }
      }, {
        "item": {
          "reference": "urn:uuid:7171a6fb-6530-48c4-926a-d410ee91f655"
        }
      }, {
        "item": {
          "reference": "urn:uuid:c6095c05-3f22-4a66-af03-58c367733b04"
        }
      }, {
        "item": {
          "reference": "urn:uuid:7f1a454f-ca8a-42f4-876d-7468d66f0445"
        }
      }, {
        "item": {
          "reference": "urn:uuid:cf829a09-9559-4e29-8fda-5e1aeeaf7508"
        }
      }, {
        "item": {
          "reference": "urn:uuid:83931bd1-dd46-4c04-8085-f24bea23840e"
        }
      }, {
        "item": {
          "reference": "urn:uuid:09c904c4-1b8a-47a4-b75c-d56aae8dd550"
        }
      }, {
        "item": {
          "reference": "urn:uuid:5affc562-8273-4552-a521-bf7b5bf9424b"
        }
      }, {
        "item": {
          "reference": "urn:uuid:a5ce970a-b893-452e-ac2b-288e62afb8af"
        }
      }, {
        "item": {
          "reference": "urn:uuid:782da02d-0250-496a-8e40-ceb26e511203"
        }
      }, {
        "item": {
          "reference": "urn:uuid:f920ba6b-cee5-4f39-ae8b-f0dc57f44ba8"
        }
      }, {
        "item": {
          "reference": "urn:uuid:5bb4e889-9051-472e-ba4c-11fb40d6bbaa"
        }
      }, {
        "item": {
          "reference": "urn:uuid:59088bb2-811b-4b47-8cdc-2d63c456563f"
        }
      }, {
        "item": {
          "reference": "urn:uuid:a0e0086a-f842-4400-abf6-5d8a43628304"
        }
      }, {
        "item": {
          "reference": "urn:uuid:f5ae7d68-8606-443b-b359-67a90a50a98b"
        }
      }, {
        "item": {
          "reference": "urn:uuid:c4106f4c-b8a8-4352-92ee-7183879d18eb"
        }
      }, {
        "item": {
          "reference": "urn:uuid:60a1a185-cf45-4e68-9b76-b710efb3c9b7"
        }
      }, {
        "item": {
          "reference": "urn:uuid:8263991b-59ef-47e8-a3ba-f4c6a29073b8"
        }
      }, {
        "item": {
          "reference": "urn:uuid:2ead1883-8c1e-4d5f-b963-972c52699c2b"
        }
      }, {
        "item": {
          "reference": "urn:uuid:67784570-481b-4380-bbec-7fcd115f53ea"
        }
      }, {
        "item": {
          "reference": "urn:uuid:c9b02a3d-5196-4e7e-9772-bb00c31a9003"
        }
      }, {
        "item": {
          "reference": "urn:uuid:81a0206a-ef15-4e05-9907-83750b861a28"
        }
      }, {
        "item": {
          "reference": "urn:uuid:743651ff-c1f2-4d1f-a971-bfee3d279ab0"
        }
      }, {
        "item": {
          "reference": "urn:uuid:e0bbc840-f5ba-44ba-870e-043a579d7b44"
        }
      }, {
        "item": {
          "reference": "urn:uuid:ff98c696-0293-41a1-9eec-b8745d68b402"
        }
      }, {
        "item": {
          "reference": "urn:uuid:98e0ec0c-4312-49fb-81fa-a8ed082579d4"
        }
      }, {
        "item": {
          "reference": "urn:uuid:9dff822f-0914-4e8a-a8c4-9abf77ab893e"
        }
      }, {
        "item": {
          "reference": "urn:uuid:9b0efe1c-9f72-4eb2-a605-fdd7568a3452"
        }
      }, {
        "item": {
          "reference": "urn:uuid:7eb2f024-3004-4936-9c09-6db1e05b6d64"
        }
      }, {
        "item": {
          "reference": "urn:uuid:c5c3dc78-706c-4094-90b9-b5548dd10d57"
        }
      }, {
        "item": {
          "reference": "urn:uuid:108e3aef-6f98-498e-8272-3ba60bffc52c"
        }
      }, {
        "item": {
          "reference": "urn:uuid:e2f2a238-8a57-4fde-b7e9-eb436e7eb3c2"
        }
      }, {
        "item": {
          "reference": "urn:uuid:836bed52-c86d-42cd-9d3c-6b1f8d2e89f0"
        }
      }, {
        "item": {
          "reference": "urn:uuid:fbb3eef3-55d7-45ca-be47-6b16a5f4c1c6"
        }
      }, {
        "item": {
          "reference": "urn:uuid:ffaa09a2-b0af-436d-b33a-d030a0fc98b1"
        }
      }, {
        "item": {
          "reference": "urn:uuid:186c0467-dbfa-496e-8792-939588519e3d"
        }
      }, {
        "item": {
          "reference": "urn:uuid:efedc831-e985-4fd1-929b-3d9b51c603e5"
        }
      }, {
        "item": {
          "reference": "urn:uuid:ec23f4eb-1697-44cf-be13-1dc200ef51a3"
        }
      }, {
        "item": {
          "reference": "urn:uuid:ba52cc21-2f0f-4d6e-89c0-c836ef40d79f"
        }
      }, {
        "item": {
          "reference": "urn:uuid:9384ea6a-572b-4466-82eb-b1e13c62d590"
        }
      }, {
        "item": {
          "reference": "urn:uuid:b7e6a25a-95b2-4a6f-ba8f-6b96116cbc9a"
        }
      }, {
        "item": {
          "reference": "urn:uuid:13417565-eb39-4578-93e4-7b8ded5c487d"
        }
      }, {
        "item": {
          "reference": "urn:uuid:720bf7d3-7f90-40c1-9492-5b3b2727c38f"
        }
      }, {
        "item": {
          "reference": "urn:uuid:49b07b95-33ad-4a98-a848-d8fdb0b88f4a"
        }
      }, {
        "item": {
          "reference": "urn:uuid:2aac682e-9ca1-4881-910f-45392c55b8f5"
        }
      }, {
        "item": {
          "reference": "urn:uuid:60ab0ce6-f2b5-4826-a402-064c0f2bdb17"
        }
      }, {
        "item": {
          "reference": "urn:uuid:34a1e99a-9640-436d-b3bf-7f4905c85891"
        }
      }, {
        "item": {
          "reference": "urn:uuid:f057ddf2-a397-4160-8a19-dd58084b652f"
        }
      }, {
        "item": {
          "reference": "urn:uuid:b70451cb-15e9-4457-b2a3-ee003ab33699"
        }
      }, {
        "item": {
          "reference": "urn:uuid:946223c6-dec2-4a19-84c2-cac7c2beef69"
        }
      }, {
        "item": {
          "reference": "urn:uuid:5433b063-99e1-467f-ac69-00ccfda77d7e"
        }
      }, {
        "item": {
          "reference": "urn:uuid:fef00e8f-f5ac-4610-854c-18512257d213"
        }
      }, {
        "item": {
          "reference": "urn:uuid:568b8465-8678-456b-9ef9-bcf8159ecb01"
        }
      }, {
        "item": {
          "reference": "urn:uuid:5d1e7674-1ae3-42bb-9e2d-e88dc5484c77"
        }
      }, {
        "item": {
          "reference": "urn:uuid:7ffbfe0d-497f-476b-b8e7-300943d33c4f"
        }
      }, {
        "item": {
          "reference": "urn:uuid:07db1e36-71f4-4000-ac38-0b443d4d234d"
        }
      }, {
        "item": {
          "reference": "urn:uuid:c125e0c6-af59-4cae-be9b-aed9e0513eae"
        }
      }, {
        "item": {
          "reference": "urn:uuid:15b02430-b1b4-4be9-ac8f-ef35294e8a3a"
        }
      }, {
        "item": {
          "reference": "urn:uuid:f195f441-c96a-4bfa-953e-e4085b18502b"
        }
      }, {
        "item": {
          "reference": "urn:uuid:80206760-4195-4687-a3a9-9bdb8e3ecf37"
        }
      }, {
        "item": {
          "reference": "urn:uuid:1574ed0c-3afd-4a3b-a930-e4c233d1b3b6"
        }
      }, {
        "item": {
          "reference": "urn:uuid:96a113ca-eac1-45ca-86ca-53a47981a09c"
        }
      }, {
        "item": {
          "reference": "urn:uuid:c3f85ff1-6db3-4abf-b15e-aaa04a9955f0"
        }
      }, {
        "item": {
          "reference": "urn:uuid:cf441d6e-b0ac-4f65-a070-20308c462cf3"
        }
      }, {
        "item": {
          "reference": "urn:uuid:964d7f5a-5472-4c4a-bad4-526fdf62f552"
        }
      }, {
        "item": {
          "reference": "urn:uuid:bc67b726-e7b7-447e-968e-7ca6e0ec13f0"
        }
      }, {
        "item": {
          "reference": "urn:uuid:5e801ec9-99ef-4ba0-8c76-fc4609aea2df"
        }
      }, {
        "item": {
          "reference": "urn:uuid:57ae87f3-5576-46fa-84c9-f32891f2c8b0"
        }
      }, {
        "item": {
          "reference": "urn:uuid:b18a5d28-90de-4255-8a29-028d9ed403b0"
        }
      }, {
        "item": {
          "reference": "urn:uuid:64b96e01-92d1-40aa-a6ab-aa2fadf87ba6"
        }
      }, {
        "item": {
          "reference": "urn:uuid:3e89a3b3-8b98-4338-b1ae-3ea2cc1164ee"
        }
      }, {
        "item": {
          "reference": "urn:uuid:d7477384-396b-47ac-8530-d65b3b242856"
        }
      }, {
        "item": {
          "reference": "urn:uuid:7ae97251-c417-42a4-8870-7605e20ea9a9"
        }
      }, {
        "item": {
          "reference": "urn:uuid:de2e1777-adb7-4ec8-91d1-b912f0964d45"
        }
      }, {
        "item": {
          "reference": "urn:uuid:6d88710b-11cb-43ff-a0ba-1e5a53bf20cc"
        }
      }, {
        "item": {
          "reference": "urn:uuid:86c627b1-24f3-4fc3-b492-92ea4af34535"
        }
      }, {
        "item": {
          "reference": "urn:uuid:9d151502-fe6c-49cf-ad63-9d18df8ce469"
        }
      }, {
        "item": {
          "reference": "urn:uuid:d291b034-f24f-420d-8455-c5d084b90aa4"
        }
      }, {
        "item": {
          "reference": "urn:uuid:c75e9ef1-0740-4abf-92a1-eb2ef90289b7"
        }
      }, {
        "item": {
          "reference": "urn:uuid:c97bf69b-ccc1-4873-a020-e3b8c969a4b6"
        }
      }, {
        "item": {
          "reference": "urn:uuid:689a28a1-ba4a-4f00-a468-90ce47474a7d"
        }
      }, {
        "item": {
          "reference": "urn:uuid:942f4361-4c3b-40d0-8a0a-2c8dc9f316c4"
        }
      }, {
        "item": {
          "reference": "urn:uuid:d3bf138d-98a0-41ec-8317-541811bc77c2"
        }
      }, {
        "item": {
          "reference": "urn:uuid:f14cc726-cbe3-413c-88e3-a4ba4452dea8"
        }
      }, {
        "item": {
          "reference": "urn:uuid:b00b1686-3255-4cba-a9a1-78768bc8762c"
        }
      }, {
        "item": {
          "reference": "urn:uuid:67271cc3-dace-45ab-913a-fa1bda8157b8"
        }
      }, {
        "item": {
          "reference": "urn:uuid:cdcc2848-be37-4599-bc11-6cae4dff9746"
        }
      }, {
        "item": {
          "reference": "urn:uuid:f10d899d-8896-4e16-9492-a79be78766e0"
        }
      }, {
        "item": {
          "reference": "urn:uuid:a89ed900-1748-4721-9309-848ef3356763"
        }
      }, {
        "item": {
          "reference": "urn:uuid:d87caeec-5c93-4442-88f7-d190a83b809a"
        }
      }, {
        "item": {
          "reference": "urn:uuid:b3a441d1-625e-4d3a-967d-177fb3a7c1af"
        }
      } ]
    }
  } ]
}