{
  "resourceType": "Bundle",
  "identifier": {
    "type": {
      "text": "ClinicalDocument VersionNumber"
    },
    "value": "1"
  },
  "type": "message",
  "entry": [ {
    "fullUrl": "urn:uuid:7AEFFED7-78AF-4940-9EE2-5FAA3920ECFE",
    "resource": {
      "resourceType": "MessageHeader",
      "id": "7AEFFED7-78AF-4940-9EE2-5FAA3920ECFE",
      "event": {
        "system": "https://fhir.nhs.uk/STU3/CodeSystem/EventType-1",
        "code": "referral-1",
        "display": "Referral"
      },
      "destination": [ {
        "endpoint": "urn:nhs-uk:addressing:ods:RSHSO14A:DOSServiceID:2000006423"
      } ],
      "timestamp": "2021-04-06T11:33:35.000+00:00",
      "source": {
        "name": "NHS 111 Adaptor",
        "endpoint": "http://localhost:8080/report"
      },
      "reason": {
        "coding": [ {
          "system": "urn:nhs-itk:ns:201005:interaction",
          "code": "urn:nhs-itk:interaction:primaryEmergencyDepartmentRecipientNHS111CDADocument-v2-0"
        } ]
      }
    },
    "response": {
      "status": "success",
      "lastModified": "2022-05-09T13:25:18.110+00:00"
    }
  }, {
    "fullUrl": "urn:uuid:5a5072f4-ef62-4c22-b37e-7721edc9bc86",
    "resource": {
      "resourceType": "Encounter",
      "id": "5a5072f4-ef62-4c22-b37e-7721edc9bc86",
      "identifier": [ {
        "system": "2.16.840.1.113883.2.1.3.2.4.18.34",
        "value": "029EE79C-BBD3-478A-93EE-979CB300212E"
      }, {
        "system": "2.16.840.1.113883.2.1.3.2.4.18.35",
        "value": "59132"
      }, {
        "system": "2.16.840.1.113883.2.1.3.2.4.18.49",
        "value": "029EE79C-BBD3-478A-93EE-979CB300212E"
      } ],
      "status": "finished",
      "type": [ {
        "text": "111 Encounter Referral"
      } ],
      "subject": {
        "reference": "urn:uuid:50f230c6-19a6-4d89-800c-5b68f82027a7"
      },
      "participant": [ {
        "type": [ {
          "coding": [ {
            "system": "http://hl7.org/fhir/ValueSet/encounter-participant-type",
            "code": "PPRF",
            "display": "Author"
          } ]
        } ],
        "individual": {
          "reference": "urn:uuid:a9382869-d54a-445e-be54-35f4275c2a71"
        }
      }, {
        "type": [ {
          "coding": [ {
            "system": "http://hl7.org/fhir/ValueSet/encounter-participant-type",
            "code": "ATND",
            "display": "Responsible Party"
          } ]
        } ],
        "individual": {
          "reference": "urn:uuid:1f9da500-1867-48c1-acdc-d1b5220c9e35"
        }
      } ],
      "period": {
        "start": "2021-04-06T10:54:11+00:00",
        "end": "2021-04-06T11:33:27+00:00"
      },
      "location": [ {
        "location": {
          "reference": "urn:uuid:60385d27-ad38-4dfe-880a-2033c5611a85"
        },
        "status": "active"
      }, {
        "location": {
          "reference": "urn:uuid:5d83f847-fa62-438b-a09b-392e1131fc3d"
        },
        "status": "completed"
      } ],
      "serviceProvider": {
        "reference": "urn:uuid:80f997c4-f4dc-4291-b309-6b2829c98142"
      }
    }
  }, {
    "fullUrl": "urn:uuid:80f997c4-f4dc-4291-b309-6b2829c98142",
    "resource": {
      "resourceType": "Organization",
      "id": "80f997c4-f4dc-4291-b309-6b2829c98142",
      "active": true,
      "type": [ {
        "text": "CST"
      } ],
      "name": "SCAS111"
    }
  }, {
    "fullUrl": "urn:uuid:a9382869-d54a-445e-be54-35f4275c2a71",
    "resource": {
      "resourceType": "Practitioner",
      "id": "a9382869-d54a-445e-be54-35f4275c2a71",
      "active": true,
      "name": [ {
        "use": "official",
        "family": "McDonald",
        "given": [ "Denzle" ]
      } ]
    }
  }, {
    "fullUrl": "urn:uuid:1f9da500-1867-48c1-acdc-d1b5220c9e35",
    "resource": {
      "resourceType": "Practitioner",
      "id": "1f9da500-1867-48c1-acdc-d1b5220c9e35",
      "active": true,
      "name": [ {
        "use": "official",
        "family": "Black",
        "given": [ "John" ]
      } ]
    }
  }, {
    "fullUrl": "urn:uuid:60385d27-ad38-4dfe-880a-2033c5611a85",
    "resource": {
      "resourceType": "Location",
      "id": "60385d27-ad38-4dfe-880a-2033c5611a85",
      "managingOrganization": {
        "reference": "urn:uuid:86f594b1-2b81-4ed8-851e-05fb582837b6"
      }
    }
  }, {
    "fullUrl": "urn:uuid:86f594b1-2b81-4ed8-851e-05fb582837b6",
    "resource": {
      "resourceType": "Organization",
      "id": "86f594b1-2b81-4ed8-851e-05fb582837b6",
      "identifier": [ {
        "value": "J82633"
      } ],
      "type": [ {
        "text": "GP Practice"
      } ],
      "name": "The Riverside Partnership ( Riverside Kelsey)",
      "telecom": [ {
        "system": "phone",
        "value": "tel:01730892412",
        "use": "work"
      } ],
      "address": [ {
        "use": "work",
        "line": [ "Riverside Kelsey Surgery", "75 Station Road", "Liss", "Hampshire" ],
        "postalCode": "GU33 7AD"
      } ]
    }
  }, {
    "fullUrl": "urn:uuid:5d83f847-fa62-438b-a09b-392e1131fc3d",
    "resource": {
      "resourceType": "Location",
      "id": "5d83f847-fa62-438b-a09b-392e1131fc3d",
      "name": "Incident Location",
      "address": {
        "type": "physical",
        "line": [ "Hampshire Partnership NHS Trust", "Tatchbury Mount Hospital Horseshoe Drive", "Calmore", "Southampton", "Hampshire" ],
        "postalCode": "SO40 2RZ"
      }
    }
  }, {
    "fullUrl": "urn:uuid:50f230c6-19a6-4d89-800c-5b68f82027a7",
    "resource": {
      "resourceType": "Patient",
      "id": "50f230c6-19a6-4d89-800c-5b68f82027a7",
      "identifier": [ {
        "extension": [ {
          "url": "https://fhir.hl7.org.uk/STU3/StructureDefinition/Extension-CareConnect-NHSNumberVerificationStatus-1",
          "valueCodeableConcept": {
            "coding": [ {
              "system": "https://fhir.hl7.org.uk/STU3/StructureDefinition/Extension-CareConnect-NHSNumberVerificationStatus-1",
              "code": "01"
            } ]
          }
        } ],
        "system": "https://fhir.nhs.uk/Id/nhs-number",
        "value": "9990004951"
      } ],
      "active": true,
      "name": [ {
        "use": "official",
        "family": "Xxtestpatientdfae",
        "given": [ "Btl-Donotuse" ]
      } ],
      "telecom": [ {
        "system": "phone",
        "value": "tel:07948625625",
        "use": "home"
      }, {
        "system": "phone",
        "value": "tel:07948625625"
      } ],
      "gender": "female",
      "birthDate": "2015-04-01",
      "address": [ {
        "use": "home",
        "line": [ "Hampshire Partnership NHS Trust", "Tatchbury Mount Hospital Horseshoe Drive", "Calmore", "Southampton", "Hampshire" ],
        "postalCode": "SO40 2RZ"
      } ],
      "generalPractitioner": [ {
        "reference": "urn:uuid:7e03b08e-9668-4204-8254-5cbb0e1d3a21"
      } ]
    }
  }, {
    "fullUrl": "urn:uuid:7e03b08e-9668-4204-8254-5cbb0e1d3a21",
    "resource": {
      "resourceType": "Organization",
      "id": "7e03b08e-9668-4204-8254-5cbb0e1d3a21",
      "identifier": [ {
        "value": "J82633"
      } ],
      "type": [ {
        "text": "GP Practice"
      } ],
      "name": "The Riverside Partnership ( Riverside Kelsey)",
      "telecom": [ {
        "system": "phone",
        "value": "tel:01730892412",
        "use": "work"
      } ],
      "address": [ {
        "use": "work",
        "line": [ "Riverside Kelsey Surgery", "75 Station Road", "Liss", "Hampshire" ],
        "postalCode": "GU33 7AD"
      } ]
    }
  }, {
    "fullUrl": "urn:uuid:8f06224f-eb3d-449e-a225-eb882bafa585",
    "resource": {
      "resourceType": "HealthcareService",
      "id": "8f06224f-eb3d-449e-a225-eb882bafa585",
      "active": true,
      "providedBy": {
        "reference": "urn:uuid:cc1f5fd3-ca52-4764-ac12-e5b74ad0da0c"
      },
      "location": [ {
        "reference": "urn:uuid:811e0e3f-e39e-4e34-b351-ccfd03bdb4ba"
      } ],
      "name": "Urgent Treatment Centre (GP led), Royal South Hants Hospital"
    }
  }, {
    "fullUrl": "urn:uuid:811e0e3f-e39e-4e34-b351-ccfd03bdb4ba",
    "resource": {
      "resourceType": "Location",
      "id": "811e0e3f-e39e-4e34-b351-ccfd03bdb4ba",
      "managingOrganization": {
        "reference": "urn:uuid:cc1f5fd3-ca52-4764-ac12-e5b74ad0da0c"
      }
    }
  }, {
    "fullUrl": "urn:uuid:cc1f5fd3-ca52-4764-ac12-e5b74ad0da0c",
    "resource": {
      "resourceType": "Organization",
      "id": "cc1f5fd3-ca52-4764-ac12-e5b74ad0da0c",
      "identifier": [ {
        "value": "RSHSO14A"
      } ],
      "type": [ {
        "coding": [ {
          "code": "PRCP",
          "display": "Urgent Treatment Centre (GP led), Royal South Hants Hospital"
        } ]
      } ],
      "name": "Urgent Treatment Centre (GP led), Royal South Hants Hospital"
    }
  }, {
    "fullUrl": "urn:uuid:a1649b2a-8128-4352-846c-9fd19b95b1bc",
    "resource": {
      "resourceType": "ReferralRequest",
      "id": "a1649b2a-8128-4352-846c-9fd19b95b1bc",
      "status": "active",
      "intent": "plan",
      "priority": "routine",
      "subject": {
        "reference": "urn:uuid:50f230c6-19a6-4d89-800c-5b68f82027a7"
      },
      "context": {
        "reference": "urn:uuid:5a5072f4-ef62-4c22-b37e-7721edc9bc86"
      },
      "occurrencePeriod": {
        "start": "2021-04-06T11:33:35+00:00"
      },
      "authoredOn": "2021-04-06T11:33:27+00:00",
      "requester": {
        "agent": {
          "reference": "urn:uuid:5402a90f-553f-4d8e-8683-a04e6287b69c"
        },
        "onBehalfOf": {
          "reference": "urn:uuid:80f997c4-f4dc-4291-b309-6b2829c98142"
        }
      },
      "recipient": [ {
        "reference": "urn:uuid:8f06224f-eb3d-449e-a225-eb882bafa585"
      } ],
      "reasonReference": [ {
        "reference": "urn:uuid:affc4cef-ef2c-41e6-95e3-3ddcba32919d"
      } ],
      "supportingInfo": [ {
        "reference": "urn:uuid:4ae57ae4-a276-46cc-abc1-af28916612ad"
      } ]
    }
  }, {
    "fullUrl": "urn:uuid:4ae57ae4-a276-46cc-abc1-af28916612ad",
    "resource": {
      "resourceType": "ProcedureRequest",
      "id": "4ae57ae4-a276-46cc-abc1-af28916612ad",
      "status": "active",
      "intent": "plan",
      "priority": "routine",
      "doNotPerform": false,
      "code": {
        "coding": [ {
          "system": "2.16.840.1.113883.2.1.3.2.4.17.325",
          "code": "Dx06",
          "display": "To contact a local service within 6 hours"
        } ]
      },
      "subject": {
        "reference": "urn:uuid:50f230c6-19a6-4d89-800c-5b68f82027a7"
      },
      "occurrencePeriod": {
        "start": "2021-04-06T11:33:35+00:00"
      },
      "reasonReference": [ {
        "reference": "urn:uuid:affc4cef-ef2c-41e6-95e3-3ddcba32919d"
      } ]
    }
  }, {
    "fullUrl": "urn:uuid:0e23314e-4a74-4a4a-aa06-9cc2c250e76c",
    "resource": {
      "resourceType": "Composition",
      "id": "0e23314e-4a74-4a4a-aa06-9cc2c250e76c",
      "identifier": {
        "use": "usual",
        "value": "A8E3FB32-6805-4191-B071-EA540A9318CD"
      },
      "status": "final",
      "type": {
        "coding": [ {
          "system": "http://snomed.info/sct",
          "code": "371531000",
          "display": "Report of clinical encounter (record artifact)"
        } ]
      },
      "subject": {
        "reference": "urn:uuid:50f230c6-19a6-4d89-800c-5b68f82027a7"
      },
      "encounter": {
        "reference": "urn:uuid:5a5072f4-ef62-4c22-b37e-7721edc9bc86"
      },
      "date": "2021-04-06T11:33:35+00:00",
      "author": [ {
        "reference": "urn:uuid:a9382869-d54a-445e-be54-35f4275c2a71"
      } ],
      "title": "111 Report",
      "confidentiality": "N",
      "section": [ {
        "section": [ {
          "title": "Patient's Reported Condition",
          "text": {
            "status": "generated",
            "div": "<div xmlns=\"http://www.w3.org/1999/xhtml\">&lt;content&gt;Pharmacy ITK Testing&lt;/content&gt;\n                                                    &lt;br/&gt;</div>"
          }
        }, {
          "title": "Pathways Disposition",
          "text": {
            "status": "generated",
            "div": "<div xmlns=\"http://www.w3.org/1999/xhtml\">To contact a local service within 6 hours (Dx06)                                         &lt;br/&gt;\n                                                    &lt;br/&gt;                                         Selected service: Urgent Treatment Centre (GP led), Royal South Hant&lt;br/&gt;</div>"
          }
        }, {
          "title": "Consultation Summary",
          "text": {
            "status": "generated",
            "div": "<div xmlns=\"http://www.w3.org/1999/xhtml\">Illness&lt;br/&gt;Warm to touch&lt;br/&gt;Nausea without vomiting&lt;br/&gt;Abdominal pain also present&lt;br/&gt;Moderately severe pain&lt;br/&gt;Flank pain&lt;br/&gt;Fever at time of assessment or in last 12 hours&lt;br/&gt;</div>"
          }
        }, {
          "title": "Pathways Assessment",
          "text": {
            "status": "generated",
            "div": "<div xmlns=\"http://www.w3.org/1999/xhtml\">An injury or health problem was the reason for the contact.&lt;br/&gt;Heavy bleeding had not occurred in the previous 30 minutes.&lt;br/&gt;An illness or health problem was the main problem.&lt;br/&gt;User Comments: Pharmacy ITK Testing&lt;br/&gt;The individual was not fighting for breath.&lt;br/&gt;The main reason for the contact was not an allergic reaction, chest/upper back pain, recent fit/seizure, suicide attempt, new confusion or suspected stroke.&lt;br/&gt;The main reason for contact was not declared diabetic hypo/hyperglycaemia or ICD shock.&lt;br/&gt;The skin on the torso felt normal, warm or hot.&lt;br/&gt;Pathway selected - Vomiting and/or Nausea&lt;br/&gt;The individual had not vomited.&lt;br/&gt;The individual did not also have diarrhoea.&lt;br/&gt;The symptoms did not follow drinking alcohol.&lt;br/&gt;Abdominal pain was also present.&lt;br/&gt;The pain interfered with normal activity.&lt;br/&gt;The individual was able to carry out most or all normal activities.&lt;br/&gt;The individual had not ingested a harmful or toxic substance.&lt;br/&gt;There had been no black and tarry or red/maroon bowel motions.&lt;br/&gt;There was no new or worsening confusion.&lt;br/&gt;Breathing harder or faster when doing nothing was not described.&lt;br/&gt;There was no new shoulder tip pain or pain in the lower right abdomen.&lt;br/&gt;The individual had not been in constant pain for 4 hours or more.&lt;br/&gt;There was no previous history of diabetes.&lt;br/&gt;There was flank pain.&lt;br/&gt;There was a fever at the time of assessment or within the previous 12 hours.&lt;br/&gt;There was no new, widespread, red rash.&lt;br/&gt;Instructions given were: The individual needs to contact a local service within 6 hours.&lt;br/&gt;Directory of Services referral: Urgent Treatment Centre (GP led), Royal South Hants Hospital&lt;br/&gt;</div>"
          }
        }, {
          "title": "Advice Given",
          "text": {
            "status": "generated",
            "div": "<div xmlns=\"http://www.w3.org/1999/xhtml\">I will arrange for a clinician to contact the individual. I need to ask some further questions in order to determine the best way to do this.&lt;br/&gt;If there are any new symptoms, or if the condition gets worse, changes or you have any other concerns, call us back.&lt;br/&gt;\n                                                    &lt;br/&gt;</div>"
          }
        }, {
          "title": "Information And Advice Given"
        }, {
          "title": "Disposition",
          "text": {
            "status": "generated",
            "div": "<div xmlns=\"http://www.w3.org/1999/xhtml\">&lt;content&gt;To contact a local service within 6 hours&lt;br/&gt;\n                                                    &lt;/content&gt;\n                                                    &lt;br/&gt;\n                                                    &lt;br/&gt;</div>"
          }
        } ]
      }, {
        "title": "CarePlan",
        "entry": [ {
          "reference": "urn:uuid:c8b6a073-0085-4df4-88bd-f0ff19dce98c"
        } ]
      }, {
        "title": "ReferralRequest",
        "entry": [ {
          "reference": "urn:uuid:a1649b2a-8128-4352-846c-9fd19b95b1bc"
        } ]
      }, {
        "title": "QuestionnaireResponse",
        "entry": [ {
          "reference": "urn:uuid:5909d693-2040-4008-b521-c3097713fce0"
        } ]
      }, {
        "title": "QuestionnaireResponse",
        "entry": [ {
          "reference": "urn:uuid:012fa872-fb7e-46c6-9a4b-e79b09b62ba8"
        } ]
      }, {
        "title": "QuestionnaireResponse",
        "entry": [ {
          "reference": "urn:uuid:dc85c877-635b-46ef-95b2-a2b3910f1d45"
        } ]
      }, {
        "title": "QuestionnaireResponse",
        "entry": [ {
          "reference": "urn:uuid:18cd34f6-3590-455b-92dd-f90c72d14df0"
        } ]
      }, {
        "title": "QuestionnaireResponse",
        "entry": [ {
          "reference": "urn:uuid:e159762f-ef73-4cb5-ad41-d577b799e609"
        } ]
      }, {
        "title": "QuestionnaireResponse",
        "entry": [ {
          "reference": "urn:uuid:98703fe1-ccb1-4bc9-b2ea-8c7704efdbeb"
        } ]
      }, {
        "title": "QuestionnaireResponse",
        "entry": [ {
          "reference": "urn:uuid:7182e06f-91a2-418a-8bce-b5e457e0e6f6"
        } ]
      }, {
        "title": "QuestionnaireResponse",
        "entry": [ {
          "reference": "urn:uuid:a102a15c-65e1-46bd-9d82-9a69e18dfbfb"
        } ]
      }, {
        "title": "QuestionnaireResponse",
        "entry": [ {
          "reference": "urn:uuid:1489085f-5fc0-4055-8c83-aa28c9b41aff"
        } ]
      }, {
        "title": "QuestionnaireResponse",
        "entry": [ {
          "reference": "urn:uuid:13181130-deb6-4d2d-9af9-7fbb0e459636"
        } ]
      }, {
        "title": "QuestionnaireResponse",
        "entry": [ {
          "reference": "urn:uuid:ca0a8bdc-cf42-4c51-b63b-dc74949960fa"
        } ]
      }, {
        "title": "QuestionnaireResponse",
        "entry": [ {
          "reference": "urn:uuid:6c290f6b-c97e-4c52-9626-06eb2ea3b5dc"
        } ]
      }, {
        "title": "QuestionnaireResponse",
        "entry": [ {
          "reference": "urn:uuid:9a3f2f65-8a32-4a70-9c91-0bacf378a3f6"
        } ]
      }, {
        "title": "QuestionnaireResponse",
        "entry": [ {
          "reference": "urn:uuid:2dcb6bc1-e63b-48f3-9b0e-237b9d513ebf"
        } ]
      }, {
        "title": "QuestionnaireResponse",
        "entry": [ {
          "reference": "urn:uuid:c87deaa2-2342-4388-a41c-0ea393dcd1d3"
        } ]
      }, {
        "title": "QuestionnaireResponse",
        "entry": [ {
          "reference": "urn:uuid:02dd3dfb-ac56-4746-947c-319ec9007e3e"
        } ]
      }, {
        "title": "QuestionnaireResponse",
        "entry": [ {
          "reference": "urn:uuid:a716443e-693b-4575-9966-f9082e49ad16"
        } ]
      }, {
        "title": "QuestionnaireResponse",
        "entry": [ {
          "reference": "urn:uuid:3d25ff9c-325e-4e21-b094-744c3e9c67c4"
        } ]
      }, {
        "title": "QuestionnaireResponse",
        "entry": [ {
          "reference": "urn:uuid:9d03cf83-b11b-466d-a756-f499af7bf860"
        } ]
      }, {
        "title": "QuestionnaireResponse",
        "entry": [ {
          "reference": "urn:uuid:9664ec6f-676e-4125-bfa7-dac263016684"
        } ]
      }, {
        "title": "QuestionnaireResponse",
        "entry": [ {
          "reference": "urn:uuid:88a80df0-d60f-49b4-a1b1-31d5c393019b"
        } ]
      }, {
        "title": "QuestionnaireResponse",
        "entry": [ {
          "reference": "urn:uuid:7bc02e68-a3b0-44b4-8b41-91e9ca26dde4"
        } ]
      }, {
        "title": "QuestionnaireResponse",
        "entry": [ {
          "reference": "urn:uuid:b9a0efb1-0a6a-4e6f-aad4-061eecf70b13"
        } ]
      }, {
        "title": "QuestionnaireResponse",
        "entry": [ {
          "reference": "urn:uuid:103e6f25-9663-4fc4-a233-8a0aad02bbb2"
        } ]
      }, {
        "title": "QuestionnaireResponse",
        "entry": [ {
          "reference": "urn:uuid:04d93954-26f9-430e-9591-c1d52b1a193a"
        } ]
      }, {
        "title": "QuestionnaireResponse",
        "entry": [ {
          "reference": "urn:uuid:28b9fbd4-6489-42ff-972f-ecb70684dfaa"
        } ]
      }, {
        "title": "QuestionnaireResponse",
        "entry": [ {
          "reference": "urn:uuid:a90f378d-5980-4e7e-a713-a07c9b91ab66"
        } ]
      }, {
        "title": "QuestionnaireResponse",
        "entry": [ {
          "reference": "urn:uuid:fb8ea63b-fe14-4b88-8ac8-7b4cba81dd73"
        } ]
      }, {
        "title": "QuestionnaireResponse",
        "entry": [ {
          "reference": "urn:uuid:55810573-7d59-43b4-b618-6de6760557be"
        } ]
      }, {
        "title": "QuestionnaireResponse",
        "entry": [ {
          "reference": "urn:uuid:4441ad79-1c2a-4d69-9886-96c7c98426d6"
        } ]
      }, {
        "title": "QuestionnaireResponse",
        "entry": [ {
          "reference": "urn:uuid:b640d243-e303-4944-a688-a5a090248157"
        } ]
      }, {
        "title": "QuestionnaireResponse",
        "entry": [ {
          "reference": "urn:uuid:351e41f3-787e-4abc-8b9f-23e6c86eef5d"
        } ]
      }, {
        "title": "QuestionnaireResponse",
        "entry": [ {
          "reference": "urn:uuid:c290a741-4d86-476f-ad16-ff265aafa32e"
        } ]
      }, {
        "title": "QuestionnaireResponse",
        "entry": [ {
          "reference": "urn:uuid:1dc9c170-d61a-4226-83fc-06b7dd3c6ed7"
        } ]
      }, {
        "title": "QuestionnaireResponse",
        "entry": [ {
          "reference": "urn:uuid:c98e12a7-d8f9-454a-8ffd-8cc9efc0bb41"
        } ]
      }, {
        "title": "QuestionnaireResponse",
        "entry": [ {
          "reference": "urn:uuid:14ea95ab-1f19-4d74-aecf-a6d7e60e6514"
        } ]
      }, {
        "title": "QuestionnaireResponse",
        "entry": [ {
          "reference": "urn:uuid:6c516507-2537-4594-8d3e-a624756c77bf"
        } ]
      }, {
        "title": "QuestionnaireResponse",
        "entry": [ {
          "reference": "urn:uuid:b8d82a20-335d-4215-9a5a-e5f2afe9c61e"
        } ]
      }, {
        "title": "QuestionnaireResponse",
        "entry": [ {
          "reference": "urn:uuid:16019ccc-e56f-4c93-8dbf-3fe7de36c0fc"
        } ]
      }, {
        "title": "QuestionnaireResponse",
        "entry": [ {
          "reference": "urn:uuid:a1abd265-577d-4f6b-8adc-8a23ed436ec7"
        } ]
      }, {
        "title": "QuestionnaireResponse",
        "entry": [ {
          "reference": "urn:uuid:85978c79-68a0-4f11-9b81-0aa4a5e11b94"
        } ]
      }, {
        "title": "QuestionnaireResponse",
        "entry": [ {
          "reference": "urn:uuid:659e42dc-4884-4904-b476-0ce43e7aaba2"
        } ]
      }, {
        "title": "QuestionnaireResponse",
        "entry": [ {
          "reference": "urn:uuid:00c417ca-f14f-4f6f-aff1-1eeb401c2714"
        } ]
      }, {
        "title": "QuestionnaireResponse",
        "entry": [ {
          "reference": "urn:uuid:d32ff0f5-09a1-410f-9f53-4947f52d3d8c"
        } ]
      }, {
        "title": "QuestionnaireResponse",
        "entry": [ {
          "reference": "urn:uuid:caf65ecd-efe9-49ec-b197-f2cc214fb7b7"
        } ]
      }, {
        "title": "QuestionnaireResponse",
        "entry": [ {
          "reference": "urn:uuid:2afd6762-a9ba-4006-965f-c981edc855b6"
        } ]
      }, {
        "title": "QuestionnaireResponse",
        "entry": [ {
          "reference": "urn:uuid:3ec1bd5c-138f-40ec-b635-59d53a7fbcaa"
        } ]
      }, {
        "title": "QuestionnaireResponse",
        "entry": [ {
          "reference": "urn:uuid:cf3fef74-cb99-4a9d-bb60-21b640257614"
        } ]
      }, {
        "title": "QuestionnaireResponse",
        "entry": [ {
          "reference": "urn:uuid:5a765710-e882-470e-9117-4193490cb9a5"
        } ]
      }, {
        "title": "QuestionnaireResponse",
        "entry": [ {
          "reference": "urn:uuid:0380f1a3-a038-40c6-8109-3fc4d7c2688f"
        } ]
      }, {
        "title": "QuestionnaireResponse",
        "entry": [ {
          "reference": "urn:uuid:1f958af0-4614-4b7b-8d84-1af00677dd18"
        } ]
      }, {
        "title": "QuestionnaireResponse",
        "entry": [ {
          "reference": "urn:uuid:477d4591-5a55-4bb5-af7a-569e42513083"
        } ]
      }, {
        "title": "QuestionnaireResponse",
        "entry": [ {
          "reference": "urn:uuid:567ab332-0e06-49ad-93bb-a22a56f002d6"
        } ]
      }, {
        "title": "QuestionnaireResponse",
        "entry": [ {
          "reference": "urn:uuid:ceb0de27-750a-41a6-b9ad-dff304d8cf6e"
        } ]
      }, {
        "title": "QuestionnaireResponse",
        "entry": [ {
          "reference": "urn:uuid:1a4cab16-62f4-4a34-9dae-46766279317c"
        } ]
      }, {
        "title": "QuestionnaireResponse",
        "entry": [ {
          "reference": "urn:uuid:b4a6afa9-0668-4fe2-ac2e-87ba5c80e469"
        } ]
      }, {
        "title": "QuestionnaireResponse",
        "entry": [ {
          "reference": "urn:uuid:d40f598f-f3f7-41a2-8f30-50d5d3cb80ac"
        } ]
      }, {
        "title": "QuestionnaireResponse",
        "entry": [ {
          "reference": "urn:uuid:5798a99d-40f9-44ad-a0ac-8489f9165bd2"
        } ]
      }, {
        "title": "QuestionnaireResponse",
        "entry": [ {
          "reference": "urn:uuid:941ba47d-9e1c-4c7b-a286-8b5cb63e6334"
        } ]
      }, {
        "title": "QuestionnaireResponse",
        "entry": [ {
          "reference": "urn:uuid:0cd765a5-0f85-4216-a00c-56e59335bb8b"
        } ]
      }, {
        "title": "QuestionnaireResponse",
        "entry": [ {
          "reference": "urn:uuid:1643db1d-d07c-4e4f-96c2-40517a47a62b"
        } ]
      }, {
        "title": "QuestionnaireResponse",
        "entry": [ {
          "reference": "urn:uuid:d3e3a740-83ef-437e-8bb6-49b647c21b87"
        } ]
      }, {
        "title": "QuestionnaireResponse",
        "entry": [ {
          "reference": "urn:uuid:3776b2ed-5bbf-4f09-b529-8d82b6f1f602"
        } ]
      }, {
        "title": "QuestionnaireResponse",
        "entry": [ {
          "reference": "urn:uuid:fd12b351-df67-438a-ac72-ccb3d2014586"
        } ]
      }, {
        "title": "QuestionnaireResponse",
        "entry": [ {
          "reference": "urn:uuid:5ea36198-c254-47fc-bbec-52db72bf1e64"
        } ]
      }, {
        "title": "QuestionnaireResponse",
        "entry": [ {
          "reference": "urn:uuid:bf1bf80f-744a-4a5a-a091-ed85d13e4df5"
        } ]
      }, {
        "title": "QuestionnaireResponse",
        "entry": [ {
          "reference": "urn:uuid:a131886b-fd7c-424a-ac12-39e37428b4a6"
        } ]
      }, {
        "title": "QuestionnaireResponse",
        "entry": [ {
          "reference": "urn:uuid:5af58e92-3eed-4b24-9455-b33e8a48aafd"
        } ]
      }, {
        "title": "QuestionnaireResponse",
        "entry": [ {
          "reference": "urn:uuid:1bab457a-be52-4a35-b913-a7a9ce71e2f3"
        } ]
      }, {
        "title": "QuestionnaireResponse",
        "entry": [ {
          "reference": "urn:uuid:c1d2feea-0499-4e4e-aaa8-55683c13393f"
        } ]
      }, {
        "title": "QuestionnaireResponse",
        "entry": [ {
          "reference": "urn:uuid:a45938e7-6f72-42a4-822a-3430ffebaab3"
        } ]
      }, {
        "title": "QuestionnaireResponse",
        "entry": [ {
          "reference": "urn:uuid:caa330db-63c0-4780-bd60-154e6cc2a383"
        } ]
      }, {
        "title": "QuestionnaireResponse",
        "entry": [ {
          "reference": "urn:uuid:9a45df1d-0559-4f4d-91cd-ada9866f6c7b"
        } ]
      } ]
    }
  }, {
    "fullUrl": "urn:uuid:c8b6a073-0085-4df4-88bd-f0ff19dce98c",
    "resource": {
      "resourceType": "CarePlan",
      "id": "c8b6a073-0085-4df4-88bd-f0ff19dce98c",
      "status": "completed",
      "intent": "plan",
      "title": "Information And Advice Given",
      "subject": {
        "reference": "urn:uuid:50f230c6-19a6-4d89-800c-5b68f82027a7"
      },
      "context": {
        "reference": "urn:uuid:5a5072f4-ef62-4c22-b37e-7721edc9bc86"
      },
      "period": {
        "start": "2021-04-06T10:54:11+00:00",
        "end": "2021-04-06T11:33:27+00:00"
      },
      "author": [ {
        "reference": "urn:uuid:86f594b1-2b81-4ed8-851e-05fb582837b6"
      } ],
      "addresses": [ {
        "reference": "urn:uuid:affc4cef-ef2c-41e6-95e3-3ddcba32919d"
      } ]
    }
  }, {
    "fullUrl": "urn:uuid:d0991547-bd38-41da-8674-a49ff4f65df5",
    "resource": {
      "resourceType": "Consent",
      "id": "d0991547-bd38-41da-8674-a49ff4f65df5",
      "identifier": {
        "use": "usual",
        "value": "A8E3FB32-6805-4191-B071-EA540A9318CD"
      },
      "status": "active",
      "patient": {
        "reference": "urn:uuid:50f230c6-19a6-4d89-800c-5b68f82027a7"
      },
      "period": {
        "start": "2021-04-06T10:54:11+00:00",
        "end": "2021-04-06T11:33:27+00:00"
      },
      "consentingParty": [ {
        "reference": "urn:uuid:50f230c6-19a6-4d89-800c-5b68f82027a7"
      } ],
      "action": [ {
        "coding": [ {
          "system": "http://snomed.info/sct",
          "code": "425691002",
          "display": "Consent given for electronic record sharing"
        } ],
        "text": "Consent given for electronic record sharing"
      } ],
      "organization": [ {
        "reference": "urn:uuid:80f997c4-f4dc-4291-b309-6b2829c98142"
      } ],
      "policyRule": "http://hl7.org/fhir/ConsentPolicy/opt-out",
      "data": [ {
        "meaning": "related",
        "reference": {
          "reference": "urn:uuid:5a5072f4-ef62-4c22-b37e-7721edc9bc86"
        }
      } ]
    }
  }, {
    "fullUrl": "urn:uuid:affc4cef-ef2c-41e6-95e3-3ddcba32919d",
    "resource": {
      "resourceType": "Condition",
      "id": "affc4cef-ef2c-41e6-95e3-3ddcba32919d",
      "clinicalStatus": "active",
      "verificationStatus": "unknown",
      "subject": {
        "reference": "urn:uuid:50f230c6-19a6-4d89-800c-5b68f82027a7"
      },
      "context": {
        "reference": "urn:uuid:5a5072f4-ef62-4c22-b37e-7721edc9bc86"
      },
      "evidence": [ {
        "detail": [ {
          "reference": "urn:uuid:5909d693-2040-4008-b521-c3097713fce0"
        } ]
      }, {
        "detail": [ {
          "reference": "urn:uuid:012fa872-fb7e-46c6-9a4b-e79b09b62ba8"
        } ]
      }, {
        "detail": [ {
          "reference": "urn:uuid:dc85c877-635b-46ef-95b2-a2b3910f1d45"
        } ]
      }, {
        "detail": [ {
          "reference": "urn:uuid:18cd34f6-3590-455b-92dd-f90c72d14df0"
        } ]
      }, {
        "detail": [ {
          "reference": "urn:uuid:e159762f-ef73-4cb5-ad41-d577b799e609"
        } ]
      }, {
        "detail": [ {
          "reference": "urn:uuid:98703fe1-ccb1-4bc9-b2ea-8c7704efdbeb"
        } ]
      }, {
        "detail": [ {
          "reference": "urn:uuid:7182e06f-91a2-418a-8bce-b5e457e0e6f6"
        } ]
      }, {
        "detail": [ {
          "reference": "urn:uuid:a102a15c-65e1-46bd-9d82-9a69e18dfbfb"
        } ]
      }, {
        "detail": [ {
          "reference": "urn:uuid:1489085f-5fc0-4055-8c83-aa28c9b41aff"
        } ]
      }, {
        "detail": [ {
          "reference": "urn:uuid:13181130-deb6-4d2d-9af9-7fbb0e459636"
        } ]
      }, {
        "detail": [ {
          "reference": "urn:uuid:ca0a8bdc-cf42-4c51-b63b-dc74949960fa"
        } ]
      }, {
        "detail": [ {
          "reference": "urn:uuid:6c290f6b-c97e-4c52-9626-06eb2ea3b5dc"
        } ]
      }, {
        "detail": [ {
          "reference": "urn:uuid:9a3f2f65-8a32-4a70-9c91-0bacf378a3f6"
        } ]
      }, {
        "detail": [ {
          "reference": "urn:uuid:2dcb6bc1-e63b-48f3-9b0e-237b9d513ebf"
        } ]
      }, {
        "detail": [ {
          "reference": "urn:uuid:c87deaa2-2342-4388-a41c-0ea393dcd1d3"
        } ]
      }, {
        "detail": [ {
          "reference": "urn:uuid:02dd3dfb-ac56-4746-947c-319ec9007e3e"
        } ]
      }, {
        "detail": [ {
          "reference": "urn:uuid:a716443e-693b-4575-9966-f9082e49ad16"
        } ]
      }, {
        "detail": [ {
          "reference": "urn:uuid:3d25ff9c-325e-4e21-b094-744c3e9c67c4"
        } ]
      }, {
        "detail": [ {
          "reference": "urn:uuid:9d03cf83-b11b-466d-a756-f499af7bf860"
        } ]
      }, {
        "detail": [ {
          "reference": "urn:uuid:9664ec6f-676e-4125-bfa7-dac263016684"
        } ]
      }, {
        "detail": [ {
          "reference": "urn:uuid:88a80df0-d60f-49b4-a1b1-31d5c393019b"
        } ]
      }, {
        "detail": [ {
          "reference": "urn:uuid:7bc02e68-a3b0-44b4-8b41-91e9ca26dde4"
        } ]
      }, {
        "detail": [ {
          "reference": "urn:uuid:b9a0efb1-0a6a-4e6f-aad4-061eecf70b13"
        } ]
      }, {
        "detail": [ {
          "reference": "urn:uuid:103e6f25-9663-4fc4-a233-8a0aad02bbb2"
        } ]
      }, {
        "detail": [ {
          "reference": "urn:uuid:04d93954-26f9-430e-9591-c1d52b1a193a"
        } ]
      }, {
        "detail": [ {
          "reference": "urn:uuid:28b9fbd4-6489-42ff-972f-ecb70684dfaa"
        } ]
      }, {
        "detail": [ {
          "reference": "urn:uuid:a90f378d-5980-4e7e-a713-a07c9b91ab66"
        } ]
      }, {
        "detail": [ {
          "reference": "urn:uuid:fb8ea63b-fe14-4b88-8ac8-7b4cba81dd73"
        } ]
      }, {
        "detail": [ {
          "reference": "urn:uuid:55810573-7d59-43b4-b618-6de6760557be"
        } ]
      }, {
        "detail": [ {
          "reference": "urn:uuid:4441ad79-1c2a-4d69-9886-96c7c98426d6"
        } ]
      }, {
        "detail": [ {
          "reference": "urn:uuid:b640d243-e303-4944-a688-a5a090248157"
        } ]
      }, {
        "detail": [ {
          "reference": "urn:uuid:351e41f3-787e-4abc-8b9f-23e6c86eef5d"
        } ]
      }, {
        "detail": [ {
          "reference": "urn:uuid:c290a741-4d86-476f-ad16-ff265aafa32e"
        } ]
      }, {
        "detail": [ {
          "reference": "urn:uuid:1dc9c170-d61a-4226-83fc-06b7dd3c6ed7"
        } ]
      }, {
        "detail": [ {
          "reference": "urn:uuid:c98e12a7-d8f9-454a-8ffd-8cc9efc0bb41"
        } ]
      }, {
        "detail": [ {
          "reference": "urn:uuid:14ea95ab-1f19-4d74-aecf-a6d7e60e6514"
        } ]
      }, {
        "detail": [ {
          "reference": "urn:uuid:6c516507-2537-4594-8d3e-a624756c77bf"
        } ]
      }, {
        "detail": [ {
          "reference": "urn:uuid:b8d82a20-335d-4215-9a5a-e5f2afe9c61e"
        } ]
      }, {
        "detail": [ {
          "reference": "urn:uuid:16019ccc-e56f-4c93-8dbf-3fe7de36c0fc"
        } ]
      }, {
        "detail": [ {
          "reference": "urn:uuid:a1abd265-577d-4f6b-8adc-8a23ed436ec7"
        } ]
      }, {
        "detail": [ {
          "reference": "urn:uuid:85978c79-68a0-4f11-9b81-0aa4a5e11b94"
        } ]
      }, {
        "detail": [ {
          "reference": "urn:uuid:659e42dc-4884-4904-b476-0ce43e7aaba2"
        } ]
      }, {
        "detail": [ {
          "reference": "urn:uuid:00c417ca-f14f-4f6f-aff1-1eeb401c2714"
        } ]
      }, {
        "detail": [ {
          "reference": "urn:uuid:d32ff0f5-09a1-410f-9f53-4947f52d3d8c"
        } ]
      }, {
        "detail": [ {
          "reference": "urn:uuid:caf65ecd-efe9-49ec-b197-f2cc214fb7b7"
        } ]
      }, {
        "detail": [ {
          "reference": "urn:uuid:2afd6762-a9ba-4006-965f-c981edc855b6"
        } ]
      }, {
        "detail": [ {
          "reference": "urn:uuid:3ec1bd5c-138f-40ec-b635-59d53a7fbcaa"
        } ]
      }, {
        "detail": [ {
          "reference": "urn:uuid:cf3fef74-cb99-4a9d-bb60-21b640257614"
        } ]
      }, {
        "detail": [ {
          "reference": "urn:uuid:5a765710-e882-470e-9117-4193490cb9a5"
        } ]
      }, {
        "detail": [ {
          "reference": "urn:uuid:0380f1a3-a038-40c6-8109-3fc4d7c2688f"
        } ]
      }, {
        "detail": [ {
          "reference": "urn:uuid:1f958af0-4614-4b7b-8d84-1af00677dd18"
        } ]
      }, {
        "detail": [ {
          "reference": "urn:uuid:477d4591-5a55-4bb5-af7a-569e42513083"
        } ]
      }, {
        "detail": [ {
          "reference": "urn:uuid:567ab332-0e06-49ad-93bb-a22a56f002d6"
        } ]
      }, {
        "detail": [ {
          "reference": "urn:uuid:ceb0de27-750a-41a6-b9ad-dff304d8cf6e"
        } ]
      }, {
        "detail": [ {
          "reference": "urn:uuid:1a4cab16-62f4-4a34-9dae-46766279317c"
        } ]
      }, {
        "detail": [ {
          "reference": "urn:uuid:b4a6afa9-0668-4fe2-ac2e-87ba5c80e469"
        } ]
      }, {
        "detail": [ {
          "reference": "urn:uuid:d40f598f-f3f7-41a2-8f30-50d5d3cb80ac"
        } ]
      }, {
        "detail": [ {
          "reference": "urn:uuid:5798a99d-40f9-44ad-a0ac-8489f9165bd2"
        } ]
      }, {
        "detail": [ {
          "reference": "urn:uuid:941ba47d-9e1c-4c7b-a286-8b5cb63e6334"
        } ]
      }, {
        "detail": [ {
          "reference": "urn:uuid:0cd765a5-0f85-4216-a00c-56e59335bb8b"
        } ]
      }, {
        "detail": [ {
          "reference": "urn:uuid:1643db1d-d07c-4e4f-96c2-40517a47a62b"
        } ]
      }, {
        "detail": [ {
          "reference": "urn:uuid:d3e3a740-83ef-437e-8bb6-49b647c21b87"
        } ]
      }, {
        "detail": [ {
          "reference": "urn:uuid:3776b2ed-5bbf-4f09-b529-8d82b6f1f602"
        } ]
      }, {
        "detail": [ {
          "reference": "urn:uuid:fd12b351-df67-438a-ac72-ccb3d2014586"
        } ]
      }, {
        "detail": [ {
          "reference": "urn:uuid:5ea36198-c254-47fc-bbec-52db72bf1e64"
        } ]
      }, {
        "detail": [ {
          "reference": "urn:uuid:bf1bf80f-744a-4a5a-a091-ed85d13e4df5"
        } ]
      }, {
        "detail": [ {
          "reference": "urn:uuid:a131886b-fd7c-424a-ac12-39e37428b4a6"
        } ]
      }, {
        "detail": [ {
          "reference": "urn:uuid:5af58e92-3eed-4b24-9455-b33e8a48aafd"
        } ]
      }, {
        "detail": [ {
          "reference": "urn:uuid:1bab457a-be52-4a35-b913-a7a9ce71e2f3"
        } ]
      }, {
        "detail": [ {
          "reference": "urn:uuid:c1d2feea-0499-4e4e-aaa8-55683c13393f"
        } ]
      }, {
        "detail": [ {
          "reference": "urn:uuid:a45938e7-6f72-42a4-822a-3430ffebaab3"
        } ]
      }, {
        "detail": [ {
          "reference": "urn:uuid:caa330db-63c0-4780-bd60-154e6cc2a383"
        } ]
      }, {
        "detail": [ {
          "reference": "urn:uuid:9a45df1d-0559-4f4d-91cd-ada9866f6c7b"
        } ]
      } ]
    }
  }, {
    "fullUrl": "urn:uuid:5909d693-2040-4008-b521-c3097713fce0",
    "resource": {
      "resourceType": "QuestionnaireResponse",
      "id": "5909d693-2040-4008-b521-c3097713fce0",
      "identifier": {
        "value": "59132"
      },
      "questionnaire": {
        "reference": "urn:uuid:aa9e92e5-6858-4f3c-a808-2082cb4f207f"
      },
      "status": "completed",
      "subject": {
        "reference": "urn:uuid:50f230c6-19a6-4d89-800c-5b68f82027a7"
      },
      "context": {
        "reference": "urn:uuid:5a5072f4-ef62-4c22-b37e-7721edc9bc86"
      },
      "authored": "2021-04-06T11:33:34+00:00",
      "item": [ {
        "linkId": "Tx220074",
        "text": "What is the reason for the contact?",
        "answer": [ {
          "valueString": "an injury or other health problem"
        } ]
      } ]
    }
  }, {
    "fullUrl": "urn:uuid:aa9e92e5-6858-4f3c-a808-2082cb4f207f",
    "resource": {
      "resourceType": "Questionnaire",
      "id": "aa9e92e5-6858-4f3c-a808-2082cb4f207f",
      "identifier": [ {
        "value": "59132"
      } ],
      "version": "2021-04-06T11:33:34.963Z",
      "status": "active",
      "experimental": false,
      "date": "2021-04-06T11:33:34+00:00",
      "publisher": "User ID: 'MCDONALDD' User name: 'Denzle McDonald' User skill set: 'T3'",
      "lastReviewDate": "2021-04-06",
      "subjectType": [ "Patient" ],
      "item": [ {
        "linkId": "59132",
        "prefix": "5",
        "text": "What is the reason for the contact?",
        "type": "choice",
        "required": true,
        "repeats": false,
        "option": [ {
          "valueString": "an injury or other health problem, Selected: true"
        }, {
          "valueString": "labour or childbirth, Selected: false"
        }, {
          "valueString": "a need to access another healthcare service, Selected: false"
        }, {
          "valueString": "a healthcare professional requesting contact with another clinician, Selected: false"
        }, {
          "valueString": "a report of results or tests, Selected: false"
        }, {
          "valueString": "a possible failure of contraception, Selected: false"
        }, {
          "valueString": "more, Selected: false"
        } ]
      } ]
    }
  }, {
    "fullUrl": "urn:uuid:012fa872-fb7e-46c6-9a4b-e79b09b62ba8",
    "resource": {
      "resourceType": "QuestionnaireResponse",
      "id": "012fa872-fb7e-46c6-9a4b-e79b09b62ba8",
      "identifier": {
        "value": "59132"
      },
      "questionnaire": {
        "reference": "urn:uuid:7e2ca7d3-6288-4506-b4a6-0b930bfacda0"
      },
      "status": "completed",
      "subject": {
        "reference": "urn:uuid:50f230c6-19a6-4d89-800c-5b68f82027a7"
      },
      "context": {
        "reference": "urn:uuid:5a5072f4-ef62-4c22-b37e-7721edc9bc86"
      },
      "authored": "2021-04-06T11:33:34+00:00",
      "item": [ {
        "linkId": "Tx221807",
        "text": "STRING:to'Immediatethreatstolife(SPA/OOHversion)'-'Majorbloodloss'stem",
        "answer": [ {
          "valueString": "\"present\""
        } ]
      } ]
    }
  }, {
    "fullUrl": "urn:uuid:7e2ca7d3-6288-4506-b4a6-0b930bfacda0",
    "resource": {
      "resourceType": "Questionnaire",
      "id": "7e2ca7d3-6288-4506-b4a6-0b930bfacda0",
      "identifier": [ {
        "value": "59132"
      } ],
      "version": "2021-04-06T11:33:34.963Z",
      "status": "active",
      "experimental": false,
      "date": "2021-04-06T11:33:34+00:00",
      "publisher": "User ID: 'MCDONALDD' User name: 'Denzle McDonald' User skill set: 'T3'",
      "lastReviewDate": "2021-04-06",
      "subjectType": [ "Patient" ],
      "item": [ {
        "linkId": "59132",
        "prefix": "400",
        "text": "STRING:to'Immediatethreatstolife(SPA/OOHversion)'-'Majorbloodloss'stem",
        "type": "choice",
        "required": true,
        "repeats": false,
        "option": [ {
          "valueString": "\"present\", Selected: true"
        } ]
      } ]
    }
  }, {
    "fullUrl": "urn:uuid:dc85c877-635b-46ef-95b2-a2b3910f1d45",
    "resource": {
      "resourceType": "QuestionnaireResponse",
      "id": "dc85c877-635b-46ef-95b2-a2b3910f1d45",
      "identifier": {
        "value": "59132"
      },
      "questionnaire": {
        "reference": "urn:uuid:b5b64f18-85d5-48b9-8f5e-838beaf8f78a"
      },
      "status": "completed",
      "subject": {
        "reference": "urn:uuid:50f230c6-19a6-4d89-800c-5b68f82027a7"
      },
      "context": {
        "reference": "urn:uuid:5a5072f4-ef62-4c22-b37e-7721edc9bc86"
      },
      "authored": "2021-04-06T11:33:34+00:00"
    }
  }, {
    "fullUrl": "urn:uuid:b5b64f18-85d5-48b9-8f5e-838beaf8f78a",
    "resource": {
      "resourceType": "Questionnaire",
      "id": "b5b64f18-85d5-48b9-8f5e-838beaf8f78a",
      "identifier": [ {
        "value": "59132"
      } ],
      "version": "2021-04-06T11:33:34.963Z",
      "status": "active",
      "experimental": false,
      "date": "2021-04-06T11:33:34+00:00",
      "publisher": "User ID: 'MCDONALDD' User name: 'Denzle McDonald' User skill set: 'T3'",
      "lastReviewDate": "2021-04-06",
      "subjectType": [ "Patient" ]
    }
  }, {
    "fullUrl": "urn:uuid:18cd34f6-3590-455b-92dd-f90c72d14df0",
    "resource": {
      "resourceType": "QuestionnaireResponse",
      "id": "18cd34f6-3590-455b-92dd-f90c72d14df0",
      "identifier": {
        "value": "59132"
      },
      "questionnaire": {
        "reference": "urn:uuid:be015510-4e32-4594-beb4-8c1b1a9e3073"
      },
      "status": "completed",
      "subject": {
        "reference": "urn:uuid:50f230c6-19a6-4d89-800c-5b68f82027a7"
      },
      "context": {
        "reference": "urn:uuid:5a5072f4-ef62-4c22-b37e-7721edc9bc86"
      },
      "authored": "2021-04-06T11:33:34+00:00",
      "item": [ {
        "linkId": "Tx221799",
        "text": "STRING:injury,illnessorlabourestablishedinEntryFlow",
        "answer": [ {
          "valueString": "\"present\""
        } ]
      } ]
    }
  }, {
    "fullUrl": "urn:uuid:be015510-4e32-4594-beb4-8c1b1a9e3073",
    "resource": {
      "resourceType": "Questionnaire",
      "id": "be015510-4e32-4594-beb4-8c1b1a9e3073",
      "identifier": [ {
        "value": "59132"
      } ],
      "version": "2021-04-06T11:33:34.963Z",
      "status": "active",
      "experimental": false,
      "date": "2021-04-06T11:33:34+00:00",
      "publisher": "User ID: 'MCDONALDD' User name: 'Denzle McDonald' User skill set: 'T3'",
      "lastReviewDate": "2021-04-06",
      "subjectType": [ "Patient" ],
      "item": [ {
        "linkId": "59132",
        "prefix": "0",
        "text": "STRING:injury,illnessorlabourestablishedinEntryFlow",
        "type": "choice",
        "required": true,
        "repeats": false,
        "option": [ {
          "valueString": "\"present\", Selected: true"
        } ]
      } ]
    }
  }, {
    "fullUrl": "urn:uuid:e159762f-ef73-4cb5-ad41-d577b799e609",
    "resource": {
      "resourceType": "QuestionnaireResponse",
      "id": "e159762f-ef73-4cb5-ad41-d577b799e609",
      "identifier": {
        "value": "59132"
      },
      "questionnaire": {
        "reference": "urn:uuid:113194cd-34df-4892-adea-8edf297ea67c"
      },
      "status": "completed",
      "subject": {
        "reference": "urn:uuid:50f230c6-19a6-4d89-800c-5b68f82027a7"
      },
      "context": {
        "reference": "urn:uuid:5a5072f4-ef62-4c22-b37e-7721edc9bc86"
      },
      "authored": "2021-04-06T11:33:34+00:00",
      "item": [ {
        "linkId": "Tx221421",
        "text": "Have you been bleeding RED BLOOD very heavily IN THE LAST 30 MINUTES?",
        "answer": [ {
          "valueString": "no"
        } ]
      } ]
    }
  }, {
    "fullUrl": "urn:uuid:113194cd-34df-4892-adea-8edf297ea67c",
    "resource": {
      "resourceType": "Questionnaire",
      "id": "113194cd-34df-4892-adea-8edf297ea67c",
      "identifier": [ {
        "value": "59132"
      } ],
      "version": "2021-04-06T11:33:34.963Z",
      "status": "active",
      "experimental": false,
      "date": "2021-04-06T11:33:34+00:00",
      "publisher": "User ID: 'MCDONALDD' User name: 'Denzle McDonald' User skill set: 'T3'",
      "lastReviewDate": "2021-04-06",
      "subjectType": [ "Patient" ],
      "item": [ {
        "linkId": "59132",
        "prefix": "200",
        "text": "Have you been bleeding RED BLOOD very heavily IN THE LAST 30 MINUTES?",
        "type": "choice",
        "required": true,
        "repeats": false,
        "option": [ {
          "valueString": "yes, Selected: false"
        }, {
          "valueString": "not sure, Selected: false"
        }, {
          "valueString": "no, Selected: true"
        } ]
      } ]
    }
  }, {
    "fullUrl": "urn:uuid:98703fe1-ccb1-4bc9-b2ea-8c7704efdbeb",
    "resource": {
      "resourceType": "QuestionnaireResponse",
      "id": "98703fe1-ccb1-4bc9-b2ea-8c7704efdbeb",
      "identifier": {
        "value": "59132"
      },
      "questionnaire": {
        "reference": "urn:uuid:9b123f16-e32b-4a65-ad07-8e032e93866f"
      },
      "status": "completed",
      "subject": {
        "reference": "urn:uuid:50f230c6-19a6-4d89-800c-5b68f82027a7"
      },
      "context": {
        "reference": "urn:uuid:5a5072f4-ef62-4c22-b37e-7721edc9bc86"
      },
      "authored": "2021-04-06T11:33:34+00:00",
      "item": [ {
        "linkId": "Tx221343",
        "text": "SocialConcernsExcluded",
        "answer": [ {
          "valueString": "*"
        } ]
      } ]
    }
  }, {
    "fullUrl": "urn:uuid:9b123f16-e32b-4a65-ad07-8e032e93866f",
    "resource": {
      "resourceType": "Questionnaire",
      "id": "9b123f16-e32b-4a65-ad07-8e032e93866f",
      "identifier": [ {
        "value": "59132"
      } ],
      "version": "2021-04-06T11:33:34.963Z",
      "status": "active",
      "experimental": false,
      "date": "2021-04-06T11:33:34+00:00",
      "publisher": "User ID: 'MCDONALDD' User name: 'Denzle McDonald' User skill set: 'T3'",
      "lastReviewDate": "2021-04-06",
      "subjectType": [ "Patient" ],
      "item": [ {
        "linkId": "59132",
        "prefix": "2600",
        "text": "SocialConcernsExcluded",
        "type": "choice",
        "required": true,
        "repeats": false,
        "option": [ {
          "valueString": "==\"present\", Selected: false"
        }, {
          "valueString": "*, Selected: true"
        } ]
      } ]
    }
  }, {
    "fullUrl": "urn:uuid:7182e06f-91a2-418a-8bce-b5e457e0e6f6",
    "resource": {
      "resourceType": "QuestionnaireResponse",
      "id": "7182e06f-91a2-418a-8bce-b5e457e0e6f6",
      "identifier": {
        "value": "59132"
      },
      "questionnaire": {
        "reference": "urn:uuid:7069acca-8176-4ce9-adc4-b9c4a053b23d"
      },
      "status": "completed",
      "subject": {
        "reference": "urn:uuid:50f230c6-19a6-4d89-800c-5b68f82027a7"
      },
      "context": {
        "reference": "urn:uuid:5a5072f4-ef62-4c22-b37e-7721edc9bc86"
      },
      "authored": "2021-04-06T11:33:34+00:00",
      "item": [ {
        "linkId": "Tx130011",
        "text": "What is the main problem?",
        "answer": [ {
          "valueString": "illness or other health problem (specify)"
        } ]
      } ]
    }
  }, {
    "fullUrl": "urn:uuid:7069acca-8176-4ce9-adc4-b9c4a053b23d",
    "resource": {
      "resourceType": "Questionnaire",
      "id": "7069acca-8176-4ce9-adc4-b9c4a053b23d",
      "identifier": [ {
        "value": "59132"
      } ],
      "version": "2021-04-06T11:33:34.963Z",
      "status": "active",
      "experimental": false,
      "date": "2021-04-06T11:33:34+00:00",
      "publisher": "User ID: 'MCDONALDD' User name: 'Denzle McDonald' User skill set: 'T3'",
      "lastReviewDate": "2021-04-06",
      "subjectType": [ "Patient" ],
      "item": [ {
        "linkId": "59132",
        "prefix": "2500",
        "text": "What is the main problem?",
        "type": "choice",
        "required": true,
        "repeats": false,
        "option": [ {
          "valueString": "the individual has been told to follow a particular course of action (specify), Selected: false"
        }, {
          "valueString": "the individual is an identified frequent caller, Selected: false"
        }, {
          "valueString": "injury (specify), Selected: false"
        }, {
          "valueString": "illness or other health problem (specify), Selected: true"
        }, {
          "valueString": "child protection/vulnerable adult concern, Selected: false"
        }, {
          "valueString": "social or domestic emergency, Selected: false"
        }, {
          "valueString": "the environment potentially poses an immediate threat to life (specify), Selected: false"
        } ]
      } ]
    }
  }, {
    "fullUrl": "urn:uuid:a102a15c-65e1-46bd-9d82-9a69e18dfbfb",
    "resource": {
      "resourceType": "QuestionnaireResponse",
      "id": "a102a15c-65e1-46bd-9d82-9a69e18dfbfb",
      "identifier": {
        "value": "59132"
      },
      "questionnaire": {
        "reference": "urn:uuid:c038d41a-c0e0-4310-8d0c-028809a967de"
      },
      "status": "completed",
      "subject": {
        "reference": "urn:uuid:50f230c6-19a6-4d89-800c-5b68f82027a7"
      },
      "context": {
        "reference": "urn:uuid:5a5072f4-ef62-4c22-b37e-7721edc9bc86"
      },
      "authored": "2021-04-06T11:33:34+00:00"
    }
  }, {
    "fullUrl": "urn:uuid:c038d41a-c0e0-4310-8d0c-028809a967de",
    "resource": {
      "resourceType": "Questionnaire",
      "id": "c038d41a-c0e0-4310-8d0c-028809a967de",
      "identifier": [ {
        "value": "59132"
      } ],
      "version": "2021-04-06T11:33:34.963Z",
      "status": "active",
      "experimental": false,
      "date": "2021-04-06T11:33:34+00:00",
      "publisher": "User ID: 'MCDONALDD' User name: 'Denzle McDonald' User skill set: 'T3'",
      "lastReviewDate": "2021-04-06",
      "subjectType": [ "Patient" ]
    }
  }, {
    "fullUrl": "urn:uuid:1489085f-5fc0-4055-8c83-aa28c9b41aff",
    "resource": {
      "resourceType": "QuestionnaireResponse",
      "id": "1489085f-5fc0-4055-8c83-aa28c9b41aff",
      "identifier": {
        "value": "59132"
      },
      "questionnaire": {
        "reference": "urn:uuid:6138cd05-45c2-4bc7-acff-100a9d35d20c"
      },
      "status": "completed",
      "subject": {
        "reference": "urn:uuid:50f230c6-19a6-4d89-800c-5b68f82027a7"
      },
      "context": {
        "reference": "urn:uuid:5a5072f4-ef62-4c22-b37e-7721edc9bc86"
      },
      "authored": "2021-04-06T11:33:34+00:00",
      "item": [ {
        "linkId": "Tx61025",
        "text": "Are you so breathless that speaking more than a few words is impossible?",
        "answer": [ {
          "valueString": "no"
        } ]
      } ]
    }
  }, {
    "fullUrl": "urn:uuid:6138cd05-45c2-4bc7-acff-100a9d35d20c",
    "resource": {
      "resourceType": "Questionnaire",
      "id": "6138cd05-45c2-4bc7-acff-100a9d35d20c",
      "identifier": [ {
        "value": "59132"
      } ],
      "version": "2021-04-06T11:33:34.963Z",
      "status": "active",
      "experimental": false,
      "date": "2021-04-06T11:33:34+00:00",
      "publisher": "User ID: 'MCDONALDD' User name: 'Denzle McDonald' User skill set: 'T3'",
      "lastReviewDate": "2021-04-06",
      "subjectType": [ "Patient" ],
      "item": [ {
        "linkId": "59132",
        "prefix": "0",
        "text": "Are you so breathless that speaking more than a few words is impossible?",
        "type": "choice",
        "required": true,
        "repeats": false,
        "option": [ {
          "valueString": "yes, Selected: false"
        }, {
          "valueString": "not sure, Selected: false"
        }, {
          "valueString": "no, Selected: true"
        } ]
      } ]
    }
  }, {
    "fullUrl": "urn:uuid:13181130-deb6-4d2d-9af9-7fbb0e459636",
    "resource": {
      "resourceType": "QuestionnaireResponse",
      "id": "13181130-deb6-4d2d-9af9-7fbb0e459636",
      "identifier": {
        "value": "59132"
      },
      "questionnaire": {
        "reference": "urn:uuid:dc08a5d5-0101-403a-b6d8-61f36199e53d"
      },
      "status": "completed",
      "subject": {
        "reference": "urn:uuid:50f230c6-19a6-4d89-800c-5b68f82027a7"
      },
      "context": {
        "reference": "urn:uuid:5a5072f4-ef62-4c22-b37e-7721edc9bc86"
      },
      "authored": "2021-04-06T11:33:34+00:00",
      "item": [ {
        "linkId": "Tx220845",
        "text": "SYSTEM_FLUPANDEMIC",
        "answer": [ {
          "valueString": "*"
        } ]
      } ]
    }
  }, {
    "fullUrl": "urn:uuid:dc08a5d5-0101-403a-b6d8-61f36199e53d",
    "resource": {
      "resourceType": "Questionnaire",
      "id": "dc08a5d5-0101-403a-b6d8-61f36199e53d",
      "identifier": [ {
        "value": "59132"
      } ],
      "version": "2021-04-06T11:33:34.963Z",
      "status": "active",
      "experimental": false,
      "date": "2021-04-06T11:33:34+00:00",
      "publisher": "User ID: 'MCDONALDD' User name: 'Denzle McDonald' User skill set: 'T3'",
      "lastReviewDate": "2021-04-06",
      "subjectType": [ "Patient" ],
      "item": [ {
        "linkId": "59132",
        "prefix": "100",
        "text": "SYSTEM_FLUPANDEMIC",
        "type": "choice",
        "required": true,
        "repeats": false,
        "option": [ {
          "valueString": "==\"pandemic\", Selected: false"
        }, {
          "valueString": "*, Selected: true"
        } ]
      } ]
    }
  }, {
    "fullUrl": "urn:uuid:ca0a8bdc-cf42-4c51-b63b-dc74949960fa",
    "resource": {
      "resourceType": "QuestionnaireResponse",
      "id": "ca0a8bdc-cf42-4c51-b63b-dc74949960fa",
      "identifier": {
        "value": "59132"
      },
      "questionnaire": {
        "reference": "urn:uuid:aaa5d473-6da2-4411-8fdc-6b889d226617"
      },
      "status": "completed",
      "subject": {
        "reference": "urn:uuid:50f230c6-19a6-4d89-800c-5b68f82027a7"
      },
      "context": {
        "reference": "urn:uuid:5a5072f4-ef62-4c22-b37e-7721edc9bc86"
      },
      "authored": "2021-04-06T11:33:34+00:00",
      "item": [ {
        "linkId": "Tx220044",
        "text": "WHAT IS SAID TO BE THE MAIN REASON FOR THIS CONTACT?",
        "answer": [ {
          "valueString": "more"
        } ]
      } ]
    }
  }, {
    "fullUrl": "urn:uuid:aaa5d473-6da2-4411-8fdc-6b889d226617",
    "resource": {
      "resourceType": "Questionnaire",
      "id": "aaa5d473-6da2-4411-8fdc-6b889d226617",
      "identifier": [ {
        "value": "59132"
      } ],
      "version": "2021-04-06T11:33:34.963Z",
      "status": "active",
      "experimental": false,
      "date": "2021-04-06T11:33:34+00:00",
      "publisher": "User ID: 'MCDONALDD' User name: 'Denzle McDonald' User skill set: 'T3'",
      "lastReviewDate": "2021-04-06",
      "subjectType": [ "Patient" ],
      "item": [ {
        "linkId": "59132",
        "prefix": "5000",
        "text": "WHAT IS SAID TO BE THE MAIN REASON FOR THIS CONTACT?",
        "type": "choice",
        "required": true,
        "repeats": false,
        "option": [ {
          "valueString": "a probable allergic reaction now, Selected: false"
        }, {
          "valueString": "chest or upper back pain, Selected: false"
        }, {
          "valueString": "a probable fit or seizure within the last 12 hours, Selected: false"
        }, {
          "valueString": "a suicide attempt, Selected: false"
        }, {
          "valueString": "new confusion now, Selected: false"
        }, {
          "valueString": "a probable stroke or mini stroke, Selected: false"
        }, {
          "valueString": "more, Selected: true"
        } ]
      } ]
    }
  }, {
    "fullUrl": "urn:uuid:6c290f6b-c97e-4c52-9626-06eb2ea3b5dc",
    "resource": {
      "resourceType": "QuestionnaireResponse",
      "id": "6c290f6b-c97e-4c52-9626-06eb2ea3b5dc",
      "identifier": {
        "value": "59132"
      },
      "questionnaire": {
        "reference": "urn:uuid:8bdf6b23-5e05-4fa3-b046-8583c5ecbb4c"
      },
      "status": "completed",
      "subject": {
        "reference": "urn:uuid:50f230c6-19a6-4d89-800c-5b68f82027a7"
      },
      "context": {
        "reference": "urn:uuid:5a5072f4-ef62-4c22-b37e-7721edc9bc86"
      },
      "authored": "2021-04-06T11:33:34+00:00",
      "item": [ {
        "linkId": "Tx223029",
        "text": "WHAT IS SAID TO BE THE MAIN REASON FOR THIS CONTACT?",
        "answer": [ {
          "valueString": "none of the above"
        } ]
      } ]
    }
  }, {
    "fullUrl": "urn:uuid:8bdf6b23-5e05-4fa3-b046-8583c5ecbb4c",
    "resource": {
      "resourceType": "Questionnaire",
      "id": "8bdf6b23-5e05-4fa3-b046-8583c5ecbb4c",
      "identifier": [ {
        "value": "59132"
      } ],
      "version": "2021-04-06T11:33:34.963Z",
      "status": "active",
      "experimental": false,
      "date": "2021-04-06T11:33:34+00:00",
      "publisher": "User ID: 'MCDONALDD' User name: 'Denzle McDonald' User skill set: 'T3'",
      "lastReviewDate": "2021-04-06",
      "subjectType": [ "Patient" ],
      "item": [ {
        "linkId": "59132",
        "prefix": "4100",
        "text": "WHAT IS SAID TO BE THE MAIN REASON FOR THIS CONTACT?",
        "type": "choice",
        "required": true,
        "repeats": false,
        "option": [ {
          "valueString": "a diabetic hypo (low blood sugar) or a diabetic hyper (high blood sugar), Selected: false"
        }, {
          "valueString": "recovery from an ICD (implanted cardioverter defibrillator) shock, Selected: false"
        }, {
          "valueString": "none of the above, Selected: true"
        } ]
      } ]
    }
  }, {
    "fullUrl": "urn:uuid:9a3f2f65-8a32-4a70-9c91-0bacf378a3f6",
    "resource": {
      "resourceType": "QuestionnaireResponse",
      "id": "9a3f2f65-8a32-4a70-9c91-0bacf378a3f6",
      "identifier": {
        "value": "59132"
      },
      "questionnaire": {
        "reference": "urn:uuid:b4f2bbf8-d795-4256-bdb8-4e170f4e3b81"
      },
      "status": "completed",
      "subject": {
        "reference": "urn:uuid:50f230c6-19a6-4d89-800c-5b68f82027a7"
      },
      "context": {
        "reference": "urn:uuid:5a5072f4-ef62-4c22-b37e-7721edc9bc86"
      },
      "authored": "2021-04-06T11:33:34+00:00",
      "item": [ {
        "linkId": "Tx223142",
        "text": "Does the skin on the chest, back or abdomen feel a normal temperature?",
        "answer": [ {
          "valueString": "yes - normal, warm or hot"
        } ]
      } ]
    }
  }, {
    "fullUrl": "urn:uuid:b4f2bbf8-d795-4256-bdb8-4e170f4e3b81",
    "resource": {
      "resourceType": "Questionnaire",
      "id": "b4f2bbf8-d795-4256-bdb8-4e170f4e3b81",
      "identifier": [ {
        "value": "59132"
      } ],
      "version": "2021-04-06T11:33:34.963Z",
      "status": "active",
      "experimental": false,
      "date": "2021-04-06T11:33:34+00:00",
      "publisher": "User ID: 'MCDONALDD' User name: 'Denzle McDonald' User skill set: 'T3'",
      "lastReviewDate": "2021-04-06",
      "subjectType": [ "Patient" ],
      "item": [ {
        "linkId": "59132",
        "prefix": "4400",
        "text": "Does the skin on the chest, back or abdomen feel a normal temperature?",
        "type": "choice",
        "required": true,
        "repeats": false,
        "option": [ {
          "valueString": "yes - normal, warm or hot, Selected: true"
        }, {
          "valueString": "not sure, Selected: false"
        }, {
          "valueString": "no - cool OR cold, Selected: false"
        }, {
          "valueString": "not safe to touch, Selected: false"
        } ]
      } ]
    }
  }, {
    "fullUrl": "urn:uuid:2dcb6bc1-e63b-48f3-9b0e-237b9d513ebf",
    "resource": {
      "resourceType": "QuestionnaireResponse",
      "id": "2dcb6bc1-e63b-48f3-9b0e-237b9d513ebf",
      "identifier": {
        "value": "59132"
      },
      "questionnaire": {
        "reference": "urn:uuid:aed587a5-3c3a-43d5-846e-7ef4d31793fd"
      },
      "status": "completed",
      "subject": {
        "reference": "urn:uuid:50f230c6-19a6-4d89-800c-5b68f82027a7"
      },
      "context": {
        "reference": "urn:uuid:5a5072f4-ef62-4c22-b37e-7721edc9bc86"
      },
      "authored": "2021-04-06T11:33:34+00:00",
      "item": [ {
        "linkId": "Tx221724",
        "text": "STRING:ShockAsked",
        "answer": [ {
          "valueString": "\"present\""
        } ]
      } ]
    }
  }, {
    "fullUrl": "urn:uuid:aed587a5-3c3a-43d5-846e-7ef4d31793fd",
    "resource": {
      "resourceType": "Questionnaire",
      "id": "aed587a5-3c3a-43d5-846e-7ef4d31793fd",
      "identifier": [ {
        "value": "59132"
      } ],
      "version": "2021-04-06T11:33:34.963Z",
      "status": "active",
      "experimental": false,
      "date": "2021-04-06T11:33:34+00:00",
      "publisher": "User ID: 'MCDONALDD' User name: 'Denzle McDonald' User skill set: 'T3'",
      "lastReviewDate": "2021-04-06",
      "subjectType": [ "Patient" ],
      "item": [ {
        "linkId": "59132",
        "prefix": "3300",
        "text": "STRING:ShockAsked",
        "type": "choice",
        "required": true,
        "repeats": false,
        "option": [ {
          "valueString": "\"present\", Selected: true"
        } ]
      } ]
    }
  }, {
    "fullUrl": "urn:uuid:c87deaa2-2342-4388-a41c-0ea393dcd1d3",
    "resource": {
      "resourceType": "QuestionnaireResponse",
      "id": "c87deaa2-2342-4388-a41c-0ea393dcd1d3",
      "identifier": {
        "value": "59132"
      },
      "questionnaire": {
        "reference": "urn:uuid:f6e0b87d-0ec7-42f6-866a-f6b89321bd03"
      },
      "status": "completed",
      "subject": {
        "reference": "urn:uuid:50f230c6-19a6-4d89-800c-5b68f82027a7"
      },
      "context": {
        "reference": "urn:uuid:5a5072f4-ef62-4c22-b37e-7721edc9bc86"
      },
      "authored": "2021-04-06T11:33:34+00:00"
    }
  }, {
    "fullUrl": "urn:uuid:f6e0b87d-0ec7-42f6-866a-f6b89321bd03",
    "resource": {
      "resourceType": "Questionnaire",
      "id": "f6e0b87d-0ec7-42f6-866a-f6b89321bd03",
      "identifier": [ {
        "value": "59132"
      } ],
      "version": "2021-04-06T11:33:34.963Z",
      "status": "active",
      "experimental": false,
      "date": "2021-04-06T11:33:34+00:00",
      "publisher": "User ID: 'MCDONALDD' User name: 'Denzle McDonald' User skill set: 'T3'",
      "lastReviewDate": "2021-04-06",
      "subjectType": [ "Patient" ]
    }
  }, {
    "fullUrl": "urn:uuid:02dd3dfb-ac56-4746-947c-319ec9007e3e",
    "resource": {
      "resourceType": "QuestionnaireResponse",
      "id": "02dd3dfb-ac56-4746-947c-319ec9007e3e",
      "identifier": {
        "value": "59132"
      },
      "questionnaire": {
        "reference": "urn:uuid:bc83f93e-1602-4da1-8d33-6be51c39c850"
      },
      "status": "completed",
      "subject": {
        "reference": "urn:uuid:50f230c6-19a6-4d89-800c-5b68f82027a7"
      },
      "context": {
        "reference": "urn:uuid:5a5072f4-ef62-4c22-b37e-7721edc9bc86"
      },
      "authored": "2021-04-06T11:33:34+00:00",
      "item": [ {
        "linkId": "Tx223272",
        "text": "SYSTEM_VHF",
        "answer": [ {
          "valueString": "*"
        } ]
      } ]
    }
  }, {
    "fullUrl": "urn:uuid:bc83f93e-1602-4da1-8d33-6be51c39c850",
    "resource": {
      "resourceType": "Questionnaire",
      "id": "bc83f93e-1602-4da1-8d33-6be51c39c850",
      "identifier": [ {
        "value": "59132"
      } ],
      "version": "2021-04-06T11:33:34.963Z",
      "status": "active",
      "experimental": false,
      "date": "2021-04-06T11:33:34+00:00",
      "publisher": "User ID: 'MCDONALDD' User name: 'Denzle McDonald' User skill set: 'T3'",
      "lastReviewDate": "2021-04-06",
      "subjectType": [ "Patient" ],
      "item": [ {
        "linkId": "59132",
        "prefix": "0",
        "text": "SYSTEM_VHF",
        "type": "choice",
        "required": true,
        "repeats": false,
        "option": [ {
          "valueString": "==\"vhf\", Selected: false"
        }, {
          "valueString": "*, Selected: true"
        } ]
      } ]
    }
  }, {
    "fullUrl": "urn:uuid:a716443e-693b-4575-9966-f9082e49ad16",
    "resource": {
      "resourceType": "QuestionnaireResponse",
      "id": "a716443e-693b-4575-9966-f9082e49ad16",
      "identifier": {
        "value": "59132"
      },
      "questionnaire": {
        "reference": "urn:uuid:4b6bc6f0-006d-4870-9de4-731683c176f2"
      },
      "status": "completed",
      "subject": {
        "reference": "urn:uuid:50f230c6-19a6-4d89-800c-5b68f82027a7"
      },
      "context": {
        "reference": "urn:uuid:5a5072f4-ef62-4c22-b37e-7721edc9bc86"
      },
      "authored": "2021-04-06T11:33:34+00:00",
      "item": [ {
        "linkId": "Tx222416",
        "text": "Have you actually vomited?",
        "answer": [ {
          "valueString": "no"
        } ]
      } ]
    }
  }, {
    "fullUrl": "urn:uuid:4b6bc6f0-006d-4870-9de4-731683c176f2",
    "resource": {
      "resourceType": "Questionnaire",
      "id": "4b6bc6f0-006d-4870-9de4-731683c176f2",
      "identifier": [ {
        "value": "59132"
      } ],
      "version": "2021-04-06T11:33:34.963Z",
      "status": "active",
      "experimental": false,
      "date": "2021-04-06T11:33:34+00:00",
      "publisher": "User ID: 'MCDONALDD' User name: 'Denzle McDonald' User skill set: 'T3'",
      "lastReviewDate": "2021-04-06",
      "subjectType": [ "Patient" ],
      "item": [ {
        "linkId": "59132",
        "prefix": "30400",
        "text": "Have you actually vomited?",
        "type": "choice",
        "required": true,
        "repeats": false,
        "option": [ {
          "valueString": "yes, Selected: false"
        }, {
          "valueString": "not sure, Selected: false"
        }, {
          "valueString": "no, Selected: true"
        } ]
      } ]
    }
  }, {
    "fullUrl": "urn:uuid:3d25ff9c-325e-4e21-b094-744c3e9c67c4",
    "resource": {
      "resourceType": "QuestionnaireResponse",
      "id": "3d25ff9c-325e-4e21-b094-744c3e9c67c4",
      "identifier": {
        "value": "59132"
      },
      "questionnaire": {
        "reference": "urn:uuid:6897d213-d65b-4149-9232-485e11930507"
      },
      "status": "completed",
      "subject": {
        "reference": "urn:uuid:50f230c6-19a6-4d89-800c-5b68f82027a7"
      },
      "context": {
        "reference": "urn:uuid:5a5072f4-ef62-4c22-b37e-7721edc9bc86"
      },
      "authored": "2021-04-06T11:33:34+00:00",
      "item": [ {
        "linkId": "Tx220964",
        "text": "Have you got diarrhoea as well?",
        "answer": [ {
          "valueString": "no"
        } ]
      } ]
    }
  }, {
    "fullUrl": "urn:uuid:6897d213-d65b-4149-9232-485e11930507",
    "resource": {
      "resourceType": "Questionnaire",
      "id": "6897d213-d65b-4149-9232-485e11930507",
      "identifier": [ {
        "value": "59132"
      } ],
      "version": "2021-04-06T11:33:34.963Z",
      "status": "active",
      "experimental": false,
      "date": "2021-04-06T11:33:34+00:00",
      "publisher": "User ID: 'MCDONALDD' User name: 'Denzle McDonald' User skill set: 'T3'",
      "lastReviewDate": "2021-04-06",
      "subjectType": [ "Patient" ],
      "item": [ {
        "linkId": "59132",
        "prefix": "100",
        "text": "Have you got diarrhoea as well?",
        "type": "choice",
        "required": true,
        "repeats": false,
        "option": [ {
          "valueString": "yes, Selected: false"
        }, {
          "valueString": "not sure, Selected: false"
        }, {
          "valueString": "no, Selected: true"
        } ]
      } ]
    }
  }, {
    "fullUrl": "urn:uuid:9d03cf83-b11b-466d-a756-f499af7bf860",
    "resource": {
      "resourceType": "QuestionnaireResponse",
      "id": "9d03cf83-b11b-466d-a756-f499af7bf860",
      "identifier": {
        "value": "59132"
      },
      "questionnaire": {
        "reference": "urn:uuid:2fa89271-9110-45ee-b669-f7019f7cea63"
      },
      "status": "completed",
      "subject": {
        "reference": "urn:uuid:50f230c6-19a6-4d89-800c-5b68f82027a7"
      },
      "context": {
        "reference": "urn:uuid:5a5072f4-ef62-4c22-b37e-7721edc9bc86"
      },
      "authored": "2021-04-06T11:33:34+00:00",
      "item": [ {
        "linkId": "Tx221277",
        "text": "Vomiting",
        "answer": [ {
          "valueString": "*"
        } ]
      } ]
    }
  }, {
    "fullUrl": "urn:uuid:2fa89271-9110-45ee-b669-f7019f7cea63",
    "resource": {
      "resourceType": "Questionnaire",
      "id": "2fa89271-9110-45ee-b669-f7019f7cea63",
      "identifier": [ {
        "value": "59132"
      } ],
      "version": "2021-04-06T11:33:34.963Z",
      "status": "active",
      "experimental": false,
      "date": "2021-04-06T11:33:34+00:00",
      "publisher": "User ID: 'MCDONALDD' User name: 'Denzle McDonald' User skill set: 'T3'",
      "lastReviewDate": "2021-04-06",
      "subjectType": [ "Patient" ],
      "item": [ {
        "linkId": "59132",
        "prefix": "400",
        "text": "Vomiting",
        "type": "choice",
        "required": true,
        "repeats": false,
        "option": [ {
          "valueString": "==\"present\", Selected: false"
        }, {
          "valueString": "*, Selected: true"
        } ]
      } ]
    }
  }, {
    "fullUrl": "urn:uuid:9664ec6f-676e-4125-bfa7-dac263016684",
    "resource": {
      "resourceType": "QuestionnaireResponse",
      "id": "9664ec6f-676e-4125-bfa7-dac263016684",
      "identifier": {
        "value": "59132"
      },
      "questionnaire": {
        "reference": "urn:uuid:85c987c7-da64-4599-bd0e-817c3f744009"
      },
      "status": "completed",
      "subject": {
        "reference": "urn:uuid:50f230c6-19a6-4d89-800c-5b68f82027a7"
      },
      "context": {
        "reference": "urn:uuid:5a5072f4-ef62-4c22-b37e-7721edc9bc86"
      },
      "authored": "2021-04-06T11:33:34+00:00",
      "item": [ {
        "linkId": "Tx221183",
        "text": "Did the symptoms come on after drinking alcohol?",
        "answer": [ {
          "valueString": "no"
        } ]
      } ]
    }
  }, {
    "fullUrl": "urn:uuid:85c987c7-da64-4599-bd0e-817c3f744009",
    "resource": {
      "resourceType": "Questionnaire",
      "id": "85c987c7-da64-4599-bd0e-817c3f744009",
      "identifier": [ {
        "value": "59132"
      } ],
      "version": "2021-04-06T11:33:34.963Z",
      "status": "active",
      "experimental": false,
      "date": "2021-04-06T11:33:34+00:00",
      "publisher": "User ID: 'MCDONALDD' User name: 'Denzle McDonald' User skill set: 'T3'",
      "lastReviewDate": "2021-04-06",
      "subjectType": [ "Patient" ],
      "item": [ {
        "linkId": "59132",
        "prefix": "300",
        "text": "Did the symptoms come on after drinking alcohol?",
        "type": "choice",
        "required": true,
        "repeats": false,
        "option": [ {
          "valueString": "yes, Selected: false"
        }, {
          "valueString": "not sure, Selected: false"
        }, {
          "valueString": "no, Selected: true"
        } ]
      } ]
    }
  }, {
    "fullUrl": "urn:uuid:88a80df0-d60f-49b4-a1b1-31d5c393019b",
    "resource": {
      "resourceType": "QuestionnaireResponse",
      "id": "88a80df0-d60f-49b4-a1b1-31d5c393019b",
      "identifier": {
        "value": "59132"
      },
      "questionnaire": {
        "reference": "urn:uuid:d9ebbdef-8a1c-4079-9e46-038eb0f41044"
      },
      "status": "completed",
      "subject": {
        "reference": "urn:uuid:50f230c6-19a6-4d89-800c-5b68f82027a7"
      },
      "context": {
        "reference": "urn:uuid:5a5072f4-ef62-4c22-b37e-7721edc9bc86"
      },
      "authored": "2021-04-06T11:33:34+00:00",
      "item": [ {
        "linkId": "Tx221277",
        "text": "Vomiting",
        "answer": [ {
          "valueString": "*"
        } ]
      } ]
    }
  }, {
    "fullUrl": "urn:uuid:d9ebbdef-8a1c-4079-9e46-038eb0f41044",
    "resource": {
      "resourceType": "Questionnaire",
      "id": "d9ebbdef-8a1c-4079-9e46-038eb0f41044",
      "identifier": [ {
        "value": "59132"
      } ],
      "version": "2021-04-06T11:33:34.963Z",
      "status": "active",
      "experimental": false,
      "date": "2021-04-06T11:33:34+00:00",
      "publisher": "User ID: 'MCDONALDD' User name: 'Denzle McDonald' User skill set: 'T3'",
      "lastReviewDate": "2021-04-06",
      "subjectType": [ "Patient" ],
      "item": [ {
        "linkId": "59132",
        "prefix": "1000",
        "text": "Vomiting",
        "type": "choice",
        "required": true,
        "repeats": false,
        "option": [ {
          "valueString": "==\"present\", Selected: false"
        }, {
          "valueString": "*, Selected: true"
        } ]
      } ]
    }
  }, {
    "fullUrl": "urn:uuid:7bc02e68-a3b0-44b4-8b41-91e9ca26dde4",
    "resource": {
      "resourceType": "QuestionnaireResponse",
      "id": "7bc02e68-a3b0-44b4-8b41-91e9ca26dde4",
      "identifier": {
        "value": "59132"
      },
      "questionnaire": {
        "reference": "urn:uuid:a82ed365-9c65-4de5-a8d3-e881a8f370e4"
      },
      "status": "completed",
      "subject": {
        "reference": "urn:uuid:50f230c6-19a6-4d89-800c-5b68f82027a7"
      },
      "context": {
        "reference": "urn:uuid:5a5072f4-ef62-4c22-b37e-7721edc9bc86"
      },
      "authored": "2021-04-06T11:33:34+00:00",
      "item": [ {
        "linkId": "Tx220825",
        "text": "Have you also got any pain in the abdomen?",
        "answer": [ {
          "valueString": "yes"
        } ]
      } ]
    }
  }, {
    "fullUrl": "urn:uuid:a82ed365-9c65-4de5-a8d3-e881a8f370e4",
    "resource": {
      "resourceType": "Questionnaire",
      "id": "a82ed365-9c65-4de5-a8d3-e881a8f370e4",
      "identifier": [ {
        "value": "59132"
      } ],
      "version": "2021-04-06T11:33:34.963Z",
      "status": "active",
      "experimental": false,
      "date": "2021-04-06T11:33:34+00:00",
      "publisher": "User ID: 'MCDONALDD' User name: 'Denzle McDonald' User skill set: 'T3'",
      "lastReviewDate": "2021-04-06",
      "subjectType": [ "Patient" ],
      "item": [ {
        "linkId": "59132",
        "prefix": "1500",
        "text": "Have you also got any pain in the abdomen?",
        "type": "choice",
        "required": true,
        "repeats": false,
        "option": [ {
          "valueString": "yes, Selected: true"
        }, {
          "valueString": "not sure, Selected: false"
        }, {
          "valueString": "no, Selected: false"
        } ]
      } ]
    }
  }, {
    "fullUrl": "urn:uuid:b9a0efb1-0a6a-4e6f-aad4-061eecf70b13",
    "resource": {
      "resourceType": "QuestionnaireResponse",
      "id": "b9a0efb1-0a6a-4e6f-aad4-061eecf70b13",
      "identifier": {
        "value": "59132"
      },
      "questionnaire": {
        "reference": "urn:uuid:201e5373-2385-4b03-afc0-2826f4670e87"
      },
      "status": "completed",
      "subject": {
        "reference": "urn:uuid:50f230c6-19a6-4d89-800c-5b68f82027a7"
      },
      "context": {
        "reference": "urn:uuid:5a5072f4-ef62-4c22-b37e-7721edc9bc86"
      },
      "authored": "2021-04-06T11:33:34+00:00",
      "item": [ {
        "linkId": "Tx224927",
        "text": "STRING:VomitingAnd/OrNauseaWithAbdominalPainPW",
        "answer": [ {
          "valueString": "\"present\""
        } ]
      } ]
    }
  }, {
    "fullUrl": "urn:uuid:201e5373-2385-4b03-afc0-2826f4670e87",
    "resource": {
      "resourceType": "Questionnaire",
      "id": "201e5373-2385-4b03-afc0-2826f4670e87",
      "identifier": [ {
        "value": "59132"
      } ],
      "version": "2021-04-06T11:33:34.963Z",
      "status": "active",
      "experimental": false,
      "date": "2021-04-06T11:33:34+00:00",
      "publisher": "User ID: 'MCDONALDD' User name: 'Denzle McDonald' User skill set: 'T3'",
      "lastReviewDate": "2021-04-06",
      "subjectType": [ "Patient" ],
      "item": [ {
        "linkId": "59132",
        "prefix": "64600",
        "text": "STRING:VomitingAnd/OrNauseaWithAbdominalPainPW",
        "type": "choice",
        "required": true,
        "repeats": false,
        "option": [ {
          "valueString": "\"present\", Selected: true"
        } ]
      } ]
    }
  }, {
    "fullUrl": "urn:uuid:103e6f25-9663-4fc4-a233-8a0aad02bbb2",
    "resource": {
      "resourceType": "QuestionnaireResponse",
      "id": "103e6f25-9663-4fc4-a233-8a0aad02bbb2",
      "identifier": {
        "value": "59132"
      },
      "questionnaire": {
        "reference": "urn:uuid:08a64782-3b78-482a-bf46-8101a724bba6"
      },
      "status": "completed",
      "subject": {
        "reference": "urn:uuid:50f230c6-19a6-4d89-800c-5b68f82027a7"
      },
      "context": {
        "reference": "urn:uuid:5a5072f4-ef62-4c22-b37e-7721edc9bc86"
      },
      "authored": "2021-04-06T11:33:34+00:00",
      "item": [ {
        "linkId": "Tx224907",
        "text": "STRING:GITSymptomWithAbdominalPain",
        "answer": [ {
          "valueString": "\"present\""
        } ]
      } ]
    }
  }, {
    "fullUrl": "urn:uuid:08a64782-3b78-482a-bf46-8101a724bba6",
    "resource": {
      "resourceType": "Questionnaire",
      "id": "08a64782-3b78-482a-bf46-8101a724bba6",
      "identifier": [ {
        "value": "59132"
      } ],
      "version": "2021-04-06T11:33:34.963Z",
      "status": "active",
      "experimental": false,
      "date": "2021-04-06T11:33:34+00:00",
      "publisher": "User ID: 'MCDONALDD' User name: 'Denzle McDonald' User skill set: 'T3'",
      "lastReviewDate": "2021-04-06",
      "subjectType": [ "Patient" ],
      "item": [ {
        "linkId": "59132",
        "prefix": "64700",
        "text": "STRING:GITSymptomWithAbdominalPain",
        "type": "choice",
        "required": true,
        "repeats": false,
        "option": [ {
          "valueString": "\"present\", Selected: true"
        } ]
      } ]
    }
  }, {
    "fullUrl": "urn:uuid:04d93954-26f9-430e-9591-c1d52b1a193a",
    "resource": {
      "resourceType": "QuestionnaireResponse",
      "id": "04d93954-26f9-430e-9591-c1d52b1a193a",
      "identifier": {
        "value": "59132"
      },
      "questionnaire": {
        "reference": "urn:uuid:25ed9bbe-83ee-4fbc-8d9c-030622102618"
      },
      "status": "completed",
      "subject": {
        "reference": "urn:uuid:50f230c6-19a6-4d89-800c-5b68f82027a7"
      },
      "context": {
        "reference": "urn:uuid:5a5072f4-ef62-4c22-b37e-7721edc9bc86"
      },
      "authored": "2021-04-06T11:33:34+00:00"
    }
  }, {
    "fullUrl": "urn:uuid:25ed9bbe-83ee-4fbc-8d9c-030622102618",
    "resource": {
      "resourceType": "Questionnaire",
      "id": "25ed9bbe-83ee-4fbc-8d9c-030622102618",
      "identifier": [ {
        "value": "59132"
      } ],
      "version": "2021-04-06T11:33:34.963Z",
      "status": "active",
      "experimental": false,
      "date": "2021-04-06T11:33:34+00:00",
      "publisher": "User ID: 'MCDONALDD' User name: 'Denzle McDonald' User skill set: 'T3'",
      "lastReviewDate": "2021-04-06",
      "subjectType": [ "Patient" ]
    }
  }, {
    "fullUrl": "urn:uuid:28b9fbd4-6489-42ff-972f-ecb70684dfaa",
    "resource": {
      "resourceType": "QuestionnaireResponse",
      "id": "28b9fbd4-6489-42ff-972f-ecb70684dfaa",
      "identifier": {
        "value": "59132"
      },
      "questionnaire": {
        "reference": "urn:uuid:fe7f70c7-b86c-482d-87eb-b4b963a82e42"
      },
      "status": "completed",
      "subject": {
        "reference": "urn:uuid:50f230c6-19a6-4d89-800c-5b68f82027a7"
      },
      "context": {
        "reference": "urn:uuid:5a5072f4-ef62-4c22-b37e-7721edc9bc86"
      },
      "authored": "2021-04-06T11:33:34+00:00",
      "item": [ {
        "linkId": "Tx221039",
        "text": "PATIENT_AGEGROUP",
        "answer": [ {
          "valueString": "==\"CHILD\""
        } ]
      } ]
    }
  }, {
    "fullUrl": "urn:uuid:fe7f70c7-b86c-482d-87eb-b4b963a82e42",
    "resource": {
      "resourceType": "Questionnaire",
      "id": "fe7f70c7-b86c-482d-87eb-b4b963a82e42",
      "identifier": [ {
        "value": "59132"
      } ],
      "version": "2021-04-06T11:33:34.963Z",
      "status": "active",
      "experimental": false,
      "date": "2021-04-06T11:33:34+00:00",
      "publisher": "User ID: 'MCDONALDD' User name: 'Denzle McDonald' User skill set: 'T3'",
      "lastReviewDate": "2021-04-06",
      "subjectType": [ "Patient" ],
      "item": [ {
        "linkId": "59132",
        "prefix": "0",
        "text": "PATIENT_AGEGROUP",
        "type": "choice",
        "required": true,
        "repeats": false,
        "option": [ {
          "valueString": "==\"ADULT\", Selected: false"
        }, {
          "valueString": "==\"CHILD\", Selected: true"
        }, {
          "valueString": "==\"TODDLER\", Selected: false"
        }, {
          "valueString": "==\"INFANT\", Selected: false"
        }, {
          "valueString": "==\"NEONATE\", Selected: false"
        }, {
          "valueString": "*, Selected: false"
        } ]
      } ]
    }
  }, {
    "fullUrl": "urn:uuid:a90f378d-5980-4e7e-a713-a07c9b91ab66",
    "resource": {
      "resourceType": "QuestionnaireResponse",
      "id": "a90f378d-5980-4e7e-a713-a07c9b91ab66",
      "identifier": {
        "value": "59132"
      },
      "questionnaire": {
        "reference": "urn:uuid:63d43450-e33d-4181-abd6-e00672f1e5e4"
      },
      "status": "completed",
      "subject": {
        "reference": "urn:uuid:50f230c6-19a6-4d89-800c-5b68f82027a7"
      },
      "context": {
        "reference": "urn:uuid:5a5072f4-ef62-4c22-b37e-7721edc9bc86"
      },
      "authored": "2021-04-06T11:33:34+00:00",
      "item": [ {
        "linkId": "Tx224919",
        "text": "PATIENT_AGE",
        "answer": [ {
          "valueString": "<11"
        } ]
      } ]
    }
  }, {
    "fullUrl": "urn:uuid:63d43450-e33d-4181-abd6-e00672f1e5e4",
    "resource": {
      "resourceType": "Questionnaire",
      "id": "63d43450-e33d-4181-abd6-e00672f1e5e4",
      "identifier": [ {
        "value": "59132"
      } ],
      "version": "2021-04-06T11:33:34.963Z",
      "status": "active",
      "experimental": false,
      "date": "2021-04-06T11:33:34+00:00",
      "publisher": "User ID: 'MCDONALDD' User name: 'Denzle McDonald' User skill set: 'T3'",
      "lastReviewDate": "2021-04-06",
      "subjectType": [ "Patient" ],
      "item": [ {
        "linkId": "59132",
        "prefix": "15300",
        "text": "PATIENT_AGE",
        "type": "choice",
        "required": true,
        "repeats": false,
        "option": [ {
          "valueString": "<11, Selected: true"
        }, {
          "valueString": "<13, Selected: false"
        }, {
          "valueString": ">=13, Selected: false"
        }, {
          "valueString": "*, Selected: false"
        } ]
      } ]
    }
  }, {
    "fullUrl": "urn:uuid:fb8ea63b-fe14-4b88-8ac8-7b4cba81dd73",
    "resource": {
      "resourceType": "QuestionnaireResponse",
      "id": "fb8ea63b-fe14-4b88-8ac8-7b4cba81dd73",
      "identifier": {
        "value": "59132"
      },
      "questionnaire": {
        "reference": "urn:uuid:40be54e6-1aa6-4b59-8b9e-e0865d209914"
      },
      "status": "completed",
      "subject": {
        "reference": "urn:uuid:50f230c6-19a6-4d89-800c-5b68f82027a7"
      },
      "context": {
        "reference": "urn:uuid:5a5072f4-ef62-4c22-b37e-7721edc9bc86"
      },
      "authored": "2021-04-06T11:33:34+00:00",
      "item": [ {
        "linkId": "Tx224498",
        "text": "STRING:Under11",
        "answer": [ {
          "valueString": "\"present\""
        } ]
      } ]
    }
  }, {
    "fullUrl": "urn:uuid:40be54e6-1aa6-4b59-8b9e-e0865d209914",
    "resource": {
      "resourceType": "Questionnaire",
      "id": "40be54e6-1aa6-4b59-8b9e-e0865d209914",
      "identifier": [ {
        "value": "59132"
      } ],
      "version": "2021-04-06T11:33:34.963Z",
      "status": "active",
      "experimental": false,
      "date": "2021-04-06T11:33:34+00:00",
      "publisher": "User ID: 'MCDONALDD' User name: 'Denzle McDonald' User skill set: 'T3'",
      "lastReviewDate": "2021-04-06",
      "subjectType": [ "Patient" ],
      "item": [ {
        "linkId": "59132",
        "prefix": "14800",
        "text": "STRING:Under11",
        "type": "choice",
        "required": true,
        "repeats": false,
        "option": [ {
          "valueString": "\"present\", Selected: true"
        } ]
      } ]
    }
  }, {
    "fullUrl": "urn:uuid:55810573-7d59-43b4-b618-6de6760557be",
    "resource": {
      "resourceType": "QuestionnaireResponse",
      "id": "55810573-7d59-43b4-b618-6de6760557be",
      "identifier": {
        "value": "59132"
      },
      "questionnaire": {
        "reference": "urn:uuid:ad8cb2a1-5d09-4057-bc69-6d7525323a58"
      },
      "status": "completed",
      "subject": {
        "reference": "urn:uuid:50f230c6-19a6-4d89-800c-5b68f82027a7"
      },
      "context": {
        "reference": "urn:uuid:5a5072f4-ef62-4c22-b37e-7721edc9bc86"
      },
      "authored": "2021-04-06T11:33:34+00:00",
      "item": [ {
        "linkId": "Tx224906",
        "text": "AbdominalPainPW",
        "answer": [ {
          "valueString": "*"
        } ]
      } ]
    }
  }, {
    "fullUrl": "urn:uuid:ad8cb2a1-5d09-4057-bc69-6d7525323a58",
    "resource": {
      "resourceType": "Questionnaire",
      "id": "ad8cb2a1-5d09-4057-bc69-6d7525323a58",
      "identifier": [ {
        "value": "59132"
      } ],
      "version": "2021-04-06T11:33:34.963Z",
      "status": "active",
      "experimental": false,
      "date": "2021-04-06T11:33:34+00:00",
      "publisher": "User ID: 'MCDONALDD' User name: 'Denzle McDonald' User skill set: 'T3'",
      "lastReviewDate": "2021-04-06",
      "subjectType": [ "Patient" ],
      "item": [ {
        "linkId": "59132",
        "prefix": "15600",
        "text": "AbdominalPainPW",
        "type": "choice",
        "required": true,
        "repeats": false,
        "option": [ {
          "valueString": "==\"present\", Selected: false"
        }, {
          "valueString": "*, Selected: true"
        } ]
      } ]
    }
  }, {
    "fullUrl": "urn:uuid:4441ad79-1c2a-4d69-9886-96c7c98426d6",
    "resource": {
      "resourceType": "QuestionnaireResponse",
      "id": "4441ad79-1c2a-4d69-9886-96c7c98426d6",
      "identifier": {
        "value": "59132"
      },
      "questionnaire": {
        "reference": "urn:uuid:bf23693d-ad7e-4a23-844e-f5b667b2889f"
      },
      "status": "completed",
      "subject": {
        "reference": "urn:uuid:50f230c6-19a6-4d89-800c-5b68f82027a7"
      },
      "context": {
        "reference": "urn:uuid:5a5072f4-ef62-4c22-b37e-7721edc9bc86"
      },
      "authored": "2021-04-06T11:33:34+00:00",
      "item": [ {
        "linkId": "Tx225151",
        "text": "RectalBleedingwithAbdominalPainPW",
        "answer": [ {
          "valueString": "*"
        } ]
      } ]
    }
  }, {
    "fullUrl": "urn:uuid:bf23693d-ad7e-4a23-844e-f5b667b2889f",
    "resource": {
      "resourceType": "Questionnaire",
      "id": "bf23693d-ad7e-4a23-844e-f5b667b2889f",
      "identifier": [ {
        "value": "59132"
      } ],
      "version": "2021-04-06T11:33:34.963Z",
      "status": "active",
      "experimental": false,
      "date": "2021-04-06T11:33:34+00:00",
      "publisher": "User ID: 'MCDONALDD' User name: 'Denzle McDonald' User skill set: 'T3'",
      "lastReviewDate": "2021-04-06",
      "subjectType": [ "Patient" ],
      "item": [ {
        "linkId": "59132",
        "prefix": "21300",
        "text": "RectalBleedingwithAbdominalPainPW",
        "type": "choice",
        "required": true,
        "repeats": false,
        "option": [ {
          "valueString": "==\"present\", Selected: false"
        }, {
          "valueString": "*, Selected: true"
        } ]
      } ]
    }
  }, {
    "fullUrl": "urn:uuid:b640d243-e303-4944-a688-a5a090248157",
    "resource": {
      "resourceType": "QuestionnaireResponse",
      "id": "b640d243-e303-4944-a688-a5a090248157",
      "identifier": {
        "value": "59132"
      },
      "questionnaire": {
        "reference": "urn:uuid:f056d30e-8a72-40ca-abe4-fe15680e2c61"
      },
      "status": "completed",
      "subject": {
        "reference": "urn:uuid:50f230c6-19a6-4d89-800c-5b68f82027a7"
      },
      "context": {
        "reference": "urn:uuid:5a5072f4-ef62-4c22-b37e-7721edc9bc86"
      },
      "authored": "2021-04-06T11:33:34+00:00",
      "item": [ {
        "linkId": "Tx224908",
        "text": "GITSymptomWithAbdominalPain",
        "answer": [ {
          "valueString": "==\"present\""
        } ]
      } ]
    }
  }, {
    "fullUrl": "urn:uuid:f056d30e-8a72-40ca-abe4-fe15680e2c61",
    "resource": {
      "resourceType": "Questionnaire",
      "id": "f056d30e-8a72-40ca-abe4-fe15680e2c61",
      "identifier": [ {
        "value": "59132"
      } ],
      "version": "2021-04-06T11:33:34.963Z",
      "status": "active",
      "experimental": false,
      "date": "2021-04-06T11:33:34+00:00",
      "publisher": "User ID: 'MCDONALDD' User name: 'Denzle McDonald' User skill set: 'T3'",
      "lastReviewDate": "2021-04-06",
      "subjectType": [ "Patient" ],
      "item": [ {
        "linkId": "59132",
        "prefix": "15700",
        "text": "GITSymptomWithAbdominalPain",
        "type": "choice",
        "required": true,
        "repeats": false,
        "option": [ {
          "valueString": "==\"present\", Selected: true"
        }, {
          "valueString": "*, Selected: false"
        } ]
      } ]
    }
  }, {
    "fullUrl": "urn:uuid:351e41f3-787e-4abc-8b9f-23e6c86eef5d",
    "resource": {
      "resourceType": "QuestionnaireResponse",
      "id": "351e41f3-787e-4abc-8b9f-23e6c86eef5d",
      "identifier": {
        "value": "59132"
      },
      "questionnaire": {
        "reference": "urn:uuid:6190a374-a9e7-42b1-8f85-460d705177e7"
      },
      "status": "completed",
      "subject": {
        "reference": "urn:uuid:50f230c6-19a6-4d89-800c-5b68f82027a7"
      },
      "context": {
        "reference": "urn:uuid:5a5072f4-ef62-4c22-b37e-7721edc9bc86"
      },
      "authored": "2021-04-06T11:33:34+00:00"
    }
  }, {
    "fullUrl": "urn:uuid:6190a374-a9e7-42b1-8f85-460d705177e7",
    "resource": {
      "resourceType": "Questionnaire",
      "id": "6190a374-a9e7-42b1-8f85-460d705177e7",
      "identifier": [ {
        "value": "59132"
      } ],
      "version": "2021-04-06T11:33:34.963Z",
      "status": "active",
      "experimental": false,
      "date": "2021-04-06T11:33:34+00:00",
      "publisher": "User ID: 'MCDONALDD' User name: 'Denzle McDonald' User skill set: 'T3'",
      "lastReviewDate": "2021-04-06",
      "subjectType": [ "Patient" ]
    }
  }, {
    "fullUrl": "urn:uuid:c290a741-4d86-476f-ad16-ff265aafa32e",
    "resource": {
      "resourceType": "QuestionnaireResponse",
      "id": "c290a741-4d86-476f-ad16-ff265aafa32e",
      "identifier": {
        "value": "59132"
      },
      "questionnaire": {
        "reference": "urn:uuid:5be834fb-70ed-4c46-9751-f3d4745c50ec"
      },
      "status": "completed",
      "subject": {
        "reference": "urn:uuid:50f230c6-19a6-4d89-800c-5b68f82027a7"
      },
      "context": {
        "reference": "urn:uuid:5a5072f4-ef62-4c22-b37e-7721edc9bc86"
      },
      "authored": "2021-04-06T11:33:34+00:00",
      "item": [ {
        "linkId": "Tx221039",
        "text": "PATIENT_AGEGROUP",
        "answer": [ {
          "valueString": "==\"CHILD\""
        } ]
      } ]
    }
  }, {
    "fullUrl": "urn:uuid:5be834fb-70ed-4c46-9751-f3d4745c50ec",
    "resource": {
      "resourceType": "Questionnaire",
      "id": "5be834fb-70ed-4c46-9751-f3d4745c50ec",
      "identifier": [ {
        "value": "59132"
      } ],
      "version": "2021-04-06T11:33:34.963Z",
      "status": "active",
      "experimental": false,
      "date": "2021-04-06T11:33:34+00:00",
      "publisher": "User ID: 'MCDONALDD' User name: 'Denzle McDonald' User skill set: 'T3'",
      "lastReviewDate": "2021-04-06",
      "subjectType": [ "Patient" ],
      "item": [ {
        "linkId": "59132",
        "prefix": "0",
        "text": "PATIENT_AGEGROUP",
        "type": "choice",
        "required": true,
        "repeats": false,
        "option": [ {
          "valueString": "==\"ADULT\", Selected: false"
        }, {
          "valueString": "==\"CHILD\", Selected: true"
        }, {
          "valueString": "==\"TODDLER\", Selected: false"
        }, {
          "valueString": "==\"INFANT\", Selected: false"
        }, {
          "valueString": "==\"NEONATE\", Selected: false"
        }, {
          "valueString": "*, Selected: false"
        } ]
      } ]
    }
  }, {
    "fullUrl": "urn:uuid:1dc9c170-d61a-4226-83fc-06b7dd3c6ed7",
    "resource": {
      "resourceType": "QuestionnaireResponse",
      "id": "1dc9c170-d61a-4226-83fc-06b7dd3c6ed7",
      "identifier": {
        "value": "59132"
      },
      "questionnaire": {
        "reference": "urn:uuid:d046296a-4b5a-4189-826a-c489b6073c4e"
      },
      "status": "completed",
      "subject": {
        "reference": "urn:uuid:50f230c6-19a6-4d89-800c-5b68f82027a7"
      },
      "context": {
        "reference": "urn:uuid:5a5072f4-ef62-4c22-b37e-7721edc9bc86"
      },
      "authored": "2021-04-06T11:33:34+00:00",
      "item": [ {
        "linkId": "Tx220156",
        "text": "How bad is the pain?",
        "answer": [ {
          "valueString": "bad enough to interfere with normal activity"
        } ]
      } ]
    }
  }, {
    "fullUrl": "urn:uuid:d046296a-4b5a-4189-826a-c489b6073c4e",
    "resource": {
      "resourceType": "Questionnaire",
      "id": "d046296a-4b5a-4189-826a-c489b6073c4e",
      "identifier": [ {
        "value": "59132"
      } ],
      "version": "2021-04-06T11:33:34.963Z",
      "status": "active",
      "experimental": false,
      "date": "2021-04-06T11:33:34+00:00",
      "publisher": "User ID: 'MCDONALDD' User name: 'Denzle McDonald' User skill set: 'T3'",
      "lastReviewDate": "2021-04-06",
      "subjectType": [ "Patient" ],
      "item": [ {
        "linkId": "59132",
        "prefix": "6500",
        "text": "How bad is the pain?",
        "type": "choice",
        "required": true,
        "repeats": false,
        "option": [ {
          "valueString": "so bad that doing anything is impossible, Selected: false"
        }, {
          "valueString": "bad enough to interfere with normal activity, Selected: true"
        }, {
          "valueString": "neither of the above, Selected: false"
        } ]
      } ]
    }
  }, {
    "fullUrl": "urn:uuid:c98e12a7-d8f9-454a-8ffd-8cc9efc0bb41",
    "resource": {
      "resourceType": "QuestionnaireResponse",
      "id": "c98e12a7-d8f9-454a-8ffd-8cc9efc0bb41",
      "identifier": {
        "value": "59132"
      },
      "questionnaire": {
        "reference": "urn:uuid:c3e6d55a-f40f-4df2-9052-05937369c624"
      },
      "status": "completed",
      "subject": {
        "reference": "urn:uuid:50f230c6-19a6-4d89-800c-5b68f82027a7"
      },
      "context": {
        "reference": "urn:uuid:5a5072f4-ef62-4c22-b37e-7721edc9bc86"
      },
      "authored": "2021-04-06T11:33:34+00:00",
      "item": [ {
        "linkId": "Tx224664",
        "text": "STRING:ModeratePain",
        "answer": [ {
          "valueString": "\"present\""
        } ]
      } ]
    }
  }, {
    "fullUrl": "urn:uuid:c3e6d55a-f40f-4df2-9052-05937369c624",
    "resource": {
      "resourceType": "Questionnaire",
      "id": "c3e6d55a-f40f-4df2-9052-05937369c624",
      "identifier": [ {
        "value": "59132"
      } ],
      "version": "2021-04-06T11:33:34.963Z",
      "status": "active",
      "experimental": false,
      "date": "2021-04-06T11:33:34+00:00",
      "publisher": "User ID: 'MCDONALDD' User name: 'Denzle McDonald' User skill set: 'T3'",
      "lastReviewDate": "2021-04-06",
      "subjectType": [ "Patient" ],
      "item": [ {
        "linkId": "59132",
        "prefix": "6600",
        "text": "STRING:ModeratePain",
        "type": "choice",
        "required": true,
        "repeats": false,
        "option": [ {
          "valueString": "\"present\", Selected: true"
        } ]
      } ]
    }
  }, {
    "fullUrl": "urn:uuid:14ea95ab-1f19-4d74-aecf-a6d7e60e6514",
    "resource": {
      "resourceType": "QuestionnaireResponse",
      "id": "14ea95ab-1f19-4d74-aecf-a6d7e60e6514",
      "identifier": {
        "value": "59132"
      },
      "questionnaire": {
        "reference": "urn:uuid:d21cc2ae-175d-469e-9b65-1fea7b4cf14c"
      },
      "status": "completed",
      "subject": {
        "reference": "urn:uuid:50f230c6-19a6-4d89-800c-5b68f82027a7"
      },
      "context": {
        "reference": "urn:uuid:5a5072f4-ef62-4c22-b37e-7721edc9bc86"
      },
      "authored": "2021-04-06T11:33:34+00:00",
      "item": [ {
        "linkId": "Tx170003",
        "text": "PATIENT_PARTY",
        "answer": [ {
          "valueString": "==1"
        } ]
      } ]
    }
  }, {
    "fullUrl": "urn:uuid:d21cc2ae-175d-469e-9b65-1fea7b4cf14c",
    "resource": {
      "resourceType": "Questionnaire",
      "id": "d21cc2ae-175d-469e-9b65-1fea7b4cf14c",
      "identifier": [ {
        "value": "59132"
      } ],
      "version": "2021-04-06T11:33:34.963Z",
      "status": "active",
      "experimental": false,
      "date": "2021-04-06T11:33:34+00:00",
      "publisher": "User ID: 'MCDONALDD' User name: 'Denzle McDonald' User skill set: 'T3'",
      "lastReviewDate": "2021-04-06",
      "subjectType": [ "Patient" ],
      "item": [ {
        "linkId": "59132",
        "prefix": "6800",
        "text": "PATIENT_PARTY",
        "type": "choice",
        "required": true,
        "repeats": false,
        "option": [ {
          "valueString": "==1, Selected: true"
        }, {
          "valueString": "==3, Selected: false"
        }, {
          "valueString": "*, Selected: false"
        } ]
      } ]
    }
  }, {
    "fullUrl": "urn:uuid:6c516507-2537-4594-8d3e-a624756c77bf",
    "resource": {
      "resourceType": "QuestionnaireResponse",
      "id": "6c516507-2537-4594-8d3e-a624756c77bf",
      "identifier": {
        "value": "59132"
      },
      "questionnaire": {
        "reference": "urn:uuid:d2c2a2ab-3653-48e1-8644-fed79bfe6881"
      },
      "status": "completed",
      "subject": {
        "reference": "urn:uuid:50f230c6-19a6-4d89-800c-5b68f82027a7"
      },
      "context": {
        "reference": "urn:uuid:5a5072f4-ef62-4c22-b37e-7721edc9bc86"
      },
      "authored": "2021-04-06T11:33:34+00:00",
      "item": [ {
        "linkId": "Tx224190",
        "text": "Are you so ill that you have stopped doing ALL of your usual activities?",
        "answer": [ {
          "valueString": "no - well enough to do MOST or all activities"
        } ]
      } ]
    }
  }, {
    "fullUrl": "urn:uuid:d2c2a2ab-3653-48e1-8644-fed79bfe6881",
    "resource": {
      "resourceType": "Questionnaire",
      "id": "d2c2a2ab-3653-48e1-8644-fed79bfe6881",
      "identifier": [ {
        "value": "59132"
      } ],
      "version": "2021-04-06T11:33:34.963Z",
      "status": "active",
      "experimental": false,
      "date": "2021-04-06T11:33:34+00:00",
      "publisher": "User ID: 'MCDONALDD' User name: 'Denzle McDonald' User skill set: 'T3'",
      "lastReviewDate": "2021-04-06",
      "subjectType": [ "Patient" ],
      "item": [ {
        "linkId": "59132",
        "prefix": "6900",
        "text": "Are you so ill that you have stopped doing ALL of your usual activities?",
        "type": "choice",
        "required": true,
        "repeats": false,
        "option": [ {
          "valueString": "yes - so ill they have stopped doing ALL normal activities, Selected: false"
        }, {
          "valueString": "no - unwell but able to do SOME normal activities, Selected: false"
        }, {
          "valueString": "no - well enough to do MOST or all activities, Selected: true"
        } ]
      } ]
    }
  }, {
    "fullUrl": "urn:uuid:b8d82a20-335d-4215-9a5a-e5f2afe9c61e",
    "resource": {
      "resourceType": "QuestionnaireResponse",
      "id": "b8d82a20-335d-4215-9a5a-e5f2afe9c61e",
      "identifier": {
        "value": "59132"
      },
      "questionnaire": {
        "reference": "urn:uuid:83b2ba14-0d65-44ef-ab69-3b5a3de1623f"
      },
      "status": "completed",
      "subject": {
        "reference": "urn:uuid:50f230c6-19a6-4d89-800c-5b68f82027a7"
      },
      "context": {
        "reference": "urn:uuid:5a5072f4-ef62-4c22-b37e-7721edc9bc86"
      },
      "authored": "2021-04-06T11:33:34+00:00",
      "item": [ {
        "linkId": "Tx224916",
        "text": "FlankPainPW",
        "answer": [ {
          "valueString": "*"
        } ]
      } ]
    }
  }, {
    "fullUrl": "urn:uuid:83b2ba14-0d65-44ef-ab69-3b5a3de1623f",
    "resource": {
      "resourceType": "Questionnaire",
      "id": "83b2ba14-0d65-44ef-ab69-3b5a3de1623f",
      "identifier": [ {
        "value": "59132"
      } ],
      "version": "2021-04-06T11:33:34.963Z",
      "status": "active",
      "experimental": false,
      "date": "2021-04-06T11:33:34+00:00",
      "publisher": "User ID: 'MCDONALDD' User name: 'Denzle McDonald' User skill set: 'T3'",
      "lastReviewDate": "2021-04-06",
      "subjectType": [ "Patient" ],
      "item": [ {
        "linkId": "59132",
        "prefix": "26500",
        "text": "FlankPainPW",
        "type": "choice",
        "required": true,
        "repeats": false,
        "option": [ {
          "valueString": "==\"present\", Selected: false"
        }, {
          "valueString": "*, Selected: true"
        } ]
      } ]
    }
  }, {
    "fullUrl": "urn:uuid:16019ccc-e56f-4c93-8dbf-3fe7de36c0fc",
    "resource": {
      "resourceType": "QuestionnaireResponse",
      "id": "16019ccc-e56f-4c93-8dbf-3fe7de36c0fc",
      "identifier": {
        "value": "59132"
      },
      "questionnaire": {
        "reference": "urn:uuid:c73cc8b4-bbe4-4eb0-8f9e-bae03fac9ab4"
      },
      "status": "completed",
      "subject": {
        "reference": "urn:uuid:50f230c6-19a6-4d89-800c-5b68f82027a7"
      },
      "context": {
        "reference": "urn:uuid:5a5072f4-ef62-4c22-b37e-7721edc9bc86"
      },
      "authored": "2021-04-06T11:33:34+00:00",
      "item": [ {
        "linkId": "Tx222766",
        "text": "PregnancyOver20Weeks",
        "answer": [ {
          "valueString": "*"
        } ]
      } ]
    }
  }, {
    "fullUrl": "urn:uuid:c73cc8b4-bbe4-4eb0-8f9e-bae03fac9ab4",
    "resource": {
      "resourceType": "Questionnaire",
      "id": "c73cc8b4-bbe4-4eb0-8f9e-bae03fac9ab4",
      "identifier": [ {
        "value": "59132"
      } ],
      "version": "2021-04-06T11:33:34.963Z",
      "status": "active",
      "experimental": false,
      "date": "2021-04-06T11:33:34+00:00",
      "publisher": "User ID: 'MCDONALDD' User name: 'Denzle McDonald' User skill set: 'T3'",
      "lastReviewDate": "2021-04-06",
      "subjectType": [ "Patient" ],
      "item": [ {
        "linkId": "59132",
        "prefix": "16100",
        "text": "PregnancyOver20Weeks",
        "type": "choice",
        "required": true,
        "repeats": false,
        "option": [ {
          "valueString": "==\"present\", Selected: false"
        }, {
          "valueString": "*, Selected: true"
        } ]
      } ]
    }
  }, {
    "fullUrl": "urn:uuid:a1abd265-577d-4f6b-8adc-8a23ed436ec7",
    "resource": {
      "resourceType": "QuestionnaireResponse",
      "id": "a1abd265-577d-4f6b-8adc-8a23ed436ec7",
      "identifier": {
        "value": "59132"
      },
      "questionnaire": {
        "reference": "urn:uuid:8ed3f535-1ef4-4b11-9890-aa5e7cacce98"
      },
      "status": "completed",
      "subject": {
        "reference": "urn:uuid:50f230c6-19a6-4d89-800c-5b68f82027a7"
      },
      "context": {
        "reference": "urn:uuid:5a5072f4-ef62-4c22-b37e-7721edc9bc86"
      },
      "authored": "2021-04-06T11:33:34+00:00",
      "item": [ {
        "linkId": "Tx225151",
        "text": "RectalBleedingwithAbdominalPainPW",
        "answer": [ {
          "valueString": "*"
        } ]
      } ]
    }
  }, {
    "fullUrl": "urn:uuid:8ed3f535-1ef4-4b11-9890-aa5e7cacce98",
    "resource": {
      "resourceType": "Questionnaire",
      "id": "8ed3f535-1ef4-4b11-9890-aa5e7cacce98",
      "identifier": [ {
        "value": "59132"
      } ],
      "version": "2021-04-06T11:33:34.963Z",
      "status": "active",
      "experimental": false,
      "date": "2021-04-06T11:33:34+00:00",
      "publisher": "User ID: 'MCDONALDD' User name: 'Denzle McDonald' User skill set: 'T3'",
      "lastReviewDate": "2021-04-06",
      "subjectType": [ "Patient" ],
      "item": [ {
        "linkId": "59132",
        "prefix": "26200",
        "text": "RectalBleedingwithAbdominalPainPW",
        "type": "choice",
        "required": true,
        "repeats": false,
        "option": [ {
          "valueString": "==\"present\", Selected: false"
        }, {
          "valueString": "*, Selected: true"
        } ]
      } ]
    }
  }, {
    "fullUrl": "urn:uuid:85978c79-68a0-4f11-9b81-0aa4a5e11b94",
    "resource": {
      "resourceType": "QuestionnaireResponse",
      "id": "85978c79-68a0-4f11-9b81-0aa4a5e11b94",
      "identifier": {
        "value": "59132"
      },
      "questionnaire": {
        "reference": "urn:uuid:6ca7be64-1ca3-4cfe-84b0-bdd3d30d6aa2"
      },
      "status": "completed",
      "subject": {
        "reference": "urn:uuid:50f230c6-19a6-4d89-800c-5b68f82027a7"
      },
      "context": {
        "reference": "urn:uuid:5a5072f4-ef62-4c22-b37e-7721edc9bc86"
      },
      "authored": "2021-04-06T11:33:34+00:00",
      "item": [ {
        "linkId": "Tx221119",
        "text": "SeverelyIll",
        "answer": [ {
          "valueString": "*"
        } ]
      } ]
    }
  }, {
    "fullUrl": "urn:uuid:6ca7be64-1ca3-4cfe-84b0-bdd3d30d6aa2",
    "resource": {
      "resourceType": "Questionnaire",
      "id": "6ca7be64-1ca3-4cfe-84b0-bdd3d30d6aa2",
      "identifier": [ {
        "value": "59132"
      } ],
      "version": "2021-04-06T11:33:34.963Z",
      "status": "active",
      "experimental": false,
      "date": "2021-04-06T11:33:34+00:00",
      "publisher": "User ID: 'MCDONALDD' User name: 'Denzle McDonald' User skill set: 'T3'",
      "lastReviewDate": "2021-04-06",
      "subjectType": [ "Patient" ],
      "item": [ {
        "linkId": "59132",
        "prefix": "7500",
        "text": "SeverelyIll",
        "type": "choice",
        "required": true,
        "repeats": false,
        "option": [ {
          "valueString": "==\"present\", Selected: false"
        }, {
          "valueString": "*, Selected: true"
        } ]
      } ]
    }
  }, {
    "fullUrl": "urn:uuid:659e42dc-4884-4904-b476-0ce43e7aaba2",
    "resource": {
      "resourceType": "QuestionnaireResponse",
      "id": "659e42dc-4884-4904-b476-0ce43e7aaba2",
      "identifier": {
        "value": "59132"
      },
      "questionnaire": {
        "reference": "urn:uuid:84952655-d7f7-449e-8069-3af58651a599"
      },
      "status": "completed",
      "subject": {
        "reference": "urn:uuid:50f230c6-19a6-4d89-800c-5b68f82027a7"
      },
      "context": {
        "reference": "urn:uuid:5a5072f4-ef62-4c22-b37e-7721edc9bc86"
      },
      "authored": "2021-04-06T11:33:34+00:00",
      "item": [ {
        "linkId": "Tx224934",
        "text": "GroinPainOrSwellingPWAbdominalPainPW",
        "answer": [ {
          "valueString": "*"
        } ]
      } ]
    }
  }, {
    "fullUrl": "urn:uuid:84952655-d7f7-449e-8069-3af58651a599",
    "resource": {
      "resourceType": "Questionnaire",
      "id": "84952655-d7f7-449e-8069-3af58651a599",
      "identifier": [ {
        "value": "59132"
      } ],
      "version": "2021-04-06T11:33:34.963Z",
      "status": "active",
      "experimental": false,
      "date": "2021-04-06T11:33:34+00:00",
      "publisher": "User ID: 'MCDONALDD' User name: 'Denzle McDonald' User skill set: 'T3'",
      "lastReviewDate": "2021-04-06",
      "subjectType": [ "Patient" ],
      "item": [ {
        "linkId": "59132",
        "prefix": "23300",
        "text": "GroinPainOrSwellingPWAbdominalPainPW",
        "type": "choice",
        "required": true,
        "repeats": false,
        "option": [ {
          "valueString": "==\"present\", Selected: false"
        }, {
          "valueString": "*, Selected: true"
        } ]
      } ]
    }
  }, {
    "fullUrl": "urn:uuid:00c417ca-f14f-4f6f-aff1-1eeb401c2714",
    "resource": {
      "resourceType": "QuestionnaireResponse",
      "id": "00c417ca-f14f-4f6f-aff1-1eeb401c2714",
      "identifier": {
        "value": "59132"
      },
      "questionnaire": {
        "reference": "urn:uuid:5f5d6e1c-9032-44ea-a440-3ee68431a862"
      },
      "status": "completed",
      "subject": {
        "reference": "urn:uuid:50f230c6-19a6-4d89-800c-5b68f82027a7"
      },
      "context": {
        "reference": "urn:uuid:5a5072f4-ef62-4c22-b37e-7721edc9bc86"
      },
      "authored": "2021-04-06T11:33:34+00:00",
      "item": [ {
        "linkId": "Tx224906",
        "text": "AbdominalPainPW",
        "answer": [ {
          "valueString": "*"
        } ]
      } ]
    }
  }, {
    "fullUrl": "urn:uuid:5f5d6e1c-9032-44ea-a440-3ee68431a862",
    "resource": {
      "resourceType": "Questionnaire",
      "id": "5f5d6e1c-9032-44ea-a440-3ee68431a862",
      "identifier": [ {
        "value": "59132"
      } ],
      "version": "2021-04-06T11:33:34.963Z",
      "status": "active",
      "experimental": false,
      "date": "2021-04-06T11:33:34+00:00",
      "publisher": "User ID: 'MCDONALDD' User name: 'Denzle McDonald' User skill set: 'T3'",
      "lastReviewDate": "2021-04-06",
      "subjectType": [ "Patient" ],
      "item": [ {
        "linkId": "59132",
        "prefix": "23400",
        "text": "AbdominalPainPW",
        "type": "choice",
        "required": true,
        "repeats": false,
        "option": [ {
          "valueString": "==\"present\", Selected: false"
        }, {
          "valueString": "*, Selected: true"
        } ]
      } ]
    }
  }, {
    "fullUrl": "urn:uuid:d32ff0f5-09a1-410f-9f53-4947f52d3d8c",
    "resource": {
      "resourceType": "QuestionnaireResponse",
      "id": "d32ff0f5-09a1-410f-9f53-4947f52d3d8c",
      "identifier": {
        "value": "59132"
      },
      "questionnaire": {
        "reference": "urn:uuid:33d2ab95-e3f0-4977-923f-269fc54210a7"
      },
      "status": "completed",
      "subject": {
        "reference": "urn:uuid:50f230c6-19a6-4d89-800c-5b68f82027a7"
      },
      "context": {
        "reference": "urn:uuid:5a5072f4-ef62-4c22-b37e-7721edc9bc86"
      },
      "authored": "2021-04-06T11:33:34+00:00",
      "item": [ {
        "linkId": "Tx224928",
        "text": "VomitingAnd/OrNauseaWithAbdominalPainPW",
        "answer": [ {
          "valueString": "==\"present\""
        } ]
      } ]
    }
  }, {
    "fullUrl": "urn:uuid:33d2ab95-e3f0-4977-923f-269fc54210a7",
    "resource": {
      "resourceType": "Questionnaire",
      "id": "33d2ab95-e3f0-4977-923f-269fc54210a7",
      "identifier": [ {
        "value": "59132"
      } ],
      "version": "2021-04-06T11:33:34.963Z",
      "status": "active",
      "experimental": false,
      "date": "2021-04-06T11:33:34+00:00",
      "publisher": "User ID: 'MCDONALDD' User name: 'Denzle McDonald' User skill set: 'T3'",
      "lastReviewDate": "2021-04-06",
      "subjectType": [ "Patient" ],
      "item": [ {
        "linkId": "59132",
        "prefix": "23500",
        "text": "VomitingAnd/OrNauseaWithAbdominalPainPW",
        "type": "choice",
        "required": true,
        "repeats": false,
        "option": [ {
          "valueString": "==\"present\", Selected: true"
        }, {
          "valueString": "*, Selected: false"
        } ]
      } ]
    }
  }, {
    "fullUrl": "urn:uuid:caf65ecd-efe9-49ec-b197-f2cc214fb7b7",
    "resource": {
      "resourceType": "QuestionnaireResponse",
      "id": "caf65ecd-efe9-49ec-b197-f2cc214fb7b7",
      "identifier": {
        "value": "59132"
      },
      "questionnaire": {
        "reference": "urn:uuid:122b4cc5-1a3d-4763-9fe9-9a84489d9bd8"
      },
      "status": "completed",
      "subject": {
        "reference": "urn:uuid:50f230c6-19a6-4d89-800c-5b68f82027a7"
      },
      "context": {
        "reference": "urn:uuid:5a5072f4-ef62-4c22-b37e-7721edc9bc86"
      },
      "authored": "2021-04-06T11:33:34+00:00",
      "item": [ {
        "linkId": "Tx221017",
        "text": "PATIENT_GENDER",
        "answer": [ {
          "valueString": "==\"F\""
        } ]
      } ]
    }
  }, {
    "fullUrl": "urn:uuid:122b4cc5-1a3d-4763-9fe9-9a84489d9bd8",
    "resource": {
      "resourceType": "Questionnaire",
      "id": "122b4cc5-1a3d-4763-9fe9-9a84489d9bd8",
      "identifier": [ {
        "value": "59132"
      } ],
      "version": "2021-04-06T11:33:34.963Z",
      "status": "active",
      "experimental": false,
      "date": "2021-04-06T11:33:34+00:00",
      "publisher": "User ID: 'MCDONALDD' User name: 'Denzle McDonald' User skill set: 'T3'",
      "lastReviewDate": "2021-04-06",
      "subjectType": [ "Patient" ],
      "item": [ {
        "linkId": "59132",
        "prefix": "9000",
        "text": "PATIENT_GENDER",
        "type": "choice",
        "required": true,
        "repeats": false,
        "option": [ {
          "valueString": "==\"M\", Selected: false"
        }, {
          "valueString": "==\"F\", Selected: true"
        }, {
          "valueString": "==\"U\", Selected: false"
        }, {
          "valueString": "*, Selected: false"
        } ]
      } ]
    }
  }, {
    "fullUrl": "urn:uuid:2afd6762-a9ba-4006-965f-c981edc855b6",
    "resource": {
      "resourceType": "QuestionnaireResponse",
      "id": "2afd6762-a9ba-4006-965f-c981edc855b6",
      "identifier": {
        "value": "59132"
      },
      "questionnaire": {
        "reference": "urn:uuid:0b6d9f69-76da-467a-a64c-751f446bee79"
      },
      "status": "completed",
      "subject": {
        "reference": "urn:uuid:50f230c6-19a6-4d89-800c-5b68f82027a7"
      },
      "context": {
        "reference": "urn:uuid:5a5072f4-ef62-4c22-b37e-7721edc9bc86"
      },
      "authored": "2021-04-06T11:33:34+00:00"
    }
  }, {
    "fullUrl": "urn:uuid:0b6d9f69-76da-467a-a64c-751f446bee79",
    "resource": {
      "resourceType": "Questionnaire",
      "id": "0b6d9f69-76da-467a-a64c-751f446bee79",
      "identifier": [ {
        "value": "59132"
      } ],
      "version": "2021-04-06T11:33:34.963Z",
      "status": "active",
      "experimental": false,
      "date": "2021-04-06T11:33:34+00:00",
      "publisher": "User ID: 'MCDONALDD' User name: 'Denzle McDonald' User skill set: 'T3'",
      "lastReviewDate": "2021-04-06",
      "subjectType": [ "Patient" ]
    }
  }, {
    "fullUrl": "urn:uuid:3ec1bd5c-138f-40ec-b635-59d53a7fbcaa",
    "resource": {
      "resourceType": "QuestionnaireResponse",
      "id": "3ec1bd5c-138f-40ec-b635-59d53a7fbcaa",
      "identifier": {
        "value": "59132"
      },
      "questionnaire": {
        "reference": "urn:uuid:55767387-ffbd-45dc-93bc-3b6dc03aadb7"
      },
      "status": "completed",
      "subject": {
        "reference": "urn:uuid:50f230c6-19a6-4d89-800c-5b68f82027a7"
      },
      "context": {
        "reference": "urn:uuid:5a5072f4-ef62-4c22-b37e-7721edc9bc86"
      },
      "authored": "2021-04-06T11:33:34+00:00",
      "item": [ {
        "linkId": "Tx221114",
        "text": "Pregnancy",
        "answer": [ {
          "valueString": "*"
        } ]
      } ]
    }
  }, {
    "fullUrl": "urn:uuid:55767387-ffbd-45dc-93bc-3b6dc03aadb7",
    "resource": {
      "resourceType": "Questionnaire",
      "id": "55767387-ffbd-45dc-93bc-3b6dc03aadb7",
      "identifier": [ {
        "value": "59132"
      } ],
      "version": "2021-04-06T11:33:34.963Z",
      "status": "active",
      "experimental": false,
      "date": "2021-04-06T11:33:34+00:00",
      "publisher": "User ID: 'MCDONALDD' User name: 'Denzle McDonald' User skill set: 'T3'",
      "lastReviewDate": "2021-04-06",
      "subjectType": [ "Patient" ],
      "item": [ {
        "linkId": "59132",
        "prefix": "64500",
        "text": "Pregnancy",
        "type": "choice",
        "required": true,
        "repeats": false,
        "option": [ {
          "valueString": "==\"present\", Selected: false"
        }, {
          "valueString": "*, Selected: true"
        } ]
      } ]
    }
  }, {
    "fullUrl": "urn:uuid:cf3fef74-cb99-4a9d-bb60-21b640257614",
    "resource": {
      "resourceType": "QuestionnaireResponse",
      "id": "cf3fef74-cb99-4a9d-bb60-21b640257614",
      "identifier": {
        "value": "59132"
      },
      "questionnaire": {
        "reference": "urn:uuid:9b2d0bf0-dc36-4a70-9ff8-cd782dc8e07e"
      },
      "status": "completed",
      "subject": {
        "reference": "urn:uuid:50f230c6-19a6-4d89-800c-5b68f82027a7"
      },
      "context": {
        "reference": "urn:uuid:5a5072f4-ef62-4c22-b37e-7721edc9bc86"
      },
      "authored": "2021-04-06T11:33:34+00:00",
      "item": [ {
        "linkId": "Tx221338",
        "text": ">=11yearsConfirmed",
        "answer": [ {
          "valueString": "*"
        } ]
      } ]
    }
  }, {
    "fullUrl": "urn:uuid:9b2d0bf0-dc36-4a70-9ff8-cd782dc8e07e",
    "resource": {
      "resourceType": "Questionnaire",
      "id": "9b2d0bf0-dc36-4a70-9ff8-cd782dc8e07e",
      "identifier": [ {
        "value": "59132"
      } ],
      "version": "2021-04-06T11:33:34.963Z",
      "status": "active",
      "experimental": false,
      "date": "2021-04-06T11:33:34+00:00",
      "publisher": "User ID: 'MCDONALDD' User name: 'Denzle McDonald' User skill set: 'T3'",
      "lastReviewDate": "2021-04-06",
      "subjectType": [ "Patient" ],
      "item": [ {
        "linkId": "59132",
        "prefix": "65600",
        "text": ">=11yearsConfirmed",
        "type": "choice",
        "required": true,
        "repeats": false,
        "option": [ {
          "valueString": "==\"present\", Selected: false"
        }, {
          "valueString": "*, Selected: true"
        } ]
      } ]
    }
  }, {
    "fullUrl": "urn:uuid:5a765710-e882-470e-9117-4193490cb9a5",
    "resource": {
      "resourceType": "QuestionnaireResponse",
      "id": "5a765710-e882-470e-9117-4193490cb9a5",
      "identifier": {
        "value": "59132"
      },
      "questionnaire": {
        "reference": "urn:uuid:07dbc8a9-62f6-40c5-b326-e70529ac17e1"
      },
      "status": "completed",
      "subject": {
        "reference": "urn:uuid:50f230c6-19a6-4d89-800c-5b68f82027a7"
      },
      "context": {
        "reference": "urn:uuid:5a5072f4-ef62-4c22-b37e-7721edc9bc86"
      },
      "authored": "2021-04-06T11:33:34+00:00",
      "item": [ {
        "linkId": "Tx221119",
        "text": "SeverelyIll",
        "answer": [ {
          "valueString": "*"
        } ]
      } ]
    }
  }, {
    "fullUrl": "urn:uuid:07dbc8a9-62f6-40c5-b326-e70529ac17e1",
    "resource": {
      "resourceType": "Questionnaire",
      "id": "07dbc8a9-62f6-40c5-b326-e70529ac17e1",
      "identifier": [ {
        "value": "59132"
      } ],
      "version": "2021-04-06T11:33:34.963Z",
      "status": "active",
      "experimental": false,
      "date": "2021-04-06T11:33:34+00:00",
      "publisher": "User ID: 'MCDONALDD' User name: 'Denzle McDonald' User skill set: 'T3'",
      "lastReviewDate": "2021-04-06",
      "subjectType": [ "Patient" ],
      "item": [ {
        "linkId": "59132",
        "prefix": "46200",
        "text": "SeverelyIll",
        "type": "choice",
        "required": true,
        "repeats": false,
        "option": [ {
          "valueString": "==\"present\", Selected: false"
        }, {
          "valueString": "*, Selected: true"
        } ]
      } ]
    }
  }, {
    "fullUrl": "urn:uuid:0380f1a3-a038-40c6-8109-3fc4d7c2688f",
    "resource": {
      "resourceType": "QuestionnaireResponse",
      "id": "0380f1a3-a038-40c6-8109-3fc4d7c2688f",
      "identifier": {
        "value": "59132"
      },
      "questionnaire": {
        "reference": "urn:uuid:2c792ded-a935-40d2-a106-d315ba5a0d87"
      },
      "status": "completed",
      "subject": {
        "reference": "urn:uuid:50f230c6-19a6-4d89-800c-5b68f82027a7"
      },
      "context": {
        "reference": "urn:uuid:5a5072f4-ef62-4c22-b37e-7721edc9bc86"
      },
      "authored": "2021-04-06T11:33:34+00:00",
      "item": [ {
        "linkId": "Tx220947",
        "text": "SeverePain",
        "answer": [ {
          "valueString": "*"
        } ]
      } ]
    }
  }, {
    "fullUrl": "urn:uuid:2c792ded-a935-40d2-a106-d315ba5a0d87",
    "resource": {
      "resourceType": "Questionnaire",
      "id": "2c792ded-a935-40d2-a106-d315ba5a0d87",
      "identifier": [ {
        "value": "59132"
      } ],
      "version": "2021-04-06T11:33:34.963Z",
      "status": "active",
      "experimental": false,
      "date": "2021-04-06T11:33:34+00:00",
      "publisher": "User ID: 'MCDONALDD' User name: 'Denzle McDonald' User skill set: 'T3'",
      "lastReviewDate": "2021-04-06",
      "subjectType": [ "Patient" ],
      "item": [ {
        "linkId": "59132",
        "prefix": "64600",
        "text": "SeverePain",
        "type": "choice",
        "required": true,
        "repeats": false,
        "option": [ {
          "valueString": "==\"present\", Selected: false"
        }, {
          "valueString": "*, Selected: true"
        } ]
      } ]
    }
  }, {
    "fullUrl": "urn:uuid:1f958af0-4614-4b7b-8d84-1af00677dd18",
    "resource": {
      "resourceType": "QuestionnaireResponse",
      "id": "1f958af0-4614-4b7b-8d84-1af00677dd18",
      "identifier": {
        "value": "59132"
      },
      "questionnaire": {
        "reference": "urn:uuid:f60998bf-d252-4853-9cab-c5df8c0fedc2"
      },
      "status": "completed",
      "subject": {
        "reference": "urn:uuid:50f230c6-19a6-4d89-800c-5b68f82027a7"
      },
      "context": {
        "reference": "urn:uuid:5a5072f4-ef62-4c22-b37e-7721edc9bc86"
      },
      "authored": "2021-04-06T11:33:34+00:00",
      "item": [ {
        "linkId": "Tx220114",
        "text": "Have you taken anything that might be harmful or poisonous?",
        "answer": [ {
          "valueString": "no"
        } ]
      } ]
    }
  }, {
    "fullUrl": "urn:uuid:f60998bf-d252-4853-9cab-c5df8c0fedc2",
    "resource": {
      "resourceType": "Questionnaire",
      "id": "f60998bf-d252-4853-9cab-c5df8c0fedc2",
      "identifier": [ {
        "value": "59132"
      } ],
      "version": "2021-04-06T11:33:34.963Z",
      "status": "active",
      "experimental": false,
      "date": "2021-04-06T11:33:34+00:00",
      "publisher": "User ID: 'MCDONALDD' User name: 'Denzle McDonald' User skill set: 'T3'",
      "lastReviewDate": "2021-04-06",
      "subjectType": [ "Patient" ],
      "item": [ {
        "linkId": "59132",
        "prefix": "30300",
        "text": "Have you taken anything that might be harmful or poisonous?",
        "type": "choice",
        "required": true,
        "repeats": false,
        "option": [ {
          "valueString": "yes (specify substance if known), Selected: false"
        }, {
          "valueString": "not sure, Selected: false"
        }, {
          "valueString": "no, Selected: true"
        } ]
      } ]
    }
  }, {
    "fullUrl": "urn:uuid:477d4591-5a55-4bb5-af7a-569e42513083",
    "resource": {
      "resourceType": "QuestionnaireResponse",
      "id": "477d4591-5a55-4bb5-af7a-569e42513083",
      "identifier": {
        "value": "59132"
      },
      "questionnaire": {
        "reference": "urn:uuid:daea65c6-44e4-4046-add5-249656500712"
      },
      "status": "completed",
      "subject": {
        "reference": "urn:uuid:50f230c6-19a6-4d89-800c-5b68f82027a7"
      },
      "context": {
        "reference": "urn:uuid:5a5072f4-ef62-4c22-b37e-7721edc9bc86"
      },
      "authored": "2021-04-06T11:33:34+00:00",
      "item": [ {
        "linkId": "Tx221176",
        "text": "PregnancyUnder20Weeks",
        "answer": [ {
          "valueString": "*"
        } ]
      } ]
    }
  }, {
    "fullUrl": "urn:uuid:daea65c6-44e4-4046-add5-249656500712",
    "resource": {
      "resourceType": "Questionnaire",
      "id": "daea65c6-44e4-4046-add5-249656500712",
      "identifier": [ {
        "value": "59132"
      } ],
      "version": "2021-04-06T11:33:34.963Z",
      "status": "active",
      "experimental": false,
      "date": "2021-04-06T11:33:34+00:00",
      "publisher": "User ID: 'MCDONALDD' User name: 'Denzle McDonald' User skill set: 'T3'",
      "lastReviewDate": "2021-04-06",
      "subjectType": [ "Patient" ],
      "item": [ {
        "linkId": "59132",
        "prefix": "7700",
        "text": "PregnancyUnder20Weeks",
        "type": "choice",
        "required": true,
        "repeats": false,
        "option": [ {
          "valueString": "==\"present\", Selected: false"
        }, {
          "valueString": "*, Selected: true"
        } ]
      } ]
    }
  }, {
    "fullUrl": "urn:uuid:567ab332-0e06-49ad-93bb-a22a56f002d6",
    "resource": {
      "resourceType": "QuestionnaireResponse",
      "id": "567ab332-0e06-49ad-93bb-a22a56f002d6",
      "identifier": {
        "value": "59132"
      },
      "questionnaire": {
        "reference": "urn:uuid:9ec86a40-ae55-420a-8f7c-45acee3dc6e3"
      },
      "status": "completed",
      "subject": {
        "reference": "urn:uuid:50f230c6-19a6-4d89-800c-5b68f82027a7"
      },
      "context": {
        "reference": "urn:uuid:5a5072f4-ef62-4c22-b37e-7721edc9bc86"
      },
      "authored": "2021-04-06T11:33:34+00:00",
      "item": [ {
        "linkId": "Tx221338",
        "text": ">=11yearsConfirmed",
        "answer": [ {
          "valueString": "*"
        } ]
      } ]
    }
  }, {
    "fullUrl": "urn:uuid:9ec86a40-ae55-420a-8f7c-45acee3dc6e3",
    "resource": {
      "resourceType": "Questionnaire",
      "id": "9ec86a40-ae55-420a-8f7c-45acee3dc6e3",
      "identifier": [ {
        "value": "59132"
      } ],
      "version": "2021-04-06T11:33:34.963Z",
      "status": "active",
      "experimental": false,
      "date": "2021-04-06T11:33:34+00:00",
      "publisher": "User ID: 'MCDONALDD' User name: 'Denzle McDonald' User skill set: 'T3'",
      "lastReviewDate": "2021-04-06",
      "subjectType": [ "Patient" ],
      "item": [ {
        "linkId": "59132",
        "prefix": "8200",
        "text": ">=11yearsConfirmed",
        "type": "choice",
        "required": true,
        "repeats": false,
        "option": [ {
          "valueString": "==\"present\", Selected: false"
        }, {
          "valueString": "*, Selected: true"
        } ]
      } ]
    }
  }, {
    "fullUrl": "urn:uuid:ceb0de27-750a-41a6-b9ad-dff304d8cf6e",
    "resource": {
      "resourceType": "QuestionnaireResponse",
      "id": "ceb0de27-750a-41a6-b9ad-dff304d8cf6e",
      "identifier": {
        "value": "59132"
      },
      "questionnaire": {
        "reference": "urn:uuid:dc0e0a41-c3a3-448e-a450-1583e44c6699"
      },
      "status": "completed",
      "subject": {
        "reference": "urn:uuid:50f230c6-19a6-4d89-800c-5b68f82027a7"
      },
      "context": {
        "reference": "urn:uuid:5a5072f4-ef62-4c22-b37e-7721edc9bc86"
      },
      "authored": "2021-04-06T11:33:34+00:00",
      "item": [ {
        "linkId": "Tx1033",
        "text": "Have you passed a bowel motion that looks like either of the following?",
        "answer": [ {
          "valueString": "no"
        } ]
      } ]
    }
  }, {
    "fullUrl": "urn:uuid:dc0e0a41-c3a3-448e-a450-1583e44c6699",
    "resource": {
      "resourceType": "Questionnaire",
      "id": "dc0e0a41-c3a3-448e-a450-1583e44c6699",
      "identifier": [ {
        "value": "59132"
      } ],
      "version": "2021-04-06T11:33:34.963Z",
      "status": "active",
      "experimental": false,
      "date": "2021-04-06T11:33:34+00:00",
      "publisher": "User ID: 'MCDONALDD' User name: 'Denzle McDonald' User skill set: 'T3'",
      "lastReviewDate": "2021-04-06",
      "subjectType": [ "Patient" ],
      "item": [ {
        "linkId": "59132",
        "prefix": "65200",
        "text": "Have you passed a bowel motion that looks like either of the following?",
        "type": "choice",
        "required": true,
        "repeats": false,
        "option": [ {
          "valueString": "black and tarry, Selected: false"
        }, {
          "valueString": "red or maroon, Selected: false"
        }, {
          "valueString": "not sure, Selected: false"
        }, {
          "valueString": "no, Selected: true"
        } ]
      } ]
    }
  }, {
    "fullUrl": "urn:uuid:1a4cab16-62f4-4a34-9dae-46766279317c",
    "resource": {
      "resourceType": "QuestionnaireResponse",
      "id": "1a4cab16-62f4-4a34-9dae-46766279317c",
      "identifier": {
        "value": "59132"
      },
      "questionnaire": {
        "reference": "urn:uuid:1b4675fb-fb1e-41ee-b3a9-d7b76fb3fc6b"
      },
      "status": "completed",
      "subject": {
        "reference": "urn:uuid:50f230c6-19a6-4d89-800c-5b68f82027a7"
      },
      "context": {
        "reference": "urn:uuid:5a5072f4-ef62-4c22-b37e-7721edc9bc86"
      },
      "authored": "2021-04-06T11:33:34+00:00",
      "item": [ {
        "linkId": "Tx223274",
        "text": "VHFSymptom",
        "answer": [ {
          "valueString": "*"
        } ]
      } ]
    }
  }, {
    "fullUrl": "urn:uuid:1b4675fb-fb1e-41ee-b3a9-d7b76fb3fc6b",
    "resource": {
      "resourceType": "Questionnaire",
      "id": "1b4675fb-fb1e-41ee-b3a9-d7b76fb3fc6b",
      "identifier": [ {
        "value": "59132"
      } ],
      "version": "2021-04-06T11:33:34.963Z",
      "status": "active",
      "experimental": false,
      "date": "2021-04-06T11:33:34+00:00",
      "publisher": "User ID: 'MCDONALDD' User name: 'Denzle McDonald' User skill set: 'T3'",
      "lastReviewDate": "2021-04-06",
      "subjectType": [ "Patient" ],
      "item": [ {
        "linkId": "59132",
        "prefix": "34000",
        "text": "VHFSymptom",
        "type": "choice",
        "required": true,
        "repeats": false,
        "option": [ {
          "valueString": "==\"present\", Selected: false"
        }, {
          "valueString": "*, Selected: true"
        } ]
      } ]
    }
  }, {
    "fullUrl": "urn:uuid:b4a6afa9-0668-4fe2-ac2e-87ba5c80e469",
    "resource": {
      "resourceType": "QuestionnaireResponse",
      "id": "b4a6afa9-0668-4fe2-ac2e-87ba5c80e469",
      "identifier": {
        "value": "59132"
      },
      "questionnaire": {
        "reference": "urn:uuid:4dae45f1-30a2-4627-ba2f-e7cdfd07711f"
      },
      "status": "completed",
      "subject": {
        "reference": "urn:uuid:50f230c6-19a6-4d89-800c-5b68f82027a7"
      },
      "context": {
        "reference": "urn:uuid:5a5072f4-ef62-4c22-b37e-7721edc9bc86"
      },
      "authored": "2021-04-06T11:33:34+00:00",
      "item": [ {
        "linkId": "Tx224075",
        "text": "SeverelyIllandConfused",
        "answer": [ {
          "valueString": "*"
        } ]
      } ]
    }
  }, {
    "fullUrl": "urn:uuid:4dae45f1-30a2-4627-ba2f-e7cdfd07711f",
    "resource": {
      "resourceType": "Questionnaire",
      "id": "4dae45f1-30a2-4627-ba2f-e7cdfd07711f",
      "identifier": [ {
        "value": "59132"
      } ],
      "version": "2021-04-06T11:33:34.963Z",
      "status": "active",
      "experimental": false,
      "date": "2021-04-06T11:33:34+00:00",
      "publisher": "User ID: 'MCDONALDD' User name: 'Denzle McDonald' User skill set: 'T3'",
      "lastReviewDate": "2021-04-06",
      "subjectType": [ "Patient" ],
      "item": [ {
        "linkId": "59132",
        "prefix": "47300",
        "text": "SeverelyIllandConfused",
        "type": "choice",
        "required": true,
        "repeats": false,
        "option": [ {
          "valueString": "==\"present\", Selected: false"
        }, {
          "valueString": "*, Selected: true"
        } ]
      } ]
    }
  }, {
    "fullUrl": "urn:uuid:d40f598f-f3f7-41a2-8f30-50d5d3cb80ac",
    "resource": {
      "resourceType": "QuestionnaireResponse",
      "id": "d40f598f-f3f7-41a2-8f30-50d5d3cb80ac",
      "identifier": {
        "value": "59132"
      },
      "questionnaire": {
        "reference": "urn:uuid:02de21ae-134d-4027-9622-3900f453c287"
      },
      "status": "completed",
      "subject": {
        "reference": "urn:uuid:50f230c6-19a6-4d89-800c-5b68f82027a7"
      },
      "context": {
        "reference": "urn:uuid:5a5072f4-ef62-4c22-b37e-7721edc9bc86"
      },
      "authored": "2021-04-06T11:33:34+00:00",
      "item": [ {
        "linkId": "Tx221119",
        "text": "SeverelyIll",
        "answer": [ {
          "valueString": "*"
        } ]
      } ]
    }
  }, {
    "fullUrl": "urn:uuid:02de21ae-134d-4027-9622-3900f453c287",
    "resource": {
      "resourceType": "Questionnaire",
      "id": "02de21ae-134d-4027-9622-3900f453c287",
      "identifier": [ {
        "value": "59132"
      } ],
      "version": "2021-04-06T11:33:34.963Z",
      "status": "active",
      "experimental": false,
      "date": "2021-04-06T11:33:34+00:00",
      "publisher": "User ID: 'MCDONALDD' User name: 'Denzle McDonald' User skill set: 'T3'",
      "lastReviewDate": "2021-04-06",
      "subjectType": [ "Patient" ],
      "item": [ {
        "linkId": "59132",
        "prefix": "55200",
        "text": "SeverelyIll",
        "type": "choice",
        "required": true,
        "repeats": false,
        "option": [ {
          "valueString": "==\"present\", Selected: false"
        }, {
          "valueString": "*, Selected: true"
        } ]
      } ]
    }
  }, {
    "fullUrl": "urn:uuid:5798a99d-40f9-44ad-a0ac-8489f9165bd2",
    "resource": {
      "resourceType": "QuestionnaireResponse",
      "id": "5798a99d-40f9-44ad-a0ac-8489f9165bd2",
      "identifier": {
        "value": "59132"
      },
      "questionnaire": {
        "reference": "urn:uuid:be76e3cc-be65-4ab5-a2c9-ca999cc2b5b0"
      },
      "status": "completed",
      "subject": {
        "reference": "urn:uuid:50f230c6-19a6-4d89-800c-5b68f82027a7"
      },
      "context": {
        "reference": "urn:uuid:5a5072f4-ef62-4c22-b37e-7721edc9bc86"
      },
      "authored": "2021-04-06T11:33:34+00:00",
      "item": [ {
        "linkId": "Tx223485",
        "text": "ConfusionDeclared",
        "answer": [ {
          "valueString": "*"
        } ]
      } ]
    }
  }, {
    "fullUrl": "urn:uuid:be76e3cc-be65-4ab5-a2c9-ca999cc2b5b0",
    "resource": {
      "resourceType": "Questionnaire",
      "id": "be76e3cc-be65-4ab5-a2c9-ca999cc2b5b0",
      "identifier": [ {
        "value": "59132"
      } ],
      "version": "2021-04-06T11:33:34.963Z",
      "status": "active",
      "experimental": false,
      "date": "2021-04-06T11:33:34+00:00",
      "publisher": "User ID: 'MCDONALDD' User name: 'Denzle McDonald' User skill set: 'T3'",
      "lastReviewDate": "2021-04-06",
      "subjectType": [ "Patient" ],
      "item": [ {
        "linkId": "59132",
        "prefix": "55600",
        "text": "ConfusionDeclared",
        "type": "choice",
        "required": true,
        "repeats": false,
        "option": [ {
          "valueString": "==\"present\", Selected: false"
        }, {
          "valueString": "*, Selected: true"
        } ]
      } ]
    }
  }, {
    "fullUrl": "urn:uuid:941ba47d-9e1c-4c7b-a286-8b5cb63e6334",
    "resource": {
      "resourceType": "QuestionnaireResponse",
      "id": "941ba47d-9e1c-4c7b-a286-8b5cb63e6334",
      "identifier": {
        "value": "59132"
      },
      "questionnaire": {
        "reference": "urn:uuid:252583a9-025d-4770-885e-0c518a8191d3"
      },
      "status": "completed",
      "subject": {
        "reference": "urn:uuid:50f230c6-19a6-4d89-800c-5b68f82027a7"
      },
      "context": {
        "reference": "urn:uuid:5a5072f4-ef62-4c22-b37e-7721edc9bc86"
      },
      "authored": "2021-04-06T11:33:34+00:00",
      "item": [ {
        "linkId": "Tx1213",
        "text": "Have you suddenly become confused OR more confused than usual?",
        "answer": [ {
          "valueString": "no"
        } ]
      } ]
    }
  }, {
    "fullUrl": "urn:uuid:252583a9-025d-4770-885e-0c518a8191d3",
    "resource": {
      "resourceType": "Questionnaire",
      "id": "252583a9-025d-4770-885e-0c518a8191d3",
      "identifier": [ {
        "value": "59132"
      } ],
      "version": "2021-04-06T11:33:34.963Z",
      "status": "active",
      "experimental": false,
      "date": "2021-04-06T11:33:34+00:00",
      "publisher": "User ID: 'MCDONALDD' User name: 'Denzle McDonald' User skill set: 'T3'",
      "lastReviewDate": "2021-04-06",
      "subjectType": [ "Patient" ],
      "item": [ {
        "linkId": "59132",
        "prefix": "55500",
        "text": "Have you suddenly become confused OR more confused than usual?",
        "type": "choice",
        "required": true,
        "repeats": false,
        "option": [ {
          "valueString": "yes, Selected: false"
        }, {
          "valueString": "not sure, Selected: false"
        }, {
          "valueString": "no, Selected: true"
        } ]
      } ]
    }
  }, {
    "fullUrl": "urn:uuid:0cd765a5-0f85-4216-a00c-56e59335bb8b",
    "resource": {
      "resourceType": "QuestionnaireResponse",
      "id": "0cd765a5-0f85-4216-a00c-56e59335bb8b",
      "identifier": {
        "value": "59132"
      },
      "questionnaire": {
        "reference": "urn:uuid:9b7fadb6-3bdd-4d8a-8b6f-19d628804e25"
      },
      "status": "completed",
      "subject": {
        "reference": "urn:uuid:50f230c6-19a6-4d89-800c-5b68f82027a7"
      },
      "context": {
        "reference": "urn:uuid:5a5072f4-ef62-4c22-b37e-7721edc9bc86"
      },
      "authored": "2021-04-06T11:33:34+00:00",
      "item": [ {
        "linkId": "Tx220164",
        "text": "Are you breathing faster or harder when doing nothing at all?",
        "answer": [ {
          "valueString": "no"
        } ]
      } ]
    }
  }, {
    "fullUrl": "urn:uuid:9b7fadb6-3bdd-4d8a-8b6f-19d628804e25",
    "resource": {
      "resourceType": "Questionnaire",
      "id": "9b7fadb6-3bdd-4d8a-8b6f-19d628804e25",
      "identifier": [ {
        "value": "59132"
      } ],
      "version": "2021-04-06T11:33:34.963Z",
      "status": "active",
      "experimental": false,
      "date": "2021-04-06T11:33:34+00:00",
      "publisher": "User ID: 'MCDONALDD' User name: 'Denzle McDonald' User skill set: 'T3'",
      "lastReviewDate": "2021-04-06",
      "subjectType": [ "Patient" ],
      "item": [ {
        "linkId": "59132",
        "prefix": "55400",
        "text": "Are you breathing faster or harder when doing nothing at all?",
        "type": "choice",
        "required": true,
        "repeats": false,
        "option": [ {
          "valueString": "yes, Selected: false"
        }, {
          "valueString": "not sure, Selected: false"
        }, {
          "valueString": "no, Selected: true"
        } ]
      } ]
    }
  }, {
    "fullUrl": "urn:uuid:1643db1d-d07c-4e4f-96c2-40517a47a62b",
    "resource": {
      "resourceType": "QuestionnaireResponse",
      "id": "1643db1d-d07c-4e4f-96c2-40517a47a62b",
      "identifier": {
        "value": "59132"
      },
      "questionnaire": {
        "reference": "urn:uuid:7d31f481-9a80-46a7-80ff-43832c0037dd"
      },
      "status": "completed",
      "subject": {
        "reference": "urn:uuid:50f230c6-19a6-4d89-800c-5b68f82027a7"
      },
      "context": {
        "reference": "urn:uuid:5a5072f4-ef62-4c22-b37e-7721edc9bc86"
      },
      "authored": "2021-04-06T11:33:34+00:00",
      "item": [ {
        "linkId": "Tx224697",
        "text": "ShoulderTipPainAsked",
        "answer": [ {
          "valueString": "*"
        } ]
      } ]
    }
  }, {
    "fullUrl": "urn:uuid:7d31f481-9a80-46a7-80ff-43832c0037dd",
    "resource": {
      "resourceType": "Questionnaire",
      "id": "7d31f481-9a80-46a7-80ff-43832c0037dd",
      "identifier": [ {
        "value": "59132"
      } ],
      "version": "2021-04-06T11:33:34.963Z",
      "status": "active",
      "experimental": false,
      "date": "2021-04-06T11:33:34+00:00",
      "publisher": "User ID: 'MCDONALDD' User name: 'Denzle McDonald' User skill set: 'T3'",
      "lastReviewDate": "2021-04-06",
      "subjectType": [ "Patient" ],
      "item": [ {
        "linkId": "59132",
        "prefix": "59300",
        "text": "ShoulderTipPainAsked",
        "type": "choice",
        "required": true,
        "repeats": false,
        "option": [ {
          "valueString": "==\"present\", Selected: false"
        }, {
          "valueString": "*, Selected: true"
        } ]
      } ]
    }
  }, {
    "fullUrl": "urn:uuid:d3e3a740-83ef-437e-8bb6-49b647c21b87",
    "resource": {
      "resourceType": "QuestionnaireResponse",
      "id": "d3e3a740-83ef-437e-8bb6-49b647c21b87",
      "identifier": {
        "value": "59132"
      },
      "questionnaire": {
        "reference": "urn:uuid:bb18439e-1486-45f1-8bf5-67d419ac7894"
      },
      "status": "completed",
      "subject": {
        "reference": "urn:uuid:50f230c6-19a6-4d89-800c-5b68f82027a7"
      },
      "context": {
        "reference": "urn:uuid:5a5072f4-ef62-4c22-b37e-7721edc9bc86"
      },
      "authored": "2021-04-06T11:33:34+00:00",
      "item": [ {
        "linkId": "Tx1513",
        "text": "Have you got either of the following problems?",
        "answer": [ {
          "valueString": "no"
        } ]
      } ]
    }
  }, {
    "fullUrl": "urn:uuid:bb18439e-1486-45f1-8bf5-67d419ac7894",
    "resource": {
      "resourceType": "Questionnaire",
      "id": "bb18439e-1486-45f1-8bf5-67d419ac7894",
      "identifier": [ {
        "value": "59132"
      } ],
      "version": "2021-04-06T11:33:34.963Z",
      "status": "active",
      "experimental": false,
      "date": "2021-04-06T11:33:34+00:00",
      "publisher": "User ID: 'MCDONALDD' User name: 'Denzle McDonald' User skill set: 'T3'",
      "lastReviewDate": "2021-04-06",
      "subjectType": [ "Patient" ],
      "item": [ {
        "linkId": "59132",
        "prefix": "11000",
        "text": "Have you got either of the following problems?",
        "type": "choice",
        "required": true,
        "repeats": false,
        "option": [ {
          "valueString": "new pain in the TIP of a shoulder as well, Selected: false"
        }, {
          "valueString": "pain in the lower right side of the abdomen, Selected: false"
        }, {
          "valueString": "not sure, Selected: false"
        }, {
          "valueString": "no, Selected: true"
        } ]
      } ]
    }
  }, {
    "fullUrl": "urn:uuid:3776b2ed-5bbf-4f09-b529-8d82b6f1f602",
    "resource": {
      "resourceType": "QuestionnaireResponse",
      "id": "3776b2ed-5bbf-4f09-b529-8d82b6f1f602",
      "identifier": {
        "value": "59132"
      },
      "questionnaire": {
        "reference": "urn:uuid:b1d10996-8789-46fc-ab4d-854e8bc578c9"
      },
      "status": "completed",
      "subject": {
        "reference": "urn:uuid:50f230c6-19a6-4d89-800c-5b68f82027a7"
      },
      "context": {
        "reference": "urn:uuid:5a5072f4-ef62-4c22-b37e-7721edc9bc86"
      },
      "authored": "2021-04-06T11:33:34+00:00",
      "item": [ {
        "linkId": "Tx3481",
        "text": "Has the pain been there ALL THE TIME for MORE THAN 4 HOURS?",
        "answer": [ {
          "valueString": "no (LESS THAN 4 hours)"
        } ]
      } ]
    }
  }, {
    "fullUrl": "urn:uuid:b1d10996-8789-46fc-ab4d-854e8bc578c9",
    "resource": {
      "resourceType": "Questionnaire",
      "id": "b1d10996-8789-46fc-ab4d-854e8bc578c9",
      "identifier": [ {
        "value": "59132"
      } ],
      "version": "2021-04-06T11:33:34.963Z",
      "status": "active",
      "experimental": false,
      "date": "2021-04-06T11:33:34+00:00",
      "publisher": "User ID: 'MCDONALDD' User name: 'Denzle McDonald' User skill set: 'T3'",
      "lastReviewDate": "2021-04-06",
      "subjectType": [ "Patient" ],
      "item": [ {
        "linkId": "59132",
        "prefix": "13000",
        "text": "Has the pain been there ALL THE TIME for MORE THAN 4 HOURS?",
        "type": "choice",
        "required": true,
        "repeats": false,
        "option": [ {
          "valueString": "yes (4 hours or MORE), Selected: false"
        }, {
          "valueString": "not sure, Selected: false"
        }, {
          "valueString": "no (LESS THAN 4 hours), Selected: true"
        } ]
      } ]
    }
  }, {
    "fullUrl": "urn:uuid:fd12b351-df67-438a-ac72-ccb3d2014586",
    "resource": {
      "resourceType": "QuestionnaireResponse",
      "id": "fd12b351-df67-438a-ac72-ccb3d2014586",
      "identifier": {
        "value": "59132"
      },
      "questionnaire": {
        "reference": "urn:uuid:9d9721e4-f1e3-4464-9daa-e6fee64f8968"
      },
      "status": "completed",
      "subject": {
        "reference": "urn:uuid:50f230c6-19a6-4d89-800c-5b68f82027a7"
      },
      "context": {
        "reference": "urn:uuid:5a5072f4-ef62-4c22-b37e-7721edc9bc86"
      },
      "authored": "2021-04-06T11:33:34+00:00",
      "item": [ {
        "linkId": "Tx1178",
        "text": "Have you been diagnosed with diabetes?",
        "answer": [ {
          "valueString": "no"
        } ]
      } ]
    }
  }, {
    "fullUrl": "urn:uuid:9d9721e4-f1e3-4464-9daa-e6fee64f8968",
    "resource": {
      "resourceType": "Questionnaire",
      "id": "9d9721e4-f1e3-4464-9daa-e6fee64f8968",
      "identifier": [ {
        "value": "59132"
      } ],
      "version": "2021-04-06T11:33:34.963Z",
      "status": "active",
      "experimental": false,
      "date": "2021-04-06T11:33:34+00:00",
      "publisher": "User ID: 'MCDONALDD' User name: 'Denzle McDonald' User skill set: 'T3'",
      "lastReviewDate": "2021-04-06",
      "subjectType": [ "Patient" ],
      "item": [ {
        "linkId": "59132",
        "prefix": "13700",
        "text": "Have you been diagnosed with diabetes?",
        "type": "choice",
        "required": true,
        "repeats": false,
        "option": [ {
          "valueString": "yes, Selected: false"
        }, {
          "valueString": "not sure, Selected: false"
        }, {
          "valueString": "no, Selected: true"
        } ]
      } ]
    }
  }, {
    "fullUrl": "urn:uuid:5ea36198-c254-47fc-bbec-52db72bf1e64",
    "resource": {
      "resourceType": "QuestionnaireResponse",
      "id": "5ea36198-c254-47fc-bbec-52db72bf1e64",
      "identifier": {
        "value": "59132"
      },
      "questionnaire": {
        "reference": "urn:uuid:a1251be6-a826-4a3f-98ec-5ff026a0d041"
      },
      "status": "completed",
      "subject": {
        "reference": "urn:uuid:50f230c6-19a6-4d89-800c-5b68f82027a7"
      },
      "context": {
        "reference": "urn:uuid:5a5072f4-ef62-4c22-b37e-7721edc9bc86"
      },
      "authored": "2021-04-06T11:33:34+00:00",
      "item": [ {
        "linkId": "Tx220906",
        "text": "Have you got pain in the back or side between the ribs and hips?",
        "answer": [ {
          "valueString": "yes"
        } ]
      } ]
    }
  }, {
    "fullUrl": "urn:uuid:a1251be6-a826-4a3f-98ec-5ff026a0d041",
    "resource": {
      "resourceType": "Questionnaire",
      "id": "a1251be6-a826-4a3f-98ec-5ff026a0d041",
      "identifier": [ {
        "value": "59132"
      } ],
      "version": "2021-04-06T11:33:34.963Z",
      "status": "active",
      "experimental": false,
      "date": "2021-04-06T11:33:34+00:00",
      "publisher": "User ID: 'MCDONALDD' User name: 'Denzle McDonald' User skill set: 'T3'",
      "lastReviewDate": "2021-04-06",
      "subjectType": [ "Patient" ],
      "item": [ {
        "linkId": "59132",
        "prefix": "14400",
        "text": "Have you got pain in the back or side between the ribs and hips?",
        "type": "choice",
        "required": true,
        "repeats": false,
        "option": [ {
          "valueString": "yes, Selected: true"
        }, {
          "valueString": "not sure, Selected: false"
        }, {
          "valueString": "no, Selected: false"
        } ]
      } ]
    }
  }, {
    "fullUrl": "urn:uuid:bf1bf80f-744a-4a5a-a091-ed85d13e4df5",
    "resource": {
      "resourceType": "QuestionnaireResponse",
      "id": "bf1bf80f-744a-4a5a-a091-ed85d13e4df5",
      "identifier": {
        "value": "59132"
      },
      "questionnaire": {
        "reference": "urn:uuid:b7109d07-1857-460e-9097-4f7251ce9ce5"
      },
      "status": "completed",
      "subject": {
        "reference": "urn:uuid:50f230c6-19a6-4d89-800c-5b68f82027a7"
      },
      "context": {
        "reference": "urn:uuid:5a5072f4-ef62-4c22-b37e-7721edc9bc86"
      },
      "authored": "2021-04-06T11:33:34+00:00",
      "item": [ {
        "linkId": "Tx1122",
        "text": "Have you felt hot or feverish at any time in the last 12 hours?",
        "answer": [ {
          "valueString": "yes - temperature not taken"
        } ]
      } ]
    }
  }, {
    "fullUrl": "urn:uuid:b7109d07-1857-460e-9097-4f7251ce9ce5",
    "resource": {
      "resourceType": "Questionnaire",
      "id": "b7109d07-1857-460e-9097-4f7251ce9ce5",
      "identifier": [ {
        "value": "59132"
      } ],
      "version": "2021-04-06T11:33:34.963Z",
      "status": "active",
      "experimental": false,
      "date": "2021-04-06T11:33:34+00:00",
      "publisher": "User ID: 'MCDONALDD' User name: 'Denzle McDonald' User skill set: 'T3'",
      "lastReviewDate": "2021-04-06",
      "subjectType": [ "Patient" ],
      "item": [ {
        "linkId": "59132",
        "prefix": "14700",
        "text": "Have you felt hot or feverish at any time in the last 12 hours?",
        "type": "choice",
        "required": true,
        "repeats": false,
        "option": [ {
          "valueString": "yes - temperature not taken, Selected: true"
        }, {
          "valueString": "yes - temperature taken (specify), Selected: false"
        }, {
          "valueString": "not sure, Selected: false"
        }, {
          "valueString": "no, Selected: false"
        } ]
      } ]
    }
  }, {
    "fullUrl": "urn:uuid:a131886b-fd7c-424a-ac12-39e37428b4a6",
    "resource": {
      "resourceType": "QuestionnaireResponse",
      "id": "a131886b-fd7c-424a-ac12-39e37428b4a6",
      "identifier": {
        "value": "59132"
      },
      "questionnaire": {
        "reference": "urn:uuid:557d482d-7e9b-4e52-867e-e1fcd1f357a5"
      },
      "status": "completed",
      "subject": {
        "reference": "urn:uuid:50f230c6-19a6-4d89-800c-5b68f82027a7"
      },
      "context": {
        "reference": "urn:uuid:5a5072f4-ef62-4c22-b37e-7721edc9bc86"
      },
      "authored": "2021-04-06T11:33:34+00:00",
      "item": [ {
        "linkId": "Tx1320",
        "text": "Have you got a new red rash all over, like sunburn?",
        "answer": [ {
          "valueString": "no"
        } ]
      } ]
    }
  }, {
    "fullUrl": "urn:uuid:557d482d-7e9b-4e52-867e-e1fcd1f357a5",
    "resource": {
      "resourceType": "Questionnaire",
      "id": "557d482d-7e9b-4e52-867e-e1fcd1f357a5",
      "identifier": [ {
        "value": "59132"
      } ],
      "version": "2021-04-06T11:33:34.963Z",
      "status": "active",
      "experimental": false,
      "date": "2021-04-06T11:33:34+00:00",
      "publisher": "User ID: 'MCDONALDD' User name: 'Denzle McDonald' User skill set: 'T3'",
      "lastReviewDate": "2021-04-06",
      "subjectType": [ "Patient" ],
      "item": [ {
        "linkId": "59132",
        "prefix": "14800",
        "text": "Have you got a new red rash all over, like sunburn?",
        "type": "choice",
        "required": true,
        "repeats": false,
        "option": [ {
          "valueString": "yes, Selected: false"
        }, {
          "valueString": "not sure, Selected: false"
        }, {
          "valueString": "no, Selected: true"
        } ]
      } ]
    }
  }, {
    "fullUrl": "urn:uuid:5af58e92-3eed-4b24-9455-b33e8a48aafd",
    "resource": {
      "resourceType": "QuestionnaireResponse",
      "id": "5af58e92-3eed-4b24-9455-b33e8a48aafd",
      "identifier": {
        "value": "59132"
      },
      "questionnaire": {
        "reference": "urn:uuid:bee0ad57-684b-4b45-a361-bcde21b669ca"
      },
      "status": "completed",
      "subject": {
        "reference": "urn:uuid:50f230c6-19a6-4d89-800c-5b68f82027a7"
      },
      "context": {
        "reference": "urn:uuid:5a5072f4-ef62-4c22-b37e-7721edc9bc86"
      },
      "authored": "2021-04-06T11:33:34+00:00",
      "item": [ {
        "linkId": "Tx221449",
        "text": "STRING:SDPCFullPrimaryCareassessmentandprescribingcapability",
        "answer": [ {
          "valueString": "\"PC full Primary Care assessment and prescribing capability\""
        } ]
      } ]
    }
  }, {
    "fullUrl": "urn:uuid:bee0ad57-684b-4b45-a361-bcde21b669ca",
    "resource": {
      "resourceType": "Questionnaire",
      "id": "bee0ad57-684b-4b45-a361-bcde21b669ca",
      "identifier": [ {
        "value": "59132"
      } ],
      "version": "2021-04-06T11:33:34.963Z",
      "status": "active",
      "experimental": false,
      "date": "2021-04-06T11:33:34+00:00",
      "publisher": "User ID: 'MCDONALDD' User name: 'Denzle McDonald' User skill set: 'T3'",
      "lastReviewDate": "2021-04-06",
      "subjectType": [ "Patient" ],
      "item": [ {
        "linkId": "59132",
        "prefix": "14900",
        "text": "STRING:SDPCFullPrimaryCareassessmentandprescribingcapability",
        "type": "choice",
        "required": true,
        "repeats": false,
        "option": [ {
          "valueString": "\"PC full Primary Care assessment and prescribing capability\", Selected: true"
        } ]
      } ]
    }
  }, {
    "fullUrl": "urn:uuid:1bab457a-be52-4a35-b913-a7a9ce71e2f3",
    "resource": {
      "resourceType": "QuestionnaireResponse",
      "id": "1bab457a-be52-4a35-b913-a7a9ce71e2f3",
      "identifier": {
        "value": "59132"
      },
      "questionnaire": {
        "reference": "urn:uuid:540fc32b-29cc-49d5-84e4-1bd4e5c0646d"
      },
      "status": "completed",
      "subject": {
        "reference": "urn:uuid:50f230c6-19a6-4d89-800c-5b68f82027a7"
      },
      "context": {
        "reference": "urn:uuid:5a5072f4-ef62-4c22-b37e-7721edc9bc86"
      },
      "authored": "2021-04-06T11:33:34+00:00"
    }
  }, {
    "fullUrl": "urn:uuid:540fc32b-29cc-49d5-84e4-1bd4e5c0646d",
    "resource": {
      "resourceType": "Questionnaire",
      "id": "540fc32b-29cc-49d5-84e4-1bd4e5c0646d",
      "identifier": [ {
        "value": "59132"
      } ],
      "version": "2021-04-06T11:33:34.963Z",
      "status": "active",
      "experimental": false,
      "date": "2021-04-06T11:33:34+00:00",
      "publisher": "User ID: 'MCDONALDD' User name: 'Denzle McDonald' User skill set: 'T3'",
      "lastReviewDate": "2021-04-06",
      "subjectType": [ "Patient" ]
    }
  }, {
    "fullUrl": "urn:uuid:c1d2feea-0499-4e4e-aaa8-55683c13393f",
    "resource": {
      "resourceType": "QuestionnaireResponse",
      "id": "c1d2feea-0499-4e4e-aaa8-55683c13393f",
      "identifier": {
        "value": "59132"
      },
      "questionnaire": {
        "reference": "urn:uuid:3c1b919e-f89a-454b-8a07-040bb2dd1493"
      },
      "status": "completed",
      "subject": {
        "reference": "urn:uuid:50f230c6-19a6-4d89-800c-5b68f82027a7"
      },
      "context": {
        "reference": "urn:uuid:5a5072f4-ef62-4c22-b37e-7721edc9bc86"
      },
      "authored": "2021-04-06T11:33:34+00:00"
    }
  }, {
    "fullUrl": "urn:uuid:3c1b919e-f89a-454b-8a07-040bb2dd1493",
    "resource": {
      "resourceType": "Questionnaire",
      "id": "3c1b919e-f89a-454b-8a07-040bb2dd1493",
      "identifier": [ {
        "value": "59132"
      } ],
      "version": "2021-04-06T11:33:34.963Z",
      "status": "active",
      "experimental": false,
      "date": "2021-04-06T11:33:34+00:00",
      "publisher": "User ID: 'MCDONALDD' User name: 'Denzle McDonald' User skill set: 'T3'",
      "lastReviewDate": "2021-04-06",
      "subjectType": [ "Patient" ]
    }
  }, {
    "fullUrl": "urn:uuid:a45938e7-6f72-42a4-822a-3430ffebaab3",
    "resource": {
      "resourceType": "QuestionnaireResponse",
      "id": "a45938e7-6f72-42a4-822a-3430ffebaab3",
      "identifier": {
        "value": "59132"
      },
      "questionnaire": {
        "reference": "urn:uuid:767222f7-b434-45fd-8e01-2ae9f34e2397"
      },
      "status": "completed",
      "subject": {
        "reference": "urn:uuid:50f230c6-19a6-4d89-800c-5b68f82027a7"
      },
      "context": {
        "reference": "urn:uuid:5a5072f4-ef62-4c22-b37e-7721edc9bc86"
      },
      "authored": "2021-04-06T11:33:34+00:00"
    }
  }, {
    "fullUrl": "urn:uuid:767222f7-b434-45fd-8e01-2ae9f34e2397",
    "resource": {
      "resourceType": "Questionnaire",
      "id": "767222f7-b434-45fd-8e01-2ae9f34e2397",
      "identifier": [ {
        "value": "59132"
      } ],
      "version": "2021-04-06T11:33:34.963Z",
      "status": "active",
      "experimental": false,
      "date": "2021-04-06T11:33:34+00:00",
      "publisher": "User ID: 'MCDONALDD' User name: 'Denzle McDonald' User skill set: 'T3'",
      "lastReviewDate": "2021-04-06",
      "subjectType": [ "Patient" ]
    }
  }, {
    "fullUrl": "urn:uuid:caa330db-63c0-4780-bd60-154e6cc2a383",
    "resource": {
      "resourceType": "QuestionnaireResponse",
      "id": "caa330db-63c0-4780-bd60-154e6cc2a383",
      "identifier": {
        "value": "59132"
      },
      "questionnaire": {
        "reference": "urn:uuid:fa641df8-def3-490e-a197-6015ab49d09b"
      },
      "status": "completed",
      "subject": {
        "reference": "urn:uuid:50f230c6-19a6-4d89-800c-5b68f82027a7"
      },
      "context": {
        "reference": "urn:uuid:5a5072f4-ef62-4c22-b37e-7721edc9bc86"
      },
      "authored": "2021-04-06T11:33:34+00:00"
    }
  }, {
    "fullUrl": "urn:uuid:fa641df8-def3-490e-a197-6015ab49d09b",
    "resource": {
      "resourceType": "Questionnaire",
      "id": "fa641df8-def3-490e-a197-6015ab49d09b",
      "identifier": [ {
        "value": "59132"
      } ],
      "version": "2021-04-06T11:33:34.963Z",
      "status": "active",
      "experimental": false,
      "date": "2021-04-06T11:33:34+00:00",
      "publisher": "User ID: 'MCDONALDD' User name: 'Denzle McDonald' User skill set: 'T3'",
      "lastReviewDate": "2021-04-06",
      "subjectType": [ "Patient" ]
    }
  }, {
    "fullUrl": "urn:uuid:9a45df1d-0559-4f4d-91cd-ada9866f6c7b",
    "resource": {
      "resourceType": "QuestionnaireResponse",
      "id": "9a45df1d-0559-4f4d-91cd-ada9866f6c7b",
      "identifier": {
        "value": "59132"
      },
      "questionnaire": {
        "reference": "urn:uuid:ffcee43d-6977-40d1-9205-6f4759e7eb4a"
      },
      "status": "completed",
      "subject": {
        "reference": "urn:uuid:50f230c6-19a6-4d89-800c-5b68f82027a7"
      },
      "context": {
        "reference": "urn:uuid:5a5072f4-ef62-4c22-b37e-7721edc9bc86"
      },
      "authored": "2021-04-06T11:33:34+00:00"
    }
  }, {
    "fullUrl": "urn:uuid:ffcee43d-6977-40d1-9205-6f4759e7eb4a",
    "resource": {
      "resourceType": "Questionnaire",
      "id": "ffcee43d-6977-40d1-9205-6f4759e7eb4a",
      "identifier": [ {
        "value": "59132"
      } ],
      "version": "2021-04-06T11:33:34.963Z",
      "status": "active",
      "experimental": false,
      "date": "2021-04-06T11:33:34+00:00",
      "publisher": "User ID: 'MCDONALDD' User name: 'Denzle McDonald' User skill set: 'T3'",
      "lastReviewDate": "2021-04-06",
      "subjectType": [ "Patient" ]
    }
  }, {
    "fullUrl": "urn:uuid:ff49891a-6eb5-4142-90e8-0e33059ffad9",
    "resource": {
      "resourceType": "Observation",
      "id": "ff49891a-6eb5-4142-90e8-0e33059ffad9",
      "status": "final",
      "code": {
        "coding": [ {
          "system": "http://snomed.info/sct",
          "code": "33962009",
          "display": "Presenting complaint"
        } ]
      },
      "subject": {
        "reference": "urn:uuid:50f230c6-19a6-4d89-800c-5b68f82027a7"
      },
      "context": {
        "reference": "urn:uuid:5a5072f4-ef62-4c22-b37e-7721edc9bc86"
      },
      "valueString": "Pharmacy ITK Testing"
    }
  }, {
    "fullUrl": "urn:uuid:0c6b1ff9-b737-4920-9260-7fb505fbb83a",
    "resource": {
      "resourceType": "PractitionerRole",
      "id": "0c6b1ff9-b737-4920-9260-7fb505fbb83a",
      "practitioner": {
        "reference": "urn:uuid:a9382869-d54a-445e-be54-35f4275c2a71"
      },
      "organization": {
        "reference": "urn:uuid:f1e462b6-c36f-4f9c-a136-d0619e28092c"
      },
      "code": [ {
        "coding": [ {
          "system": "2.16.840.1.113883.2.1.3.2.4.17.339",
          "code": "DOCTOR",
          "display": "Doctor"
        } ]
      } ]
    }
  }, {
    "fullUrl": "urn:uuid:f1e462b6-c36f-4f9c-a136-d0619e28092c",
    "resource": {
      "resourceType": "Organization",
      "id": "f1e462b6-c36f-4f9c-a136-d0619e28092c",
      "identifier": [ {
        "value": "RYE"
      } ],
      "name": "1.SCAS Administrator (SCAS111)"
    }
  }, {
    "fullUrl": "urn:uuid:c5bc8d5b-c9e6-4336-8459-d4d9b13eed10",
    "resource": {
      "resourceType": "PractitionerRole",
      "id": "c5bc8d5b-c9e6-4336-8459-d4d9b13eed10",
      "practitioner": {
        "reference": "urn:uuid:1f9da500-1867-48c1-acdc-d1b5220c9e35"
      },
      "organization": {
        "reference": "urn:uuid:10a09e6a-8c18-48ec-8a80-b87b39d0b5a2"
      },
      "code": [ {
        "coding": [ {
          "system": "2.16.840.1.113883.2.1.3.2.4.17.196",
          "code": "R0010",
          "display": "Medical Director"
        } ]
      } ]
    }
  }, {
    "fullUrl": "urn:uuid:10a09e6a-8c18-48ec-8a80-b87b39d0b5a2",
    "resource": {
      "resourceType": "Organization",
      "id": "10a09e6a-8c18-48ec-8a80-b87b39d0b5a2",
      "identifier": [ {
        "value": "RYE"
      } ],
      "name": "SCAS111"
    }
  }, {
    "fullUrl": "urn:uuid:78fbb348-8e24-469a-b94c-e45bcd1dd521",
    "resource": {
      "resourceType": "RelatedPerson",
      "id": "78fbb348-8e24-469a-b94c-e45bcd1dd521",
      "patient": {
        "reference": "urn:uuid:50f230c6-19a6-4d89-800c-5b68f82027a7"
      },
      "relationship": {
        "coding": [ {
          "system": "http://hl7.org/fhir/v2/0131",
          "code": "C",
          "display": "Emergency Contact"
        } ]
      },
      "telecom": [ {
        "system": "phone",
        "value": "tel:07948625625"
      } ]
    }
  }, {
    "fullUrl": "urn:uuid:5402a90f-553f-4d8e-8683-a04e6287b69c",
    "resource": {
      "resourceType": "Device",
      "id": "5402a90f-553f-4d8e-8683-a04e6287b69c",
      "model": "111 Adaptor",
      "version": "1.0.1"
    }
  }, {
    "fullUrl": "urn:uuid:93901135-d97d-4bef-a2e0-6d052f74f6c2",
    "resource": {
      "resourceType": "List",
      "id": "93901135-d97d-4bef-a2e0-6d052f74f6c2",
      "status": "current",
      "mode": "working",
      "title": "111 Report List",
      "code": {
        "coding": [ {
          "system": "http://snomed.info/sct",
          "code": "225390008",
          "display": "Triage"
        } ]
      },
      "subject": {
        "reference": "urn:uuid:50f230c6-19a6-4d89-800c-5b68f82027a7"
      },
      "encounter": {
        "reference": "urn:uuid:5a5072f4-ef62-4c22-b37e-7721edc9bc86"
      },
      "date": "2021-04-06T11:33:35+00:00",
      "source": {
        "reference": "urn:uuid:5402a90f-553f-4d8e-8683-a04e6287b69c"
      },
      "orderedBy": {
        "coding": [ {
          "system": "http://hl7.org/fhir/list-order",
          "code": "event-date",
          "display": "Sorted by Event Date"
        } ]
      },
      "entry": [ {
        "item": {
          "reference": "urn:uuid:ff49891a-6eb5-4142-90e8-0e33059ffad9"
        }
      }, {
        "item": {
          "reference": "urn:uuid:cc1f5fd3-ca52-4764-ac12-e5b74ad0da0c"
        }
      }, {
        "item": {
          "reference": "urn:uuid:f1e462b6-c36f-4f9c-a136-d0619e28092c"
        }
      }, {
        "item": {
          "reference": "urn:uuid:78fbb348-8e24-469a-b94c-e45bcd1dd521"
        }
      }, {
        "item": {
          "reference": "urn:uuid:80f997c4-f4dc-4291-b309-6b2829c98142"
        }
      }, {
        "item": {
          "reference": "urn:uuid:10a09e6a-8c18-48ec-8a80-b87b39d0b5a2"
        }
      }, {
        "item": {
          "reference": "urn:uuid:86f594b1-2b81-4ed8-851e-05fb582837b6"
        }
      }, {
        "item": {
          "reference": "urn:uuid:7e03b08e-9668-4204-8254-5cbb0e1d3a21"
        }
      }, {
        "item": {
          "reference": "urn:uuid:1f9da500-1867-48c1-acdc-d1b5220c9e35"
        }
      }, {
        "item": {
          "reference": "urn:uuid:a9382869-d54a-445e-be54-35f4275c2a71"
        }
      }, {
        "item": {
          "reference": "urn:uuid:affc4cef-ef2c-41e6-95e3-3ddcba32919d"
        }
      }, {
        "item": {
          "reference": "urn:uuid:aaa5d473-6da2-4411-8fdc-6b889d226617"
        }
      }, {
        "item": {
          "reference": "urn:uuid:f056d30e-8a72-40ca-abe4-fe15680e2c61"
        }
      }, {
        "item": {
          "reference": "urn:uuid:8ed3f535-1ef4-4b11-9890-aa5e7cacce98"
        }
      }, {
        "item": {
          "reference": "urn:uuid:3776b2ed-5bbf-4f09-b529-8d82b6f1f602"
        }
      }, {
        "item": {
          "reference": "urn:uuid:a1251be6-a826-4a3f-98ec-5ff026a0d041"
        }
      }, {
        "item": {
          "reference": "urn:uuid:f60998bf-d252-4853-9cab-c5df8c0fedc2"
        }
      }, {
        "item": {
          "reference": "urn:uuid:5af58e92-3eed-4b24-9455-b33e8a48aafd"
        }
      }, {
        "item": {
          "reference": "urn:uuid:caf65ecd-efe9-49ec-b197-f2cc214fb7b7"
        }
      }, {
        "item": {
          "reference": "urn:uuid:dc0e0a41-c3a3-448e-a450-1583e44c6699"
        }
      }, {
        "item": {
          "reference": "urn:uuid:3c1b919e-f89a-454b-8a07-040bb2dd1493"
        }
      }, {
        "item": {
          "reference": "urn:uuid:6c290f6b-c97e-4c52-9626-06eb2ea3b5dc"
        }
      }, {
        "item": {
          "reference": "urn:uuid:c73cc8b4-bbe4-4eb0-8f9e-bae03fac9ab4"
        }
      }, {
        "item": {
          "reference": "urn:uuid:5909d693-2040-4008-b521-c3097713fce0"
        }
      }, {
        "item": {
          "reference": "urn:uuid:9d9721e4-f1e3-4464-9daa-e6fee64f8968"
        }
      }, {
        "item": {
          "reference": "urn:uuid:1bab457a-be52-4a35-b913-a7a9ce71e2f3"
        }
      }, {
        "item": {
          "reference": "urn:uuid:dc08a5d5-0101-403a-b6d8-61f36199e53d"
        }
      }, {
        "item": {
          "reference": "urn:uuid:b7109d07-1857-460e-9097-4f7251ce9ce5"
        }
      }, {
        "item": {
          "reference": "urn:uuid:14ea95ab-1f19-4d74-aecf-a6d7e60e6514"
        }
      }, {
        "item": {
          "reference": "urn:uuid:5f5d6e1c-9032-44ea-a440-3ee68431a862"
        }
      }, {
        "item": {
          "reference": "urn:uuid:0380f1a3-a038-40c6-8109-3fc4d7c2688f"
        }
      }, {
        "item": {
          "reference": "urn:uuid:4dae45f1-30a2-4627-ba2f-e7cdfd07711f"
        }
      }, {
        "item": {
          "reference": "urn:uuid:2c792ded-a935-40d2-a106-d315ba5a0d87"
        }
      }, {
        "item": {
          "reference": "urn:uuid:3ec1bd5c-138f-40ec-b635-59d53a7fbcaa"
        }
      }, {
        "item": {
          "reference": "urn:uuid:9b123f16-e32b-4a65-ad07-8e032e93866f"
        }
      }, {
        "item": {
          "reference": "urn:uuid:1b4675fb-fb1e-41ee-b3a9-d7b76fb3fc6b"
        }
      }, {
        "item": {
          "reference": "urn:uuid:00c417ca-f14f-4f6f-aff1-1eeb401c2714"
        }
      }, {
        "item": {
          "reference": "urn:uuid:be76e3cc-be65-4ab5-a2c9-ca999cc2b5b0"
        }
      }, {
        "item": {
          "reference": "urn:uuid:ffcee43d-6977-40d1-9205-6f4759e7eb4a"
        }
      }, {
        "item": {
          "reference": "urn:uuid:40be54e6-1aa6-4b59-8b9e-e0865d209914"
        }
      }, {
        "item": {
          "reference": "urn:uuid:103e6f25-9663-4fc4-a233-8a0aad02bbb2"
        }
      }, {
        "item": {
          "reference": "urn:uuid:cf3fef74-cb99-4a9d-bb60-21b640257614"
        }
      }, {
        "item": {
          "reference": "urn:uuid:bc83f93e-1602-4da1-8d33-6be51c39c850"
        }
      }, {
        "item": {
          "reference": "urn:uuid:b4a6afa9-0668-4fe2-ac2e-87ba5c80e469"
        }
      }, {
        "item": {
          "reference": "urn:uuid:2fa89271-9110-45ee-b669-f7019f7cea63"
        }
      }, {
        "item": {
          "reference": "urn:uuid:85978c79-68a0-4f11-9b81-0aa4a5e11b94"
        }
      }, {
        "item": {
          "reference": "urn:uuid:1f958af0-4614-4b7b-8d84-1af00677dd18"
        }
      }, {
        "item": {
          "reference": "urn:uuid:6138cd05-45c2-4bc7-acff-100a9d35d20c"
        }
      }, {
        "item": {
          "reference": "urn:uuid:8bdf6b23-5e05-4fa3-b046-8583c5ecbb4c"
        }
      }, {
        "item": {
          "reference": "urn:uuid:aa9e92e5-6858-4f3c-a808-2082cb4f207f"
        }
      }, {
        "item": {
          "reference": "urn:uuid:daea65c6-44e4-4046-add5-249656500712"
        }
      }, {
        "item": {
          "reference": "urn:uuid:1dc9c170-d61a-4226-83fc-06b7dd3c6ed7"
        }
      }, {
        "item": {
          "reference": "urn:uuid:84952655-d7f7-449e-8069-3af58651a599"
        }
      }, {
        "item": {
          "reference": "urn:uuid:c3e6d55a-f40f-4df2-9052-05937369c624"
        }
      }, {
        "item": {
          "reference": "urn:uuid:a82ed365-9c65-4de5-a8d3-e881a8f370e4"
        }
      }, {
        "item": {
          "reference": "urn:uuid:767222f7-b434-45fd-8e01-2ae9f34e2397"
        }
      }, {
        "item": {
          "reference": "urn:uuid:caa330db-63c0-4780-bd60-154e6cc2a383"
        }
      }, {
        "item": {
          "reference": "urn:uuid:33d2ab95-e3f0-4977-923f-269fc54210a7"
        }
      }, {
        "item": {
          "reference": "urn:uuid:1489085f-5fc0-4055-8c83-aa28c9b41aff"
        }
      }, {
        "item": {
          "reference": "urn:uuid:7d31f481-9a80-46a7-80ff-43832c0037dd"
        }
      }, {
        "item": {
          "reference": "urn:uuid:b5b64f18-85d5-48b9-8f5e-838beaf8f78a"
        }
      }, {
        "item": {
          "reference": "urn:uuid:be015510-4e32-4594-beb4-8c1b1a9e3073"
        }
      }, {
        "item": {
          "reference": "urn:uuid:85c987c7-da64-4599-bd0e-817c3f744009"
        }
      }, {
        "item": {
          "reference": "urn:uuid:d9ebbdef-8a1c-4079-9e46-038eb0f41044"
        }
      }, {
        "item": {
          "reference": "urn:uuid:351e41f3-787e-4abc-8b9f-23e6c86eef5d"
        }
      }, {
        "item": {
          "reference": "urn:uuid:659e42dc-4884-4904-b476-0ce43e7aaba2"
        }
      }, {
        "item": {
          "reference": "urn:uuid:b1d10996-8789-46fc-ab4d-854e8bc578c9"
        }
      }, {
        "item": {
          "reference": "urn:uuid:bb18439e-1486-45f1-8bf5-67d419ac7894"
        }
      }, {
        "item": {
          "reference": "urn:uuid:540fc32b-29cc-49d5-84e4-1bd4e5c0646d"
        }
      }, {
        "item": {
          "reference": "urn:uuid:c290a741-4d86-476f-ad16-ff265aafa32e"
        }
      }, {
        "item": {
          "reference": "urn:uuid:d2c2a2ab-3653-48e1-8644-fed79bfe6881"
        }
      }, {
        "item": {
          "reference": "urn:uuid:9b7fadb6-3bdd-4d8a-8b6f-19d628804e25"
        }
      }, {
        "item": {
          "reference": "urn:uuid:201e5373-2385-4b03-afc0-2826f4670e87"
        }
      }, {
        "item": {
          "reference": "urn:uuid:63d43450-e33d-4181-abd6-e00672f1e5e4"
        }
      }, {
        "item": {
          "reference": "urn:uuid:13181130-deb6-4d2d-9af9-7fbb0e459636"
        }
      }, {
        "item": {
          "reference": "urn:uuid:7e2ca7d3-6288-4506-b4a6-0b930bfacda0"
        }
      }, {
        "item": {
          "reference": "urn:uuid:2afd6762-a9ba-4006-965f-c981edc855b6"
        }
      }, {
        "item": {
          "reference": "urn:uuid:1643db1d-d07c-4e4f-96c2-40517a47a62b"
        }
      }, {
        "item": {
          "reference": "urn:uuid:5be834fb-70ed-4c46-9751-f3d4745c50ec"
        }
      }, {
        "item": {
          "reference": "urn:uuid:d21cc2ae-175d-469e-9b65-1fea7b4cf14c"
        }
      }, {
        "item": {
          "reference": "urn:uuid:9d03cf83-b11b-466d-a756-f499af7bf860"
        }
      }, {
        "item": {
          "reference": "urn:uuid:fd12b351-df67-438a-ac72-ccb3d2014586"
        }
      }, {
        "item": {
          "reference": "urn:uuid:9b2d0bf0-dc36-4a70-9ff8-cd782dc8e07e"
        }
      }, {
        "item": {
          "reference": "urn:uuid:ceb0de27-750a-41a6-b9ad-dff304d8cf6e"
        }
      }, {
        "item": {
          "reference": "urn:uuid:a102a15c-65e1-46bd-9d82-9a69e18dfbfb"
        }
      }, {
        "item": {
          "reference": "urn:uuid:5798a99d-40f9-44ad-a0ac-8489f9165bd2"
        }
      }, {
        "item": {
          "reference": "urn:uuid:a131886b-fd7c-424a-ac12-39e37428b4a6"
        }
      }, {
        "item": {
          "reference": "urn:uuid:7182e06f-91a2-418a-8bce-b5e457e0e6f6"
        }
      }, {
        "item": {
          "reference": "urn:uuid:4441ad79-1c2a-4d69-9886-96c7c98426d6"
        }
      }, {
        "item": {
          "reference": "urn:uuid:aed587a5-3c3a-43d5-846e-7ef4d31793fd"
        }
      }, {
        "item": {
          "reference": "urn:uuid:fb8ea63b-fe14-4b88-8ac8-7b4cba81dd73"
        }
      }, {
        "item": {
          "reference": "urn:uuid:567ab332-0e06-49ad-93bb-a22a56f002d6"
        }
      }, {
        "item": {
          "reference": "urn:uuid:6c516507-2537-4594-8d3e-a624756c77bf"
        }
      }, {
        "item": {
          "reference": "urn:uuid:a1abd265-577d-4f6b-8adc-8a23ed436ec7"
        }
      }, {
        "item": {
          "reference": "urn:uuid:04d93954-26f9-430e-9591-c1d52b1a193a"
        }
      }, {
        "item": {
          "reference": "urn:uuid:18cd34f6-3590-455b-92dd-f90c72d14df0"
        }
      }, {
        "item": {
          "reference": "urn:uuid:9a3f2f65-8a32-4a70-9c91-0bacf378a3f6"
        }
      }, {
        "item": {
          "reference": "urn:uuid:bf1bf80f-744a-4a5a-a091-ed85d13e4df5"
        }
      }, {
        "item": {
          "reference": "urn:uuid:d3e3a740-83ef-437e-8bb6-49b647c21b87"
        }
      }, {
        "item": {
          "reference": "urn:uuid:02de21ae-134d-4027-9622-3900f453c287"
        }
      }, {
        "item": {
          "reference": "urn:uuid:6ca7be64-1ca3-4cfe-84b0-bdd3d30d6aa2"
        }
      }, {
        "item": {
          "reference": "urn:uuid:557d482d-7e9b-4e52-867e-e1fcd1f357a5"
        }
      }, {
        "item": {
          "reference": "urn:uuid:6897d213-d65b-4149-9232-485e11930507"
        }
      }, {
        "item": {
          "reference": "urn:uuid:012fa872-fb7e-46c6-9a4b-e79b09b62ba8"
        }
      }, {
        "item": {
          "reference": "urn:uuid:b4f2bbf8-d795-4256-bdb8-4e170f4e3b81"
        }
      }, {
        "item": {
          "reference": "urn:uuid:122b4cc5-1a3d-4763-9fe9-9a84489d9bd8"
        }
      }, {
        "item": {
          "reference": "urn:uuid:3d25ff9c-325e-4e21-b094-744c3e9c67c4"
        }
      }, {
        "item": {
          "reference": "urn:uuid:c038d41a-c0e0-4310-8d0c-028809a967de"
        }
      }, {
        "item": {
          "reference": "urn:uuid:9ec86a40-ae55-420a-8f7c-45acee3dc6e3"
        }
      }, {
        "item": {
          "reference": "urn:uuid:ca0a8bdc-cf42-4c51-b63b-dc74949960fa"
        }
      }, {
        "item": {
          "reference": "urn:uuid:0b6d9f69-76da-467a-a64c-751f446bee79"
        }
      }, {
        "item": {
          "reference": "urn:uuid:c1d2feea-0499-4e4e-aaa8-55683c13393f"
        }
      }, {
        "item": {
          "reference": "urn:uuid:bf23693d-ad7e-4a23-844e-f5b667b2889f"
        }
      }, {
        "item": {
          "reference": "urn:uuid:88a80df0-d60f-49b4-a1b1-31d5c393019b"
        }
      }, {
        "item": {
          "reference": "urn:uuid:7069acca-8176-4ce9-adc4-b9c4a053b23d"
        }
      }, {
        "item": {
          "reference": "urn:uuid:fa641df8-def3-490e-a197-6015ab49d09b"
        }
      }, {
        "item": {
          "reference": "urn:uuid:98703fe1-ccb1-4bc9-b2ea-8c7704efdbeb"
        }
      }, {
        "item": {
          "reference": "urn:uuid:d40f598f-f3f7-41a2-8f30-50d5d3cb80ac"
        }
      }, {
        "item": {
          "reference": "urn:uuid:f6e0b87d-0ec7-42f6-866a-f6b89321bd03"
        }
      }, {
        "item": {
          "reference": "urn:uuid:28b9fbd4-6489-42ff-972f-ecb70684dfaa"
        }
      }, {
        "item": {
          "reference": "urn:uuid:941ba47d-9e1c-4c7b-a286-8b5cb63e6334"
        }
      }, {
        "item": {
          "reference": "urn:uuid:477d4591-5a55-4bb5-af7a-569e42513083"
        }
      }, {
        "item": {
          "reference": "urn:uuid:e159762f-ef73-4cb5-ad41-d577b799e609"
        }
      }, {
        "item": {
          "reference": "urn:uuid:a716443e-693b-4575-9966-f9082e49ad16"
        }
      }, {
        "item": {
          "reference": "urn:uuid:5ea36198-c254-47fc-bbec-52db72bf1e64"
        }
      }, {
        "item": {
          "reference": "urn:uuid:dc85c877-635b-46ef-95b2-a2b3910f1d45"
        }
      }, {
        "item": {
          "reference": "urn:uuid:113194cd-34df-4892-adea-8edf297ea67c"
        }
      }, {
        "item": {
          "reference": "urn:uuid:02dd3dfb-ac56-4746-947c-319ec9007e3e"
        }
      }, {
        "item": {
          "reference": "urn:uuid:07dbc8a9-62f6-40c5-b326-e70529ac17e1"
        }
      }, {
        "item": {
          "reference": "urn:uuid:7bc02e68-a3b0-44b4-8b41-91e9ca26dde4"
        }
      }, {
        "item": {
          "reference": "urn:uuid:55767387-ffbd-45dc-93bc-3b6dc03aadb7"
        }
      }, {
        "item": {
          "reference": "urn:uuid:4b6bc6f0-006d-4870-9de4-731683c176f2"
        }
      }, {
        "item": {
          "reference": "urn:uuid:83b2ba14-0d65-44ef-ab69-3b5a3de1623f"
        }
      }, {
        "item": {
          "reference": "urn:uuid:a45938e7-6f72-42a4-822a-3430ffebaab3"
        }
      }, {
        "item": {
          "reference": "urn:uuid:55810573-7d59-43b4-b618-6de6760557be"
        }
      }, {
        "item": {
          "reference": "urn:uuid:25ed9bbe-83ee-4fbc-8d9c-030622102618"
        }
      }, {
        "item": {
          "reference": "urn:uuid:9a45df1d-0559-4f4d-91cd-ada9866f6c7b"
        }
      }, {
        "item": {
          "reference": "urn:uuid:ad8cb2a1-5d09-4057-bc69-6d7525323a58"
        }
      }, {
        "item": {
          "reference": "urn:uuid:bee0ad57-684b-4b45-a361-bcde21b669ca"
        }
      }, {
        "item": {
          "reference": "urn:uuid:b8d82a20-335d-4215-9a5a-e5f2afe9c61e"
        }
      }, {
        "item": {
          "reference": "urn:uuid:0cd765a5-0f85-4216-a00c-56e59335bb8b"
        }
      }, {
        "item": {
          "reference": "urn:uuid:16019ccc-e56f-4c93-8dbf-3fe7de36c0fc"
        }
      }, {
        "item": {
          "reference": "urn:uuid:b640d243-e303-4944-a688-a5a090248157"
        }
      }, {
        "item": {
          "reference": "urn:uuid:252583a9-025d-4770-885e-0c518a8191d3"
        }
      }, {
        "item": {
          "reference": "urn:uuid:c98e12a7-d8f9-454a-8ffd-8cc9efc0bb41"
        }
      }, {
        "item": {
          "reference": "urn:uuid:2dcb6bc1-e63b-48f3-9b0e-237b9d513ebf"
        }
      }, {
        "item": {
          "reference": "urn:uuid:c87deaa2-2342-4388-a41c-0ea393dcd1d3"
        }
      }, {
        "item": {
          "reference": "urn:uuid:a90f378d-5980-4e7e-a713-a07c9b91ab66"
        }
      }, {
        "item": {
          "reference": "urn:uuid:d046296a-4b5a-4189-826a-c489b6073c4e"
        }
      }, {
        "item": {
          "reference": "urn:uuid:08a64782-3b78-482a-bf46-8101a724bba6"
        }
      }, {
        "item": {
          "reference": "urn:uuid:6190a374-a9e7-42b1-8f85-460d705177e7"
        }
      }, {
        "item": {
          "reference": "urn:uuid:5a765710-e882-470e-9117-4193490cb9a5"
        }
      }, {
        "item": {
          "reference": "urn:uuid:d32ff0f5-09a1-410f-9f53-4947f52d3d8c"
        }
      }, {
        "item": {
          "reference": "urn:uuid:9664ec6f-676e-4125-bfa7-dac263016684"
        }
      }, {
        "item": {
          "reference": "urn:uuid:fe7f70c7-b86c-482d-87eb-b4b963a82e42"
        }
      }, {
        "item": {
          "reference": "urn:uuid:1a4cab16-62f4-4a34-9dae-46766279317c"
        }
      }, {
        "item": {
          "reference": "urn:uuid:b9a0efb1-0a6a-4e6f-aad4-061eecf70b13"
        }
      }, {
        "item": {
          "reference": "urn:uuid:a1649b2a-8128-4352-846c-9fd19b95b1bc"
        }
      } ]
    }
  } ]
}