{
  "resourceType": "Bundle",
  "meta": {
    "lastUpdated": "2022-05-12T07:25:17.217+00:00"
  },
  "identifier": {
    "type": {
      "text": "ClinicalDocument VersionNumber"
    },
    "value": "1"
  },
  "type": "message",
  "entry": [ {
    "fullUrl": "urn:uuid:2F182787-CA39-46F8-9B1C-8E77F3050067",
    "resource": {
      "resourceType": "MessageHeader",
      "id": "2F182787-CA39-46F8-9B1C-8E77F3050067",
      "event": {
        "system": "https://fhir.nhs.uk/STU3/CodeSystem/EventType-1",
        "code": "referral-1",
        "display": "Referral"
      },
      "destination": [ {
        "endpoint": "urn:nhs-uk:addressing:ods:FDH68RPX:DOSServiceID:2000038407"
      } ],
      "timestamp": "2021-04-06T11:29:27.000+00:00",
      "source": {
        "name": "NHS 111 Adaptor",
        "endpoint": "http://localhost:8080/report"
      },
      "reason": {
        "coding": [ {
          "system": "urn:nhs-itk:ns:201005:interaction",
          "code": "urn:nhs-itk:interaction:primaryOutofHourRecipientNHS111CDADocument-v2-0"
        } ]
      }
    }
  }, {
    "fullUrl": "urn:uuid:12062f4b-24ee-44cd-b535-b3e3545417dd",
    "resource": {
      "resourceType": "Encounter",
      "id": "12062f4b-24ee-44cd-b535-b3e3545417dd",
      "identifier": [ {
        "system": "2.16.840.1.113883.2.1.3.2.4.18.34",
        "value": "CAC4BF79-AF64-47E2-8162-53438279E2F9"
      }, {
        "system": "2.16.840.1.113883.2.1.3.2.4.18.35",
        "value": "59263"
      }, {
        "system": "2.16.840.1.113883.2.1.3.2.4.18.49",
        "value": "CAC4BF79-AF64-47E2-8162-53438279E2F9"
      } ],
      "status": "finished",
      "type": [ {
        "text": "111 Encounter Referral"
      } ],
      "subject": {
        "reference": "urn:uuid:d409cab5-03af-4f77-9a7a-f8397786eee9"
      },
      "participant": [ {
        "type": [ {
          "coding": [ {
            "system": "http://hl7.org/fhir/ValueSet/encounter-participant-type",
            "code": "PPRF",
            "display": "Author"
          } ]
        } ],
        "individual": {
          "reference": "urn:uuid:d8122d98-187b-499f-aa6c-ac0c929e51c7"
        }
      }, {
        "type": [ {
          "text": "Informant"
        } ],
        "individual": {
          "reference": "urn:uuid:720c401d-a380-4c08-8e4d-fe83edb43161"
        }
      }, {
        "type": [ {
          "coding": [ {
            "system": "http://hl7.org/fhir/ValueSet/encounter-participant-type",
            "code": "ATND",
            "display": "Responsible Party"
          } ]
        } ],
        "individual": {
          "reference": "urn:uuid:53a38701-2712-40cc-b3b2-2e21fafc6df4"
        }
      } ],
      "period": {
        "start": "2021-04-06T11:21:50+00:00",
        "end": "2021-04-06T11:29:25+00:00"
      },
      "location": [ {
        "location": {
          "reference": "urn:uuid:7e40c853-7b4b-4f88-939f-e1991e239973"
        },
        "status": "completed"
      } ],
      "serviceProvider": {
        "reference": "urn:uuid:ecaab0a3-43fc-4b93-9b14-09498b6d69dd"
      }
    }
  }, {
    "fullUrl": "urn:uuid:ecaab0a3-43fc-4b93-9b14-09498b6d69dd",
    "resource": {
      "resourceType": "Organization",
      "id": "ecaab0a3-43fc-4b93-9b14-09498b6d69dd",
      "active": true,
      "type": [ {
        "text": "CST"
      } ],
      "name": "SCAS111"
    }
  }, {
    "fullUrl": "urn:uuid:d8122d98-187b-499f-aa6c-ac0c929e51c7",
    "resource": {
      "resourceType": "Practitioner",
      "id": "d8122d98-187b-499f-aa6c-ac0c929e51c7",
      "active": true,
      "name": [ {
        "use": "official",
        "family": "Hadfield",
        "given": [ "Ryan" ]
      } ]
    }
  }, {
    "fullUrl": "urn:uuid:720c401d-a380-4c08-8e4d-fe83edb43161",
    "resource": {
      "resourceType": "RelatedPerson",
      "id": "720c401d-a380-4c08-8e4d-fe83edb43161",
      "active": true,
      "patient": {
        "reference": "urn:uuid:d409cab5-03af-4f77-9a7a-f8397786eee9"
      },
      "relationship": {
        "coding": [ {
          "system": "2.16.840.1.113883.2.1.3.2.4.16.45",
          "code": "99",
          "display": "Not specified"
        } ]
      },
      "name": [ {
        "text": "Test Caller (Carer - Home)"
      } ],
      "telecom": [ {
        "system": "phone",
        "value": "tel:07777888888",
        "use": "home"
      } ],
      "gender": "unknown"
    }
  }, {
    "fullUrl": "urn:uuid:53a38701-2712-40cc-b3b2-2e21fafc6df4",
    "resource": {
      "resourceType": "Practitioner",
      "id": "53a38701-2712-40cc-b3b2-2e21fafc6df4",
      "active": true,
      "name": [ {
        "use": "official",
        "family": "Black",
        "given": [ "John" ]
      } ]
    }
  }, {
    "fullUrl": "urn:uuid:7e40c853-7b4b-4f88-939f-e1991e239973",
    "resource": {
      "resourceType": "Location",
      "id": "7e40c853-7b4b-4f88-939f-e1991e239973",
      "name": "Incident Location",
      "address": {
        "type": "physical",
        "line": [ "12A", "Otter Close", "Bishopstoke", "Eastleigh", "Hampshire" ],
        "postalCode": "SO50 8NF"
      }
    }
  }, {
    "fullUrl": "urn:uuid:d409cab5-03af-4f77-9a7a-f8397786eee9",
    "resource": {
      "resourceType": "Patient",
      "id": "d409cab5-03af-4f77-9a7a-f8397786eee9",
      "identifier": [ {
        "extension": [ {
          "url": "https://fhir.hl7.org.uk/STU3/StructureDefinition/Extension-CareConnect-NHSNumberVerificationStatus-1",
          "valueCodeableConcept": {
            "coding": [ {
              "system": "https://fhir.hl7.org.uk/STU3/StructureDefinition/Extension-CareConnect-NHSNumberVerificationStatus-1",
              "code": "02"
            } ]
          }
        } ],
        "system": "https://fhir.nhs.uk/Id/nhs-number",
        "value": "0000000000"
      } ],
      "active": true,
      "name": [ {
        "use": "official",
        "family": "Testone",
        "given": [ "Test" ]
      } ],
      "telecom": [ {
        "system": "phone",
        "value": "tel:000000000000",
        "use": "home"
      }, {
        "system": "phone",
        "value": "tel:01111111111",
        "use": "mobile"
      }, {
        "system": "phone",
        "value": "tel:000000000000"
      } ],
      "gender": "female",
      "birthDate": "1980-01-01",
      "address": [ {
        "use": "home",
        "line": [ "Southern House", "Sparrowgrove", "Otterbourne", "Winchester", "Hampshire" ],
        "postalCode": "SO21 2RU"
      }, {
        "type": "physical",
        "line": [ "12A", "Otter Close", "Bishopstoke", "Eastleigh", "Hampshire" ],
        "postalCode": "SO50 8NF"
      } ]
    }
  }, {
    "fullUrl": "urn:uuid:0a63f053-365f-4ba4-9bdb-664914c571be",
    "resource": {
      "resourceType": "HealthcareService",
      "id": "0a63f053-365f-4ba4-9bdb-664914c571be",
      "active": true,
      "providedBy": {
        "reference": "urn:uuid:e303521f-00a5-40ef-9e17-c68c9eb544ab"
      },
      "location": [ {
        "reference": "urn:uuid:7824bfa4-c3a7-4e2a-b6da-ba18e9818819"
      } ],
      "name": "Lloyds Pharmacy, Stokewood Close, Fair Oak, Eastleigh"
    }
  }, {
    "fullUrl": "urn:uuid:7824bfa4-c3a7-4e2a-b6da-ba18e9818819",
    "resource": {
      "resourceType": "Location",
      "id": "7824bfa4-c3a7-4e2a-b6da-ba18e9818819",
      "managingOrganization": {
        "reference": "urn:uuid:e303521f-00a5-40ef-9e17-c68c9eb544ab"
      }
    }
  }, {
    "fullUrl": "urn:uuid:e303521f-00a5-40ef-9e17-c68c9eb544ab",
    "resource": {
      "resourceType": "Organization",
      "id": "e303521f-00a5-40ef-9e17-c68c9eb544ab",
      "identifier": [ {
        "value": "FDH68RPX"
      } ],
      "type": [ {
        "coding": [ {
          "code": "PRCP",
          "display": "Lloyds Pharmacy, Stokewood Close, Fair Oak, Eastleigh"
        } ]
      } ],
      "name": "Lloyds Pharmacy, Stokewood Close, Fair Oak, Eastleigh"
    }
  }, {
    "fullUrl": "urn:uuid:0acdd69a-930d-4352-8458-bf24a9d774f0",
    "resource": {
      "resourceType": "ReferralRequest",
      "id": "0acdd69a-930d-4352-8458-bf24a9d774f0",
      "status": "active",
      "intent": "plan",
      "priority": "routine",
      "subject": {
        "reference": "urn:uuid:d409cab5-03af-4f77-9a7a-f8397786eee9"
      },
      "context": {
        "reference": "urn:uuid:12062f4b-24ee-44cd-b535-b3e3545417dd"
      },
      "occurrencePeriod": {
        "start": "2021-04-06T11:29:27+00:00"
      },
      "authoredOn": "2021-04-06T11:29:25+00:00",
      "requester": {
        "agent": {
          "reference": "urn:uuid:236dfdc7-db10-43ee-a18a-b04db870c97c"
        },
        "onBehalfOf": {
          "reference": "urn:uuid:ecaab0a3-43fc-4b93-9b14-09498b6d69dd"
        }
      },
      "recipient": [ {
        "reference": "urn:uuid:0a63f053-365f-4ba4-9bdb-664914c571be"
      } ],
      "reasonReference": [ {
        "reference": "urn:uuid:d3b40d51-0b71-4de5-b470-0f905c88337f"
      } ],
      "supportingInfo": [ {
        "reference": "urn:uuid:d9f5f9b4-03cc-4066-8ebf-5a1cf7782dab"
      } ]
    }
  }, {
    "fullUrl": "urn:uuid:d9f5f9b4-03cc-4066-8ebf-5a1cf7782dab",
    "resource": {
      "resourceType": "ProcedureRequest",
      "id": "d9f5f9b4-03cc-4066-8ebf-5a1cf7782dab",
      "status": "active",
      "intent": "plan",
      "priority": "routine",
      "doNotPerform": false,
      "code": {
        "coding": [ {
          "system": "2.16.840.1.113883.2.1.3.2.4.17.325",
          "code": "Dx86",
          "display": "Repeat Prescription required within 12 hours"
        } ]
      },
      "subject": {
        "reference": "urn:uuid:d409cab5-03af-4f77-9a7a-f8397786eee9"
      },
      "occurrencePeriod": {
        "start": "2021-04-06T11:29:27+00:00"
      },
      "reasonReference": [ {
        "reference": "urn:uuid:d3b40d51-0b71-4de5-b470-0f905c88337f"
      } ]
    }
  }, {
    "fullUrl": "urn:uuid:b1b19f04-7c4f-47c4-8be6-beae4699e1a5",
    "resource": {
      "resourceType": "Composition",
      "id": "b1b19f04-7c4f-47c4-8be6-beae4699e1a5",
      "identifier": {
        "use": "usual",
        "value": "B66502CD-A9B4-4F3E-83EB-981F572C2C91"
      },
      "status": "final",
      "type": {
        "coding": [ {
          "system": "http://snomed.info/sct",
          "code": "371531000",
          "display": "Report of clinical encounter (record artifact)"
        } ]
      },
      "subject": {
        "reference": "urn:uuid:d409cab5-03af-4f77-9a7a-f8397786eee9"
      },
      "encounter": {
        "reference": "urn:uuid:12062f4b-24ee-44cd-b535-b3e3545417dd"
      },
      "date": "2021-04-06T11:29:27+00:00",
      "author": [ {
        "reference": "urn:uuid:d8122d98-187b-499f-aa6c-ac0c929e51c7"
      } ],
      "title": "111 Report",
      "confidentiality": "N",
      "section": [ {
        "section": [ {
          "title": "Patient's Reported Condition",
          "text": {
            "status": "generated",
            "div": "<div xmlns=\"http://www.w3.org/1999/xhtml\">&lt;content&gt;test&lt;/content&gt;\n                                                    &lt;br/&gt;</div>"
          }
        }, {
          "title": "Pathways Disposition",
          "text": {
            "status": "generated",
            "div": "<div xmlns=\"http://www.w3.org/1999/xhtml\">Repeat Prescription required within 12 hours (Dx86)                                         &lt;br/&gt;\n                                                    &lt;br/&gt;                                         Selected service: Lloyds Pharmacy, Stokewood Close, Fair Oak, Eastle&lt;br/&gt;</div>"
          }
        }, {
          "title": "Consultation Summary",
          "text": {
            "status": "generated",
            "div": "<div xmlns=\"http://www.w3.org/1999/xhtml\">Prescription request&lt;br/&gt;Not enough medication until surgery opens&lt;br/&gt;No medication available&lt;br/&gt;Next dose due within next 12 hours&lt;br/&gt;</div>"
          }
        }, {
          "title": "Pathways Assessment",
          "text": {
            "status": "generated",
            "div": "<div xmlns=\"http://www.w3.org/1999/xhtml\">Reason for call menu - continued to next list.&lt;br/&gt;A prescription request was the main reason for the contact.&lt;br/&gt;The main reason for the contact was not a new or worsening illness.&lt;br/&gt;The individual did not have enough medication to last until the surgery next opened.&lt;br/&gt;The medication was suitable for repeat prescribing without further consultation.&lt;br/&gt;The individual had no medication available.&lt;br/&gt;The next dose was due within 12 hours.&lt;br/&gt;Instructions given were: The individual needs a repeat prescription.&lt;br/&gt;Directory of Services referral: Lloyds Pharmacy, Stokewood Close, Fair Oak, Eastleigh&lt;br/&gt;</div>"
          }
        }, {
          "title": "Advice Given",
          "text": {
            "status": "generated",
            "div": "<div xmlns=\"http://www.w3.org/1999/xhtml\">IF THE RECOMMENDED TIMEFRAME FALLS OUTSIDE OPENING HOURS: I will arrange for a clinician to speak to the individual.&lt;br/&gt;\n                                                    &lt;br/&gt;</div>"
          }
        }, {
          "title": "Information And Advice Given"
        }, {
          "title": "Disposition",
          "text": {
            "status": "generated",
            "div": "<div xmlns=\"http://www.w3.org/1999/xhtml\">&lt;content&gt;Repeat Prescription required within 12 hours&lt;br/&gt;\n                                                    &lt;/content&gt;\n                                                    &lt;br/&gt;\n                                                    &lt;br/&gt;</div>"
          }
        } ]
      }, {
        "title": "CarePlan",
        "entry": [ {
          "reference": "urn:uuid:483889f3-18d7-4ed7-aeb8-60a19a9045e9"
        } ]
      }, {
        "title": "ReferralRequest",
        "entry": [ {
          "reference": "urn:uuid:0acdd69a-930d-4352-8458-bf24a9d774f0"
        } ]
      }, {
        "title": "QuestionnaireResponse",
        "entry": [ {
          "reference": "urn:uuid:324ad88c-9f61-4184-8034-991b73be4cfb"
        } ]
      }, {
        "title": "QuestionnaireResponse",
        "entry": [ {
          "reference": "urn:uuid:61280337-21d5-431c-9ece-a7115e15e166"
        } ]
      }, {
        "title": "QuestionnaireResponse",
        "entry": [ {
          "reference": "urn:uuid:94a41973-5a32-4904-b37c-c2bc5142b546"
        } ]
      }, {
        "title": "QuestionnaireResponse",
        "entry": [ {
          "reference": "urn:uuid:7c110332-8813-4e0d-9ac1-94c6112bad59"
        } ]
      }, {
        "title": "QuestionnaireResponse",
        "entry": [ {
          "reference": "urn:uuid:47b3dc4e-2307-4722-bc87-c7ad361f2f8c"
        } ]
      }, {
        "title": "QuestionnaireResponse",
        "entry": [ {
          "reference": "urn:uuid:7765a927-ce90-4a55-b638-9e2752b2db76"
        } ]
      }, {
        "title": "QuestionnaireResponse",
        "entry": [ {
          "reference": "urn:uuid:435b89e2-9f16-4ec7-aa5b-014b8908b203"
        } ]
      }, {
        "title": "QuestionnaireResponse",
        "entry": [ {
          "reference": "urn:uuid:af724407-d4e1-401f-bbce-546813b47c94"
        } ]
      }, {
        "title": "QuestionnaireResponse",
        "entry": [ {
          "reference": "urn:uuid:30234a15-1237-4e6e-a9b5-a2055e8b4306"
        } ]
      }, {
        "title": "QuestionnaireResponse",
        "entry": [ {
          "reference": "urn:uuid:d35a2733-9416-4e98-8846-442488e12cc9"
        } ]
      }, {
        "title": "QuestionnaireResponse",
        "entry": [ {
          "reference": "urn:uuid:5a105104-06f0-4b84-8c58-f05f24db9ecb"
        } ]
      }, {
        "title": "QuestionnaireResponse",
        "entry": [ {
          "reference": "urn:uuid:0177de5f-95ac-490a-897d-c906a5a21207"
        } ]
      }, {
        "title": "QuestionnaireResponse",
        "entry": [ {
          "reference": "urn:uuid:b4080d46-bc4b-45d9-9fda-e52b86e96955"
        } ]
      }, {
        "title": "QuestionnaireResponse",
        "entry": [ {
          "reference": "urn:uuid:0846e371-366e-490c-87f8-e92f0d818bd3"
        } ]
      }, {
        "title": "QuestionnaireResponse",
        "entry": [ {
          "reference": "urn:uuid:c94d3362-aac0-4fd9-8dfd-abd32635f96e"
        } ]
      }, {
        "title": "QuestionnaireResponse",
        "entry": [ {
          "reference": "urn:uuid:1d6937b1-162b-4a5c-811d-50052b5d4274"
        } ]
      }, {
        "title": "QuestionnaireResponse",
        "entry": [ {
          "reference": "urn:uuid:dbedf7cd-af43-4312-b726-89b0004ff67b"
        } ]
      }, {
        "title": "QuestionnaireResponse",
        "entry": [ {
          "reference": "urn:uuid:b500da36-5c4e-47b5-9d2c-119355b17b84"
        } ]
      }, {
        "title": "QuestionnaireResponse",
        "entry": [ {
          "reference": "urn:uuid:61844210-b8ca-434b-ae04-32fa522276ef"
        } ]
      }, {
        "title": "QuestionnaireResponse",
        "entry": [ {
          "reference": "urn:uuid:478f3cef-c54e-4f4b-b765-2d9707c7557f"
        } ]
      }, {
        "title": "QuestionnaireResponse",
        "entry": [ {
          "reference": "urn:uuid:bb63fae9-e579-4d89-bf8d-180439d13dff"
        } ]
      }, {
        "title": "QuestionnaireResponse",
        "entry": [ {
          "reference": "urn:uuid:1ea4cb7f-e031-4694-9e99-965f4a7f2f1d"
        } ]
      }, {
        "title": "QuestionnaireResponse",
        "entry": [ {
          "reference": "urn:uuid:119622f5-aab3-4bcc-b397-a0b370e59ccb"
        } ]
      }, {
        "title": "QuestionnaireResponse",
        "entry": [ {
          "reference": "urn:uuid:5569a48c-d9d1-49b6-aa8f-5274a5367997"
        } ]
      }, {
        "title": "QuestionnaireResponse",
        "entry": [ {
          "reference": "urn:uuid:c4a715d3-c606-4ff8-b8ba-285a16b5064c"
        } ]
      }, {
        "title": "QuestionnaireResponse",
        "entry": [ {
          "reference": "urn:uuid:e8ddb7c3-517a-4df7-8869-9e609d771b9d"
        } ]
      }, {
        "title": "QuestionnaireResponse",
        "entry": [ {
          "reference": "urn:uuid:2569c4f8-b8ce-40a3-9a69-7472a5a93e15"
        } ]
      }, {
        "title": "QuestionnaireResponse",
        "entry": [ {
          "reference": "urn:uuid:01cec5dd-6795-499a-9476-186924f44baf"
        } ]
      }, {
        "title": "QuestionnaireResponse",
        "entry": [ {
          "reference": "urn:uuid:0a350313-c3bf-4c15-aafd-8391b8da6638"
        } ]
      }, {
        "title": "QuestionnaireResponse",
        "entry": [ {
          "reference": "urn:uuid:8d0efa5e-2997-4d02-aef3-b0643fd05cc5"
        } ]
      }, {
        "title": "QuestionnaireResponse",
        "entry": [ {
          "reference": "urn:uuid:2bc20a8c-73ee-45bc-8f6c-17f37476f3df"
        } ]
      }, {
        "title": "QuestionnaireResponse",
        "entry": [ {
          "reference": "urn:uuid:618ee4e5-3def-49a3-9a1a-25bcc54a7f31"
        } ]
      }, {
        "title": "QuestionnaireResponse",
        "entry": [ {
          "reference": "urn:uuid:833dd9ea-2d0e-48c8-8285-662a9f2217bd"
        } ]
      }, {
        "title": "QuestionnaireResponse",
        "entry": [ {
          "reference": "urn:uuid:b5086c84-4064-4831-b080-cc7a1fa081ed"
        } ]
      }, {
        "title": "QuestionnaireResponse",
        "entry": [ {
          "reference": "urn:uuid:a77a1d18-6679-4ef2-ba26-4684607a1bb1"
        } ]
      }, {
        "title": "QuestionnaireResponse",
        "entry": [ {
          "reference": "urn:uuid:2061ac02-b663-4298-967c-f33816e921d3"
        } ]
      }, {
        "title": "QuestionnaireResponse",
        "entry": [ {
          "reference": "urn:uuid:6ed0a24a-84d2-432b-94b6-6ef29fee3747"
        } ]
      }, {
        "title": "QuestionnaireResponse",
        "entry": [ {
          "reference": "urn:uuid:4c564079-6662-4910-8755-8e9f3478980a"
        } ]
      }, {
        "title": "QuestionnaireResponse",
        "entry": [ {
          "reference": "urn:uuid:91eef53a-9dea-4767-98d0-fc4c0f9fd592"
        } ]
      }, {
        "title": "QuestionnaireResponse",
        "entry": [ {
          "reference": "urn:uuid:6b7bf680-d9f1-4bd9-8ae1-00f3d05613e3"
        } ]
      }, {
        "title": "QuestionnaireResponse",
        "entry": [ {
          "reference": "urn:uuid:be613581-e19f-4472-b0b5-3a56d48b93c7"
        } ]
      }, {
        "title": "QuestionnaireResponse",
        "entry": [ {
          "reference": "urn:uuid:83f7cefd-5aa2-4f07-93d9-cb3c0eff9005"
        } ]
      }, {
        "title": "QuestionnaireResponse",
        "entry": [ {
          "reference": "urn:uuid:3925d092-fd5a-402e-a7eb-aadbeef7b7b4"
        } ]
      }, {
        "title": "QuestionnaireResponse",
        "entry": [ {
          "reference": "urn:uuid:b35c0fa6-70fa-42f3-a461-cc1be9845d1d"
        } ]
      }, {
        "title": "QuestionnaireResponse",
        "entry": [ {
          "reference": "urn:uuid:e7455f1a-1ba3-4af4-99e4-9e6cc7101ff5"
        } ]
      }, {
        "title": "QuestionnaireResponse",
        "entry": [ {
          "reference": "urn:uuid:f62b8131-3048-4b89-afc6-282ce631a185"
        } ]
      }, {
        "title": "QuestionnaireResponse",
        "entry": [ {
          "reference": "urn:uuid:e7c1f5af-90e8-47c7-8345-42d22cff3344"
        } ]
      }, {
        "title": "QuestionnaireResponse",
        "entry": [ {
          "reference": "urn:uuid:6fbe1818-d5b4-4f93-8646-3dda94841b19"
        } ]
      }, {
        "title": "QuestionnaireResponse",
        "entry": [ {
          "reference": "urn:uuid:6b5a511c-dd33-4af9-a4b2-a8c713142300"
        } ]
      }, {
        "title": "QuestionnaireResponse",
        "entry": [ {
          "reference": "urn:uuid:aad18035-f061-4dda-88e3-3b8e89095b78"
        } ]
      }, {
        "title": "QuestionnaireResponse",
        "entry": [ {
          "reference": "urn:uuid:b9ea7fd7-99a8-4da4-a8ef-1da2fa6e2eec"
        } ]
      }, {
        "title": "QuestionnaireResponse",
        "entry": [ {
          "reference": "urn:uuid:823cdad8-527c-4c40-b9e9-93a59c14c6b1"
        } ]
      }, {
        "title": "QuestionnaireResponse",
        "entry": [ {
          "reference": "urn:uuid:ee08f372-1670-4dcb-8232-acb7d689c312"
        } ]
      }, {
        "title": "QuestionnaireResponse",
        "entry": [ {
          "reference": "urn:uuid:d679f4a3-a86a-4430-a4eb-b6b6dcf9c0a8"
        } ]
      }, {
        "title": "QuestionnaireResponse",
        "entry": [ {
          "reference": "urn:uuid:6bebd884-6707-4dde-92c0-cc67f63ad868"
        } ]
      }, {
        "title": "QuestionnaireResponse",
        "entry": [ {
          "reference": "urn:uuid:643ac296-2779-4a53-81e9-85f3d4ba33ce"
        } ]
      }, {
        "title": "QuestionnaireResponse",
        "entry": [ {
          "reference": "urn:uuid:26945ca5-117b-410b-83f4-abd9a349145a"
        } ]
      }, {
        "title": "QuestionnaireResponse",
        "entry": [ {
          "reference": "urn:uuid:978ddf2d-d867-4c49-8da2-4e823a7c5664"
        } ]
      }, {
        "title": "QuestionnaireResponse",
        "entry": [ {
          "reference": "urn:uuid:80b3751b-3af0-476e-95b3-ed5273270c99"
        } ]
      }, {
        "title": "QuestionnaireResponse",
        "entry": [ {
          "reference": "urn:uuid:4df657ed-ba5f-4aef-b447-b9b395a199f5"
        } ]
      }, {
        "title": "QuestionnaireResponse",
        "entry": [ {
          "reference": "urn:uuid:fee8bf3e-6736-4387-bee3-22dc2e19fa2b"
        } ]
      } ]
    }
  }, {
    "fullUrl": "urn:uuid:483889f3-18d7-4ed7-aeb8-60a19a9045e9",
    "resource": {
      "resourceType": "CarePlan",
      "id": "483889f3-18d7-4ed7-aeb8-60a19a9045e9",
      "status": "completed",
      "intent": "plan",
      "title": "Information And Advice Given",
      "subject": {
        "reference": "urn:uuid:d409cab5-03af-4f77-9a7a-f8397786eee9"
      },
      "context": {
        "reference": "urn:uuid:12062f4b-24ee-44cd-b535-b3e3545417dd"
      },
      "period": {
        "start": "2021-04-06T11:21:50+00:00",
        "end": "2021-04-06T11:29:25+00:00"
      },
      "addresses": [ {
        "reference": "urn:uuid:d3b40d51-0b71-4de5-b470-0f905c88337f"
      } ]
    }
  }, {
    "fullUrl": "urn:uuid:8d4abe44-1458-4724-9a0d-cedc11895f0f",
    "resource": {
      "resourceType": "Consent",
      "id": "8d4abe44-1458-4724-9a0d-cedc11895f0f",
      "identifier": {
        "use": "usual",
        "value": "B66502CD-A9B4-4F3E-83EB-981F572C2C91"
      },
      "status": "active",
      "patient": {
        "reference": "urn:uuid:d409cab5-03af-4f77-9a7a-f8397786eee9"
      },
      "period": {
        "start": "2021-04-06T11:21:50+00:00",
        "end": "2021-04-06T11:29:25+00:00"
      },
      "consentingParty": [ {
        "reference": "urn:uuid:d409cab5-03af-4f77-9a7a-f8397786eee9"
      } ],
      "action": [ {
        "coding": [ {
          "system": "http://snomed.info/sct",
          "code": "425691002",
          "display": "Consent given for electronic record sharing"
        } ],
        "text": "Consent given for electronic record sharing"
      } ],
      "organization": [ {
        "reference": "urn:uuid:ecaab0a3-43fc-4b93-9b14-09498b6d69dd"
      } ],
      "policyRule": "http://hl7.org/fhir/ConsentPolicy/opt-out",
      "data": [ {
        "meaning": "related",
        "reference": {
          "reference": "urn:uuid:12062f4b-24ee-44cd-b535-b3e3545417dd"
        }
      } ]
    }
  }, {
    "fullUrl": "urn:uuid:d3b40d51-0b71-4de5-b470-0f905c88337f",
    "resource": {
      "resourceType": "Condition",
      "id": "d3b40d51-0b71-4de5-b470-0f905c88337f",
      "clinicalStatus": "active",
      "verificationStatus": "unknown",
      "subject": {
        "reference": "urn:uuid:d409cab5-03af-4f77-9a7a-f8397786eee9"
      },
      "context": {
        "reference": "urn:uuid:12062f4b-24ee-44cd-b535-b3e3545417dd"
      },
      "evidence": [ {
        "detail": [ {
          "reference": "urn:uuid:324ad88c-9f61-4184-8034-991b73be4cfb"
        } ]
      }, {
        "detail": [ {
          "reference": "urn:uuid:61280337-21d5-431c-9ece-a7115e15e166"
        } ]
      }, {
        "detail": [ {
          "reference": "urn:uuid:94a41973-5a32-4904-b37c-c2bc5142b546"
        } ]
      }, {
        "detail": [ {
          "reference": "urn:uuid:7c110332-8813-4e0d-9ac1-94c6112bad59"
        } ]
      }, {
        "detail": [ {
          "reference": "urn:uuid:47b3dc4e-2307-4722-bc87-c7ad361f2f8c"
        } ]
      }, {
        "detail": [ {
          "reference": "urn:uuid:7765a927-ce90-4a55-b638-9e2752b2db76"
        } ]
      }, {
        "detail": [ {
          "reference": "urn:uuid:435b89e2-9f16-4ec7-aa5b-014b8908b203"
        } ]
      }, {
        "detail": [ {
          "reference": "urn:uuid:af724407-d4e1-401f-bbce-546813b47c94"
        } ]
      }, {
        "detail": [ {
          "reference": "urn:uuid:30234a15-1237-4e6e-a9b5-a2055e8b4306"
        } ]
      }, {
        "detail": [ {
          "reference": "urn:uuid:d35a2733-9416-4e98-8846-442488e12cc9"
        } ]
      }, {
        "detail": [ {
          "reference": "urn:uuid:5a105104-06f0-4b84-8c58-f05f24db9ecb"
        } ]
      }, {
        "detail": [ {
          "reference": "urn:uuid:0177de5f-95ac-490a-897d-c906a5a21207"
        } ]
      }, {
        "detail": [ {
          "reference": "urn:uuid:b4080d46-bc4b-45d9-9fda-e52b86e96955"
        } ]
      }, {
        "detail": [ {
          "reference": "urn:uuid:0846e371-366e-490c-87f8-e92f0d818bd3"
        } ]
      }, {
        "detail": [ {
          "reference": "urn:uuid:c94d3362-aac0-4fd9-8dfd-abd32635f96e"
        } ]
      }, {
        "detail": [ {
          "reference": "urn:uuid:1d6937b1-162b-4a5c-811d-50052b5d4274"
        } ]
      }, {
        "detail": [ {
          "reference": "urn:uuid:dbedf7cd-af43-4312-b726-89b0004ff67b"
        } ]
      }, {
        "detail": [ {
          "reference": "urn:uuid:b500da36-5c4e-47b5-9d2c-119355b17b84"
        } ]
      }, {
        "detail": [ {
          "reference": "urn:uuid:61844210-b8ca-434b-ae04-32fa522276ef"
        } ]
      }, {
        "detail": [ {
          "reference": "urn:uuid:478f3cef-c54e-4f4b-b765-2d9707c7557f"
        } ]
      }, {
        "detail": [ {
          "reference": "urn:uuid:bb63fae9-e579-4d89-bf8d-180439d13dff"
        } ]
      }, {
        "detail": [ {
          "reference": "urn:uuid:1ea4cb7f-e031-4694-9e99-965f4a7f2f1d"
        } ]
      }, {
        "detail": [ {
          "reference": "urn:uuid:119622f5-aab3-4bcc-b397-a0b370e59ccb"
        } ]
      }, {
        "detail": [ {
          "reference": "urn:uuid:5569a48c-d9d1-49b6-aa8f-5274a5367997"
        } ]
      }, {
        "detail": [ {
          "reference": "urn:uuid:c4a715d3-c606-4ff8-b8ba-285a16b5064c"
        } ]
      }, {
        "detail": [ {
          "reference": "urn:uuid:e8ddb7c3-517a-4df7-8869-9e609d771b9d"
        } ]
      }, {
        "detail": [ {
          "reference": "urn:uuid:2569c4f8-b8ce-40a3-9a69-7472a5a93e15"
        } ]
      }, {
        "detail": [ {
          "reference": "urn:uuid:01cec5dd-6795-499a-9476-186924f44baf"
        } ]
      }, {
        "detail": [ {
          "reference": "urn:uuid:0a350313-c3bf-4c15-aafd-8391b8da6638"
        } ]
      }, {
        "detail": [ {
          "reference": "urn:uuid:8d0efa5e-2997-4d02-aef3-b0643fd05cc5"
        } ]
      }, {
        "detail": [ {
          "reference": "urn:uuid:2bc20a8c-73ee-45bc-8f6c-17f37476f3df"
        } ]
      }, {
        "detail": [ {
          "reference": "urn:uuid:618ee4e5-3def-49a3-9a1a-25bcc54a7f31"
        } ]
      }, {
        "detail": [ {
          "reference": "urn:uuid:833dd9ea-2d0e-48c8-8285-662a9f2217bd"
        } ]
      }, {
        "detail": [ {
          "reference": "urn:uuid:b5086c84-4064-4831-b080-cc7a1fa081ed"
        } ]
      }, {
        "detail": [ {
          "reference": "urn:uuid:a77a1d18-6679-4ef2-ba26-4684607a1bb1"
        } ]
      }, {
        "detail": [ {
          "reference": "urn:uuid:2061ac02-b663-4298-967c-f33816e921d3"
        } ]
      }, {
        "detail": [ {
          "reference": "urn:uuid:6ed0a24a-84d2-432b-94b6-6ef29fee3747"
        } ]
      }, {
        "detail": [ {
          "reference": "urn:uuid:4c564079-6662-4910-8755-8e9f3478980a"
        } ]
      }, {
        "detail": [ {
          "reference": "urn:uuid:91eef53a-9dea-4767-98d0-fc4c0f9fd592"
        } ]
      }, {
        "detail": [ {
          "reference": "urn:uuid:6b7bf680-d9f1-4bd9-8ae1-00f3d05613e3"
        } ]
      }, {
        "detail": [ {
          "reference": "urn:uuid:be613581-e19f-4472-b0b5-3a56d48b93c7"
        } ]
      }, {
        "detail": [ {
          "reference": "urn:uuid:83f7cefd-5aa2-4f07-93d9-cb3c0eff9005"
        } ]
      }, {
        "detail": [ {
          "reference": "urn:uuid:3925d092-fd5a-402e-a7eb-aadbeef7b7b4"
        } ]
      }, {
        "detail": [ {
          "reference": "urn:uuid:b35c0fa6-70fa-42f3-a461-cc1be9845d1d"
        } ]
      }, {
        "detail": [ {
          "reference": "urn:uuid:e7455f1a-1ba3-4af4-99e4-9e6cc7101ff5"
        } ]
      }, {
        "detail": [ {
          "reference": "urn:uuid:f62b8131-3048-4b89-afc6-282ce631a185"
        } ]
      }, {
        "detail": [ {
          "reference": "urn:uuid:e7c1f5af-90e8-47c7-8345-42d22cff3344"
        } ]
      }, {
        "detail": [ {
          "reference": "urn:uuid:6fbe1818-d5b4-4f93-8646-3dda94841b19"
        } ]
      }, {
        "detail": [ {
          "reference": "urn:uuid:6b5a511c-dd33-4af9-a4b2-a8c713142300"
        } ]
      }, {
        "detail": [ {
          "reference": "urn:uuid:aad18035-f061-4dda-88e3-3b8e89095b78"
        } ]
      }, {
        "detail": [ {
          "reference": "urn:uuid:b9ea7fd7-99a8-4da4-a8ef-1da2fa6e2eec"
        } ]
      }, {
        "detail": [ {
          "reference": "urn:uuid:823cdad8-527c-4c40-b9e9-93a59c14c6b1"
        } ]
      }, {
        "detail": [ {
          "reference": "urn:uuid:ee08f372-1670-4dcb-8232-acb7d689c312"
        } ]
      }, {
        "detail": [ {
          "reference": "urn:uuid:d679f4a3-a86a-4430-a4eb-b6b6dcf9c0a8"
        } ]
      }, {
        "detail": [ {
          "reference": "urn:uuid:6bebd884-6707-4dde-92c0-cc67f63ad868"
        } ]
      }, {
        "detail": [ {
          "reference": "urn:uuid:643ac296-2779-4a53-81e9-85f3d4ba33ce"
        } ]
      }, {
        "detail": [ {
          "reference": "urn:uuid:26945ca5-117b-410b-83f4-abd9a349145a"
        } ]
      }, {
        "detail": [ {
          "reference": "urn:uuid:978ddf2d-d867-4c49-8da2-4e823a7c5664"
        } ]
      }, {
        "detail": [ {
          "reference": "urn:uuid:80b3751b-3af0-476e-95b3-ed5273270c99"
        } ]
      }, {
        "detail": [ {
          "reference": "urn:uuid:4df657ed-ba5f-4aef-b447-b9b395a199f5"
        } ]
      }, {
        "detail": [ {
          "reference": "urn:uuid:fee8bf3e-6736-4387-bee3-22dc2e19fa2b"
        } ]
      } ]
    }
  }, {
    "fullUrl": "urn:uuid:324ad88c-9f61-4184-8034-991b73be4cfb",
    "resource": {
      "resourceType": "QuestionnaireResponse",
      "id": "324ad88c-9f61-4184-8034-991b73be4cfb",
      "identifier": {
        "value": "59263"
      },
      "questionnaire": {
        "reference": "urn:uuid:159bdacf-11af-48c3-bb05-7bbfc172f9b3"
      },
      "status": "completed",
      "subject": {
        "reference": "urn:uuid:d409cab5-03af-4f77-9a7a-f8397786eee9"
      },
      "context": {
        "reference": "urn:uuid:12062f4b-24ee-44cd-b535-b3e3545417dd"
      },
      "authored": "2021-04-06T11:29:26+00:00",
      "item": [ {
        "linkId": "Tx220074",
        "text": "What is the reason for the contact?",
        "answer": [ {
          "valueString": "an injury or other health problem"
        } ]
      } ]
    }
  }, {
    "fullUrl": "urn:uuid:159bdacf-11af-48c3-bb05-7bbfc172f9b3",
    "resource": {
      "resourceType": "Questionnaire",
      "id": "159bdacf-11af-48c3-bb05-7bbfc172f9b3",
      "identifier": [ {
        "value": "59263"
      } ],
      "version": "2021-04-06T11:29:26.887Z",
      "status": "active",
      "experimental": false,
      "date": "2021-04-06T11:29:26+00:00",
      "publisher": "User ID: 'HADFIELDR' User name: 'Ryan Hadfield' User skill set: 'T3'",
      "lastReviewDate": "2021-04-06",
      "contact": [ {
        "telecom": [ {
          "system": "phone",
          "value": "07777 888888"
        } ]
      } ],
      "subjectType": [ "Patient" ],
      "item": [ {
        "linkId": "59263",
        "prefix": "5",
        "text": "What is the reason for the contact?",
        "type": "choice",
        "required": true,
        "repeats": false,
        "option": [ {
          "valueString": "an injury or other health problem, Selected: true"
        }, {
          "valueString": "labour or childbirth, Selected: false"
        }, {
          "valueString": "a need to access another healthcare service, Selected: false"
        }, {
          "valueString": "a healthcare professional requesting contact with another clinician, Selected: false"
        }, {
          "valueString": "a report of results or tests, Selected: false"
        }, {
          "valueString": "a possible failure of contraception, Selected: false"
        }, {
          "valueString": "more, Selected: false"
        } ]
      } ]
    }
  }, {
    "fullUrl": "urn:uuid:61280337-21d5-431c-9ece-a7115e15e166",
    "resource": {
      "resourceType": "QuestionnaireResponse",
      "id": "61280337-21d5-431c-9ece-a7115e15e166",
      "identifier": {
        "value": "59263"
      },
      "questionnaire": {
        "reference": "urn:uuid:8f5d5858-22ce-47d6-a0d5-adbb2978fa31"
      },
      "status": "completed",
      "subject": {
        "reference": "urn:uuid:d409cab5-03af-4f77-9a7a-f8397786eee9"
      },
      "context": {
        "reference": "urn:uuid:12062f4b-24ee-44cd-b535-b3e3545417dd"
      },
      "authored": "2021-04-06T11:29:26+00:00",
      "item": [ {
        "linkId": "Tx221807",
        "text": "STRING:to'Immediatethreatstolife(SPA/OOHversion)'-'Majorbloodloss'stem",
        "answer": [ {
          "valueString": "\"present\""
        } ]
      } ]
    }
  }, {
    "fullUrl": "urn:uuid:8f5d5858-22ce-47d6-a0d5-adbb2978fa31",
    "resource": {
      "resourceType": "Questionnaire",
      "id": "8f5d5858-22ce-47d6-a0d5-adbb2978fa31",
      "identifier": [ {
        "value": "59263"
      } ],
      "version": "2021-04-06T11:29:26.887Z",
      "status": "active",
      "experimental": false,
      "date": "2021-04-06T11:29:26+00:00",
      "publisher": "User ID: 'HADFIELDR' User name: 'Ryan Hadfield' User skill set: 'T3'",
      "lastReviewDate": "2021-04-06",
      "contact": [ {
        "telecom": [ {
          "system": "phone",
          "value": "07777 888888"
        } ]
      } ],
      "subjectType": [ "Patient" ],
      "item": [ {
        "linkId": "59263",
        "prefix": "200",
        "text": "STRING:to'Immediatethreatstolife(SPA/OOHversion)'-'Majorbloodloss'stem",
        "type": "choice",
        "required": true,
        "repeats": false,
        "option": [ {
          "valueString": "\"present\", Selected: true"
        } ]
      } ]
    }
  }, {
    "fullUrl": "urn:uuid:94a41973-5a32-4904-b37c-c2bc5142b546",
    "resource": {
      "resourceType": "QuestionnaireResponse",
      "id": "94a41973-5a32-4904-b37c-c2bc5142b546",
      "identifier": {
        "value": "59263"
      },
      "questionnaire": {
        "reference": "urn:uuid:96af9c69-0b27-4794-81da-7c0332a856a4"
      },
      "status": "completed",
      "subject": {
        "reference": "urn:uuid:d409cab5-03af-4f77-9a7a-f8397786eee9"
      },
      "context": {
        "reference": "urn:uuid:12062f4b-24ee-44cd-b535-b3e3545417dd"
      },
      "authored": "2021-04-06T11:29:26+00:00"
    }
  }, {
    "fullUrl": "urn:uuid:96af9c69-0b27-4794-81da-7c0332a856a4",
    "resource": {
      "resourceType": "Questionnaire",
      "id": "96af9c69-0b27-4794-81da-7c0332a856a4",
      "identifier": [ {
        "value": "59263"
      } ],
      "version": "2021-04-06T11:29:26.887Z",
      "status": "active",
      "experimental": false,
      "date": "2021-04-06T11:29:26+00:00",
      "publisher": "User ID: 'HADFIELDR' User name: 'Ryan Hadfield' User skill set: 'T3'",
      "lastReviewDate": "2021-04-06",
      "contact": [ {
        "telecom": [ {
          "system": "phone",
          "value": "07777 888888"
        } ]
      } ],
      "subjectType": [ "Patient" ]
    }
  }, {
    "fullUrl": "urn:uuid:7c110332-8813-4e0d-9ac1-94c6112bad59",
    "resource": {
      "resourceType": "QuestionnaireResponse",
      "id": "7c110332-8813-4e0d-9ac1-94c6112bad59",
      "identifier": {
        "value": "59263"
      },
      "questionnaire": {
        "reference": "urn:uuid:562291bb-de8a-42a2-94ce-447989d488f0"
      },
      "status": "completed",
      "subject": {
        "reference": "urn:uuid:d409cab5-03af-4f77-9a7a-f8397786eee9"
      },
      "context": {
        "reference": "urn:uuid:12062f4b-24ee-44cd-b535-b3e3545417dd"
      },
      "authored": "2021-04-06T11:29:26+00:00",
      "item": [ {
        "linkId": "Tx221799",
        "text": "STRING:injury,illnessorlabourestablishedinEntryFlow",
        "answer": [ {
          "valueString": "\"present\""
        } ]
      } ]
    }
  }, {
    "fullUrl": "urn:uuid:562291bb-de8a-42a2-94ce-447989d488f0",
    "resource": {
      "resourceType": "Questionnaire",
      "id": "562291bb-de8a-42a2-94ce-447989d488f0",
      "identifier": [ {
        "value": "59263"
      } ],
      "version": "2021-04-06T11:29:26.887Z",
      "status": "active",
      "experimental": false,
      "date": "2021-04-06T11:29:26+00:00",
      "publisher": "User ID: 'HADFIELDR' User name: 'Ryan Hadfield' User skill set: 'T3'",
      "lastReviewDate": "2021-04-06",
      "contact": [ {
        "telecom": [ {
          "system": "phone",
          "value": "07777 888888"
        } ]
      } ],
      "subjectType": [ "Patient" ],
      "item": [ {
        "linkId": "59263",
        "prefix": "0",
        "text": "STRING:injury,illnessorlabourestablishedinEntryFlow",
        "type": "choice",
        "required": true,
        "repeats": false,
        "option": [ {
          "valueString": "\"present\", Selected: true"
        } ]
      } ]
    }
  }, {
    "fullUrl": "urn:uuid:47b3dc4e-2307-4722-bc87-c7ad361f2f8c",
    "resource": {
      "resourceType": "QuestionnaireResponse",
      "id": "47b3dc4e-2307-4722-bc87-c7ad361f2f8c",
      "identifier": {
        "value": "59263"
      },
      "questionnaire": {
        "reference": "urn:uuid:d4d09f6b-5b30-4ec8-92e6-1a7dd33d9f6e"
      },
      "status": "completed",
      "subject": {
        "reference": "urn:uuid:d409cab5-03af-4f77-9a7a-f8397786eee9"
      },
      "context": {
        "reference": "urn:uuid:12062f4b-24ee-44cd-b535-b3e3545417dd"
      },
      "authored": "2021-04-06T11:29:26+00:00",
      "item": [ {
        "linkId": "Tx224120",
        "text": "Have you been bleeding RED BLOOD very heavily IN THE LAST 2 HOURS?"
      } ]
    }
  }, {
    "fullUrl": "urn:uuid:d4d09f6b-5b30-4ec8-92e6-1a7dd33d9f6e",
    "resource": {
      "resourceType": "Questionnaire",
      "id": "d4d09f6b-5b30-4ec8-92e6-1a7dd33d9f6e",
      "identifier": [ {
        "value": "59263"
      } ],
      "version": "2021-04-06T11:29:26.887Z",
      "status": "active",
      "experimental": false,
      "date": "2021-04-06T11:29:26+00:00",
      "publisher": "User ID: 'HADFIELDR' User name: 'Ryan Hadfield' User skill set: 'T3'",
      "lastReviewDate": "2021-04-06",
      "contact": [ {
        "telecom": [ {
          "system": "phone",
          "value": "07777 888888"
        } ]
      } ],
      "subjectType": [ "Patient" ],
      "item": [ {
        "linkId": "59263",
        "prefix": "10100",
        "text": "Have you been bleeding RED BLOOD very heavily IN THE LAST 2 HOURS?",
        "type": "choice",
        "required": true,
        "repeats": false,
        "option": [ {
          "valueString": "yes, Selected: false"
        }, {
          "valueString": "not sure, Selected: false"
        }, {
          "valueString": "no, Selected: false"
        } ]
      } ]
    }
  }, {
    "fullUrl": "urn:uuid:7765a927-ce90-4a55-b638-9e2752b2db76",
    "resource": {
      "resourceType": "QuestionnaireResponse",
      "id": "7765a927-ce90-4a55-b638-9e2752b2db76",
      "identifier": {
        "value": "59263"
      },
      "questionnaire": {
        "reference": "urn:uuid:ca2e23b7-758a-4913-bc1b-138bf8c5855c"
      },
      "status": "completed",
      "subject": {
        "reference": "urn:uuid:d409cab5-03af-4f77-9a7a-f8397786eee9"
      },
      "context": {
        "reference": "urn:uuid:12062f4b-24ee-44cd-b535-b3e3545417dd"
      },
      "authored": "2021-04-06T11:29:26+00:00",
      "item": [ {
        "linkId": "Tx220074",
        "text": "What is the reason for the contact?",
        "answer": [ {
          "valueString": "more"
        } ]
      } ]
    }
  }, {
    "fullUrl": "urn:uuid:ca2e23b7-758a-4913-bc1b-138bf8c5855c",
    "resource": {
      "resourceType": "Questionnaire",
      "id": "ca2e23b7-758a-4913-bc1b-138bf8c5855c",
      "identifier": [ {
        "value": "59263"
      } ],
      "version": "2021-04-06T11:29:26.887Z",
      "status": "active",
      "experimental": false,
      "date": "2021-04-06T11:29:26+00:00",
      "publisher": "User ID: 'HADFIELDR' User name: 'Ryan Hadfield' User skill set: 'T3'",
      "lastReviewDate": "2021-04-06",
      "contact": [ {
        "telecom": [ {
          "system": "phone",
          "value": "07777 888888"
        } ]
      } ],
      "subjectType": [ "Patient" ],
      "item": [ {
        "linkId": "59263",
        "prefix": "5",
        "text": "What is the reason for the contact?",
        "type": "choice",
        "required": true,
        "repeats": false,
        "option": [ {
          "valueString": "an injury or other health problem, Selected: false"
        }, {
          "valueString": "labour or childbirth, Selected: false"
        }, {
          "valueString": "a need to access another healthcare service, Selected: false"
        }, {
          "valueString": "a healthcare professional requesting contact with another clinician, Selected: false"
        }, {
          "valueString": "a report of results or tests, Selected: false"
        }, {
          "valueString": "a possible failure of contraception, Selected: false"
        }, {
          "valueString": "more, Selected: true"
        } ]
      } ]
    }
  }, {
    "fullUrl": "urn:uuid:435b89e2-9f16-4ec7-aa5b-014b8908b203",
    "resource": {
      "resourceType": "QuestionnaireResponse",
      "id": "435b89e2-9f16-4ec7-aa5b-014b8908b203",
      "identifier": {
        "value": "59263"
      },
      "questionnaire": {
        "reference": "urn:uuid:de7fb818-6eee-4711-9639-d07ac8368c37"
      },
      "status": "completed",
      "subject": {
        "reference": "urn:uuid:d409cab5-03af-4f77-9a7a-f8397786eee9"
      },
      "context": {
        "reference": "urn:uuid:12062f4b-24ee-44cd-b535-b3e3545417dd"
      },
      "authored": "2021-04-06T11:29:26+00:00",
      "item": [ {
        "linkId": "Tx221793",
        "text": "STRING:to'Social&information'-further'Callreason'menu",
        "answer": [ {
          "valueString": "\"present\""
        } ]
      } ]
    }
  }, {
    "fullUrl": "urn:uuid:de7fb818-6eee-4711-9639-d07ac8368c37",
    "resource": {
      "resourceType": "Questionnaire",
      "id": "de7fb818-6eee-4711-9639-d07ac8368c37",
      "identifier": [ {
        "value": "59263"
      } ],
      "version": "2021-04-06T11:29:26.887Z",
      "status": "active",
      "experimental": false,
      "date": "2021-04-06T11:29:26+00:00",
      "publisher": "User ID: 'HADFIELDR' User name: 'Ryan Hadfield' User skill set: 'T3'",
      "lastReviewDate": "2021-04-06",
      "contact": [ {
        "telecom": [ {
          "system": "phone",
          "value": "07777 888888"
        } ]
      } ],
      "subjectType": [ "Patient" ],
      "item": [ {
        "linkId": "59263",
        "prefix": "600",
        "text": "STRING:to'Social&information'-further'Callreason'menu",
        "type": "choice",
        "required": true,
        "repeats": false,
        "option": [ {
          "valueString": "\"present\", Selected: true"
        } ]
      } ]
    }
  }, {
    "fullUrl": "urn:uuid:af724407-d4e1-401f-bbce-546813b47c94",
    "resource": {
      "resourceType": "QuestionnaireResponse",
      "id": "af724407-d4e1-401f-bbce-546813b47c94",
      "identifier": {
        "value": "59263"
      },
      "questionnaire": {
        "reference": "urn:uuid:ba170c7e-a515-4b99-b81a-b1727245300e"
      },
      "status": "completed",
      "subject": {
        "reference": "urn:uuid:d409cab5-03af-4f77-9a7a-f8397786eee9"
      },
      "context": {
        "reference": "urn:uuid:12062f4b-24ee-44cd-b535-b3e3545417dd"
      },
      "authored": "2021-04-06T11:29:26+00:00"
    }
  }, {
    "fullUrl": "urn:uuid:ba170c7e-a515-4b99-b81a-b1727245300e",
    "resource": {
      "resourceType": "Questionnaire",
      "id": "ba170c7e-a515-4b99-b81a-b1727245300e",
      "identifier": [ {
        "value": "59263"
      } ],
      "version": "2021-04-06T11:29:26.887Z",
      "status": "active",
      "experimental": false,
      "date": "2021-04-06T11:29:26+00:00",
      "publisher": "User ID: 'HADFIELDR' User name: 'Ryan Hadfield' User skill set: 'T3'",
      "lastReviewDate": "2021-04-06",
      "contact": [ {
        "telecom": [ {
          "system": "phone",
          "value": "07777 888888"
        } ]
      } ],
      "subjectType": [ "Patient" ]
    }
  }, {
    "fullUrl": "urn:uuid:30234a15-1237-4e6e-a9b5-a2055e8b4306",
    "resource": {
      "resourceType": "QuestionnaireResponse",
      "id": "30234a15-1237-4e6e-a9b5-a2055e8b4306",
      "identifier": {
        "value": "59263"
      },
      "questionnaire": {
        "reference": "urn:uuid:1ba6f43f-7aca-40df-ba16-82dfb8e5d5b8"
      },
      "status": "completed",
      "subject": {
        "reference": "urn:uuid:d409cab5-03af-4f77-9a7a-f8397786eee9"
      },
      "context": {
        "reference": "urn:uuid:12062f4b-24ee-44cd-b535-b3e3545417dd"
      },
      "authored": "2021-04-06T11:29:26+00:00",
      "item": [ {
        "linkId": "Tx221804",
        "text": "STRING:transfertofurthermenuquestionestablishedinEntryFlow",
        "answer": [ {
          "valueString": "\"present\""
        } ]
      } ]
    }
  }, {
    "fullUrl": "urn:uuid:1ba6f43f-7aca-40df-ba16-82dfb8e5d5b8",
    "resource": {
      "resourceType": "Questionnaire",
      "id": "1ba6f43f-7aca-40df-ba16-82dfb8e5d5b8",
      "identifier": [ {
        "value": "59263"
      } ],
      "version": "2021-04-06T11:29:26.887Z",
      "status": "active",
      "experimental": false,
      "date": "2021-04-06T11:29:26+00:00",
      "publisher": "User ID: 'HADFIELDR' User name: 'Ryan Hadfield' User skill set: 'T3'",
      "lastReviewDate": "2021-04-06",
      "contact": [ {
        "telecom": [ {
          "system": "phone",
          "value": "07777 888888"
        } ]
      } ],
      "subjectType": [ "Patient" ],
      "item": [ {
        "linkId": "59263",
        "prefix": "41",
        "text": "STRING:transfertofurthermenuquestionestablishedinEntryFlow",
        "type": "choice",
        "required": true,
        "repeats": false,
        "option": [ {
          "valueString": "\"present\", Selected: true"
        } ]
      } ]
    }
  }, {
    "fullUrl": "urn:uuid:d35a2733-9416-4e98-8846-442488e12cc9",
    "resource": {
      "resourceType": "QuestionnaireResponse",
      "id": "d35a2733-9416-4e98-8846-442488e12cc9",
      "identifier": {
        "value": "59263"
      },
      "questionnaire": {
        "reference": "urn:uuid:a71e4608-872b-47f9-b3e1-b71954069286"
      },
      "status": "completed",
      "subject": {
        "reference": "urn:uuid:d409cab5-03af-4f77-9a7a-f8397786eee9"
      },
      "context": {
        "reference": "urn:uuid:12062f4b-24ee-44cd-b535-b3e3545417dd"
      },
      "authored": "2021-04-06T11:29:26+00:00",
      "item": [ {
        "linkId": "Tx224998",
        "text": "SYSTEM_COVIDLEVEL2",
        "answer": [ {
          "valueString": "==\"covidlevel2\""
        } ]
      } ]
    }
  }, {
    "fullUrl": "urn:uuid:a71e4608-872b-47f9-b3e1-b71954069286",
    "resource": {
      "resourceType": "Questionnaire",
      "id": "a71e4608-872b-47f9-b3e1-b71954069286",
      "identifier": [ {
        "value": "59263"
      } ],
      "version": "2021-04-06T11:29:26.887Z",
      "status": "active",
      "experimental": false,
      "date": "2021-04-06T11:29:26+00:00",
      "publisher": "User ID: 'HADFIELDR' User name: 'Ryan Hadfield' User skill set: 'T3'",
      "lastReviewDate": "2021-04-06",
      "contact": [ {
        "telecom": [ {
          "system": "phone",
          "value": "07777 888888"
        } ]
      } ],
      "subjectType": [ "Patient" ],
      "item": [ {
        "linkId": "59263",
        "prefix": "5900",
        "text": "SYSTEM_COVIDLEVEL2",
        "type": "choice",
        "required": true,
        "repeats": false,
        "option": [ {
          "valueString": "==\"covidlevel2\", Selected: true"
        }, {
          "valueString": "*, Selected: false"
        } ]
      } ]
    }
  }, {
    "fullUrl": "urn:uuid:5a105104-06f0-4b84-8c58-f05f24db9ecb",
    "resource": {
      "resourceType": "QuestionnaireResponse",
      "id": "5a105104-06f0-4b84-8c58-f05f24db9ecb",
      "identifier": {
        "value": "59263"
      },
      "questionnaire": {
        "reference": "urn:uuid:89c927e8-ed63-4555-81de-ffe122a713f6"
      },
      "status": "completed",
      "subject": {
        "reference": "urn:uuid:d409cab5-03af-4f77-9a7a-f8397786eee9"
      },
      "context": {
        "reference": "urn:uuid:12062f4b-24ee-44cd-b535-b3e3545417dd"
      },
      "authored": "2021-04-06T11:29:26+00:00",
      "item": [ {
        "linkId": "Tx225069",
        "text": "What is the reason for the contact?",
        "answer": [ {
          "valueString": "a prescription request"
        } ]
      } ]
    }
  }, {
    "fullUrl": "urn:uuid:89c927e8-ed63-4555-81de-ffe122a713f6",
    "resource": {
      "resourceType": "Questionnaire",
      "id": "89c927e8-ed63-4555-81de-ffe122a713f6",
      "identifier": [ {
        "value": "59263"
      } ],
      "version": "2021-04-06T11:29:26.887Z",
      "status": "active",
      "experimental": false,
      "date": "2021-04-06T11:29:26+00:00",
      "publisher": "User ID: 'HADFIELDR' User name: 'Ryan Hadfield' User skill set: 'T3'",
      "lastReviewDate": "2021-04-06",
      "contact": [ {
        "telecom": [ {
          "system": "phone",
          "value": "07777 888888"
        } ]
      } ],
      "subjectType": [ "Patient" ],
      "item": [ {
        "linkId": "59263",
        "prefix": "6000",
        "text": "What is the reason for the contact?",
        "type": "choice",
        "required": true,
        "repeats": false,
        "option": [ {
          "valueString": "a child protection/vulnerable adult concern (specify), Selected: false"
        }, {
          "valueString": "a social or domestic emergency, Selected: false"
        }, {
          "valueString": "a prescription request, Selected: true"
        }, {
          "valueString": "an appointment request, Selected: false"
        }, {
          "valueString": "a request for health or medication information, Selected: false"
        }, {
          "valueString": "public health alert information, Selected: false"
        } ]
      } ]
    }
  }, {
    "fullUrl": "urn:uuid:0177de5f-95ac-490a-897d-c906a5a21207",
    "resource": {
      "resourceType": "QuestionnaireResponse",
      "id": "0177de5f-95ac-490a-897d-c906a5a21207",
      "identifier": {
        "value": "59263"
      },
      "questionnaire": {
        "reference": "urn:uuid:86de08b1-19aa-4218-8c8e-4382a289e99d"
      },
      "status": "completed",
      "subject": {
        "reference": "urn:uuid:d409cab5-03af-4f77-9a7a-f8397786eee9"
      },
      "context": {
        "reference": "urn:uuid:12062f4b-24ee-44cd-b535-b3e3545417dd"
      },
      "authored": "2021-04-06T11:29:26+00:00",
      "item": [ {
        "linkId": "Tx220957",
        "text": "Is this contact about a new or worsening illness?",
        "answer": [ {
          "valueString": "no"
        } ]
      } ]
    }
  }, {
    "fullUrl": "urn:uuid:86de08b1-19aa-4218-8c8e-4382a289e99d",
    "resource": {
      "resourceType": "Questionnaire",
      "id": "86de08b1-19aa-4218-8c8e-4382a289e99d",
      "identifier": [ {
        "value": "59263"
      } ],
      "version": "2021-04-06T11:29:26.887Z",
      "status": "active",
      "experimental": false,
      "date": "2021-04-06T11:29:26+00:00",
      "publisher": "User ID: 'HADFIELDR' User name: 'Ryan Hadfield' User skill set: 'T3'",
      "lastReviewDate": "2021-04-06",
      "contact": [ {
        "telecom": [ {
          "system": "phone",
          "value": "07777 888888"
        } ]
      } ],
      "subjectType": [ "Patient" ],
      "item": [ {
        "linkId": "59263",
        "prefix": "1400",
        "text": "Is this contact about a new or worsening illness?",
        "type": "choice",
        "required": true,
        "repeats": false,
        "option": [ {
          "valueString": "yes, Selected: false"
        }, {
          "valueString": "not sure, Selected: false"
        }, {
          "valueString": "no, Selected: true"
        } ]
      } ]
    }
  }, {
    "fullUrl": "urn:uuid:b4080d46-bc4b-45d9-9fda-e52b86e96955",
    "resource": {
      "resourceType": "QuestionnaireResponse",
      "id": "b4080d46-bc4b-45d9-9fda-e52b86e96955",
      "identifier": {
        "value": "59263"
      },
      "questionnaire": {
        "reference": "urn:uuid:db1c43db-b3c0-4f3a-b4ef-b4e86d4ff0e3"
      },
      "status": "completed",
      "subject": {
        "reference": "urn:uuid:d409cab5-03af-4f77-9a7a-f8397786eee9"
      },
      "context": {
        "reference": "urn:uuid:12062f4b-24ee-44cd-b535-b3e3545417dd"
      },
      "authored": "2021-04-06T11:29:26+00:00",
      "item": [ {
        "linkId": "Tx221352",
        "text": "Have you got enough medication to last until the surgery opens?",
        "answer": [ {
          "valueString": "no"
        } ]
      } ]
    }
  }, {
    "fullUrl": "urn:uuid:db1c43db-b3c0-4f3a-b4ef-b4e86d4ff0e3",
    "resource": {
      "resourceType": "Questionnaire",
      "id": "db1c43db-b3c0-4f3a-b4ef-b4e86d4ff0e3",
      "identifier": [ {
        "value": "59263"
      } ],
      "version": "2021-04-06T11:29:26.887Z",
      "status": "active",
      "experimental": false,
      "date": "2021-04-06T11:29:26+00:00",
      "publisher": "User ID: 'HADFIELDR' User name: 'Ryan Hadfield' User skill set: 'T3'",
      "lastReviewDate": "2021-04-06",
      "contact": [ {
        "telecom": [ {
          "system": "phone",
          "value": "07777 888888"
        } ]
      } ],
      "subjectType": [ "Patient" ],
      "item": [ {
        "linkId": "59263",
        "prefix": "1500",
        "text": "Have you got enough medication to last until the surgery opens?",
        "type": "choice",
        "required": true,
        "repeats": false,
        "option": [ {
          "valueString": "yes, Selected: false"
        }, {
          "valueString": "not sure, Selected: false"
        }, {
          "valueString": "no, Selected: true"
        } ]
      } ]
    }
  }, {
    "fullUrl": "urn:uuid:0846e371-366e-490c-87f8-e92f0d818bd3",
    "resource": {
      "resourceType": "QuestionnaireResponse",
      "id": "0846e371-366e-490c-87f8-e92f0d818bd3",
      "identifier": {
        "value": "59263"
      },
      "questionnaire": {
        "reference": "urn:uuid:f1071f66-a00f-4471-833f-598db406e667"
      },
      "status": "completed",
      "subject": {
        "reference": "urn:uuid:d409cab5-03af-4f77-9a7a-f8397786eee9"
      },
      "context": {
        "reference": "urn:uuid:12062f4b-24ee-44cd-b535-b3e3545417dd"
      },
      "authored": "2021-04-06T11:29:26+00:00"
    }
  }, {
    "fullUrl": "urn:uuid:f1071f66-a00f-4471-833f-598db406e667",
    "resource": {
      "resourceType": "Questionnaire",
      "id": "f1071f66-a00f-4471-833f-598db406e667",
      "identifier": [ {
        "value": "59263"
      } ],
      "version": "2021-04-06T11:29:26.887Z",
      "status": "active",
      "experimental": false,
      "date": "2021-04-06T11:29:26+00:00",
      "publisher": "User ID: 'HADFIELDR' User name: 'Ryan Hadfield' User skill set: 'T3'",
      "lastReviewDate": "2021-04-06",
      "contact": [ {
        "telecom": [ {
          "system": "phone",
          "value": "07777 888888"
        } ]
      } ],
      "subjectType": [ "Patient" ]
    }
  }, {
    "fullUrl": "urn:uuid:c94d3362-aac0-4fd9-8dfd-abd32635f96e",
    "resource": {
      "resourceType": "QuestionnaireResponse",
      "id": "c94d3362-aac0-4fd9-8dfd-abd32635f96e",
      "identifier": {
        "value": "59263"
      },
      "questionnaire": {
        "reference": "urn:uuid:41653007-d196-4107-b5e4-38bf0af11a1b"
      },
      "status": "completed",
      "subject": {
        "reference": "urn:uuid:d409cab5-03af-4f77-9a7a-f8397786eee9"
      },
      "context": {
        "reference": "urn:uuid:12062f4b-24ee-44cd-b535-b3e3545417dd"
      },
      "authored": "2021-04-06T11:29:26+00:00",
      "item": [ {
        "linkId": "Tx224231",
        "text": "FROM WHAT YOU HAVE HEARD IS A CONSULTATION WITH A PRESCRIBER NEEDED?",
        "answer": [ {
          "valueString": "yes"
        } ]
      } ]
    }
  }, {
    "fullUrl": "urn:uuid:41653007-d196-4107-b5e4-38bf0af11a1b",
    "resource": {
      "resourceType": "Questionnaire",
      "id": "41653007-d196-4107-b5e4-38bf0af11a1b",
      "identifier": [ {
        "value": "59263"
      } ],
      "version": "2021-04-06T11:29:26.887Z",
      "status": "active",
      "experimental": false,
      "date": "2021-04-06T11:29:26+00:00",
      "publisher": "User ID: 'HADFIELDR' User name: 'Ryan Hadfield' User skill set: 'T3'",
      "lastReviewDate": "2021-04-06",
      "contact": [ {
        "telecom": [ {
          "system": "phone",
          "value": "07777 888888"
        } ]
      } ],
      "subjectType": [ "Patient" ],
      "item": [ {
        "linkId": "59263",
        "prefix": "0",
        "text": "FROM WHAT YOU HAVE HEARD IS A CONSULTATION WITH A PRESCRIBER NEEDED?",
        "type": "choice",
        "required": true,
        "repeats": false,
        "option": [ {
          "valueString": "yes, Selected: true"
        }, {
          "valueString": "not sure, Selected: false"
        }, {
          "valueString": "no, Selected: false"
        } ]
      } ]
    }
  }, {
    "fullUrl": "urn:uuid:1d6937b1-162b-4a5c-811d-50052b5d4274",
    "resource": {
      "resourceType": "QuestionnaireResponse",
      "id": "1d6937b1-162b-4a5c-811d-50052b5d4274",
      "identifier": {
        "value": "59263"
      },
      "questionnaire": {
        "reference": "urn:uuid:743ca6d4-699b-4e71-abc8-e6db4fe760d1"
      },
      "status": "completed",
      "subject": {
        "reference": "urn:uuid:d409cab5-03af-4f77-9a7a-f8397786eee9"
      },
      "context": {
        "reference": "urn:uuid:12062f4b-24ee-44cd-b535-b3e3545417dd"
      },
      "authored": "2021-04-06T11:29:26+00:00",
      "item": [ {
        "linkId": "Tx221367",
        "text": "When is the next dose due?",
        "answer": [ {
          "valueString": "within the next 12 hours"
        } ]
      } ]
    }
  }, {
    "fullUrl": "urn:uuid:743ca6d4-699b-4e71-abc8-e6db4fe760d1",
    "resource": {
      "resourceType": "Questionnaire",
      "id": "743ca6d4-699b-4e71-abc8-e6db4fe760d1",
      "identifier": [ {
        "value": "59263"
      } ],
      "version": "2021-04-06T11:29:26.887Z",
      "status": "active",
      "experimental": false,
      "date": "2021-04-06T11:29:26+00:00",
      "publisher": "User ID: 'HADFIELDR' User name: 'Ryan Hadfield' User skill set: 'T3'",
      "lastReviewDate": "2021-04-06",
      "contact": [ {
        "telecom": [ {
          "system": "phone",
          "value": "07777 888888"
        } ]
      } ],
      "subjectType": [ "Patient" ],
      "item": [ {
        "linkId": "59263",
        "prefix": "2900",
        "text": "When is the next dose due?",
        "type": "choice",
        "required": true,
        "repeats": false,
        "option": [ {
          "valueString": "within the next 2 hours, Selected: false"
        }, {
          "valueString": "within the next 6 hours, Selected: false"
        }, {
          "valueString": "within the next 12 hours, Selected: true"
        }, {
          "valueString": "over 12 hours time, Selected: false"
        }, {
          "valueString": "not sure, Selected: false"
        } ]
      } ]
    }
  }, {
    "fullUrl": "urn:uuid:dbedf7cd-af43-4312-b726-89b0004ff67b",
    "resource": {
      "resourceType": "QuestionnaireResponse",
      "id": "dbedf7cd-af43-4312-b726-89b0004ff67b",
      "identifier": {
        "value": "59263"
      },
      "questionnaire": {
        "reference": "urn:uuid:9698f640-f467-4cbc-bc0a-02e892bf1a3a"
      },
      "status": "completed",
      "subject": {
        "reference": "urn:uuid:d409cab5-03af-4f77-9a7a-f8397786eee9"
      },
      "context": {
        "reference": "urn:uuid:12062f4b-24ee-44cd-b535-b3e3545417dd"
      },
      "authored": "2021-04-06T11:29:26+00:00",
      "item": [ {
        "linkId": "Tx221449",
        "text": "STRING:SDPCFullPrimaryCareassessmentandprescribingcapability",
        "answer": [ {
          "valueString": "\"PC full Primary Care assessment and prescribing capability\""
        } ]
      } ]
    }
  }, {
    "fullUrl": "urn:uuid:9698f640-f467-4cbc-bc0a-02e892bf1a3a",
    "resource": {
      "resourceType": "Questionnaire",
      "id": "9698f640-f467-4cbc-bc0a-02e892bf1a3a",
      "identifier": [ {
        "value": "59263"
      } ],
      "version": "2021-04-06T11:29:26.887Z",
      "status": "active",
      "experimental": false,
      "date": "2021-04-06T11:29:26+00:00",
      "publisher": "User ID: 'HADFIELDR' User name: 'Ryan Hadfield' User skill set: 'T3'",
      "lastReviewDate": "2021-04-06",
      "contact": [ {
        "telecom": [ {
          "system": "phone",
          "value": "07777 888888"
        } ]
      } ],
      "subjectType": [ "Patient" ],
      "item": [ {
        "linkId": "59263",
        "prefix": "3000",
        "text": "STRING:SDPCFullPrimaryCareassessmentandprescribingcapability",
        "type": "choice",
        "required": true,
        "repeats": false,
        "option": [ {
          "valueString": "\"PC full Primary Care assessment and prescribing capability\", Selected: true"
        } ]
      } ]
    }
  }, {
    "fullUrl": "urn:uuid:b500da36-5c4e-47b5-9d2c-119355b17b84",
    "resource": {
      "resourceType": "QuestionnaireResponse",
      "id": "b500da36-5c4e-47b5-9d2c-119355b17b84",
      "identifier": {
        "value": "59263"
      },
      "questionnaire": {
        "reference": "urn:uuid:d47f803f-6745-4b98-97ce-58aed5ecaa4d"
      },
      "status": "completed",
      "subject": {
        "reference": "urn:uuid:d409cab5-03af-4f77-9a7a-f8397786eee9"
      },
      "context": {
        "reference": "urn:uuid:12062f4b-24ee-44cd-b535-b3e3545417dd"
      },
      "authored": "2021-04-06T11:29:26+00:00"
    }
  }, {
    "fullUrl": "urn:uuid:d47f803f-6745-4b98-97ce-58aed5ecaa4d",
    "resource": {
      "resourceType": "Questionnaire",
      "id": "d47f803f-6745-4b98-97ce-58aed5ecaa4d",
      "identifier": [ {
        "value": "59263"
      } ],
      "version": "2021-04-06T11:29:26.887Z",
      "status": "active",
      "experimental": false,
      "date": "2021-04-06T11:29:26+00:00",
      "publisher": "User ID: 'HADFIELDR' User name: 'Ryan Hadfield' User skill set: 'T3'",
      "lastReviewDate": "2021-04-06",
      "contact": [ {
        "telecom": [ {
          "system": "phone",
          "value": "07777 888888"
        } ]
      } ],
      "subjectType": [ "Patient" ]
    }
  }, {
    "fullUrl": "urn:uuid:61844210-b8ca-434b-ae04-32fa522276ef",
    "resource": {
      "resourceType": "QuestionnaireResponse",
      "id": "61844210-b8ca-434b-ae04-32fa522276ef",
      "identifier": {
        "value": "59263"
      },
      "questionnaire": {
        "reference": "urn:uuid:663fe2cb-fb66-4ad2-8782-f2ed233e8965"
      },
      "status": "completed",
      "subject": {
        "reference": "urn:uuid:d409cab5-03af-4f77-9a7a-f8397786eee9"
      },
      "context": {
        "reference": "urn:uuid:12062f4b-24ee-44cd-b535-b3e3545417dd"
      },
      "authored": "2021-04-06T11:29:26+00:00",
      "item": [ {
        "linkId": "Tx220074",
        "text": "What is the reason for the contact?",
        "answer": [ {
          "valueString": "an injury or other health problem"
        } ]
      } ]
    }
  }, {
    "fullUrl": "urn:uuid:663fe2cb-fb66-4ad2-8782-f2ed233e8965",
    "resource": {
      "resourceType": "Questionnaire",
      "id": "663fe2cb-fb66-4ad2-8782-f2ed233e8965",
      "identifier": [ {
        "value": "59263"
      } ],
      "version": "2021-04-06T11:29:26.887Z",
      "status": "active",
      "experimental": false,
      "date": "2021-04-06T11:29:26+00:00",
      "publisher": "User ID: 'HADFIELDR' User name: 'Ryan Hadfield' User skill set: 'T3'",
      "lastReviewDate": "2021-04-06",
      "contact": [ {
        "telecom": [ {
          "system": "phone",
          "value": "07777 888888"
        } ]
      } ],
      "subjectType": [ "Patient" ],
      "item": [ {
        "linkId": "59263",
        "prefix": "5",
        "text": "What is the reason for the contact?",
        "type": "choice",
        "required": true,
        "repeats": false,
        "option": [ {
          "valueString": "an injury or other health problem, Selected: true"
        }, {
          "valueString": "labour or childbirth, Selected: false"
        }, {
          "valueString": "a need to access another healthcare service, Selected: false"
        }, {
          "valueString": "a healthcare professional requesting contact with another clinician, Selected: false"
        }, {
          "valueString": "a report of results or tests, Selected: false"
        }, {
          "valueString": "a possible failure of contraception, Selected: false"
        }, {
          "valueString": "more, Selected: false"
        } ]
      } ]
    }
  }, {
    "fullUrl": "urn:uuid:478f3cef-c54e-4f4b-b765-2d9707c7557f",
    "resource": {
      "resourceType": "QuestionnaireResponse",
      "id": "478f3cef-c54e-4f4b-b765-2d9707c7557f",
      "identifier": {
        "value": "59263"
      },
      "questionnaire": {
        "reference": "urn:uuid:e4269638-81f8-4a4e-995e-55feeebffcd2"
      },
      "status": "completed",
      "subject": {
        "reference": "urn:uuid:d409cab5-03af-4f77-9a7a-f8397786eee9"
      },
      "context": {
        "reference": "urn:uuid:12062f4b-24ee-44cd-b535-b3e3545417dd"
      },
      "authored": "2021-04-06T11:29:26+00:00",
      "item": [ {
        "linkId": "Tx221807",
        "text": "STRING:to'Immediatethreatstolife(SPA/OOHversion)'-'Majorbloodloss'stem",
        "answer": [ {
          "valueString": "\"present\""
        } ]
      } ]
    }
  }, {
    "fullUrl": "urn:uuid:e4269638-81f8-4a4e-995e-55feeebffcd2",
    "resource": {
      "resourceType": "Questionnaire",
      "id": "e4269638-81f8-4a4e-995e-55feeebffcd2",
      "identifier": [ {
        "value": "59263"
      } ],
      "version": "2021-04-06T11:29:26.887Z",
      "status": "active",
      "experimental": false,
      "date": "2021-04-06T11:29:26+00:00",
      "publisher": "User ID: 'HADFIELDR' User name: 'Ryan Hadfield' User skill set: 'T3'",
      "lastReviewDate": "2021-04-06",
      "contact": [ {
        "telecom": [ {
          "system": "phone",
          "value": "07777 888888"
        } ]
      } ],
      "subjectType": [ "Patient" ],
      "item": [ {
        "linkId": "59263",
        "prefix": "200",
        "text": "STRING:to'Immediatethreatstolife(SPA/OOHversion)'-'Majorbloodloss'stem",
        "type": "choice",
        "required": true,
        "repeats": false,
        "option": [ {
          "valueString": "\"present\", Selected: true"
        } ]
      } ]
    }
  }, {
    "fullUrl": "urn:uuid:bb63fae9-e579-4d89-bf8d-180439d13dff",
    "resource": {
      "resourceType": "QuestionnaireResponse",
      "id": "bb63fae9-e579-4d89-bf8d-180439d13dff",
      "identifier": {
        "value": "59263"
      },
      "questionnaire": {
        "reference": "urn:uuid:0a3f7bd1-9728-4c94-91be-10aebcdfedf0"
      },
      "status": "completed",
      "subject": {
        "reference": "urn:uuid:d409cab5-03af-4f77-9a7a-f8397786eee9"
      },
      "context": {
        "reference": "urn:uuid:12062f4b-24ee-44cd-b535-b3e3545417dd"
      },
      "authored": "2021-04-06T11:29:26+00:00"
    }
  }, {
    "fullUrl": "urn:uuid:0a3f7bd1-9728-4c94-91be-10aebcdfedf0",
    "resource": {
      "resourceType": "Questionnaire",
      "id": "0a3f7bd1-9728-4c94-91be-10aebcdfedf0",
      "identifier": [ {
        "value": "59263"
      } ],
      "version": "2021-04-06T11:29:26.887Z",
      "status": "active",
      "experimental": false,
      "date": "2021-04-06T11:29:26+00:00",
      "publisher": "User ID: 'HADFIELDR' User name: 'Ryan Hadfield' User skill set: 'T3'",
      "lastReviewDate": "2021-04-06",
      "contact": [ {
        "telecom": [ {
          "system": "phone",
          "value": "07777 888888"
        } ]
      } ],
      "subjectType": [ "Patient" ]
    }
  }, {
    "fullUrl": "urn:uuid:1ea4cb7f-e031-4694-9e99-965f4a7f2f1d",
    "resource": {
      "resourceType": "QuestionnaireResponse",
      "id": "1ea4cb7f-e031-4694-9e99-965f4a7f2f1d",
      "identifier": {
        "value": "59263"
      },
      "questionnaire": {
        "reference": "urn:uuid:9ccbca6b-2ce5-4ecc-aecf-ce667067b3ad"
      },
      "status": "completed",
      "subject": {
        "reference": "urn:uuid:d409cab5-03af-4f77-9a7a-f8397786eee9"
      },
      "context": {
        "reference": "urn:uuid:12062f4b-24ee-44cd-b535-b3e3545417dd"
      },
      "authored": "2021-04-06T11:29:26+00:00",
      "item": [ {
        "linkId": "Tx221799",
        "text": "STRING:injury,illnessorlabourestablishedinEntryFlow",
        "answer": [ {
          "valueString": "\"present\""
        } ]
      } ]
    }
  }, {
    "fullUrl": "urn:uuid:9ccbca6b-2ce5-4ecc-aecf-ce667067b3ad",
    "resource": {
      "resourceType": "Questionnaire",
      "id": "9ccbca6b-2ce5-4ecc-aecf-ce667067b3ad",
      "identifier": [ {
        "value": "59263"
      } ],
      "version": "2021-04-06T11:29:26.887Z",
      "status": "active",
      "experimental": false,
      "date": "2021-04-06T11:29:26+00:00",
      "publisher": "User ID: 'HADFIELDR' User name: 'Ryan Hadfield' User skill set: 'T3'",
      "lastReviewDate": "2021-04-06",
      "contact": [ {
        "telecom": [ {
          "system": "phone",
          "value": "07777 888888"
        } ]
      } ],
      "subjectType": [ "Patient" ],
      "item": [ {
        "linkId": "59263",
        "prefix": "0",
        "text": "STRING:injury,illnessorlabourestablishedinEntryFlow",
        "type": "choice",
        "required": true,
        "repeats": false,
        "option": [ {
          "valueString": "\"present\", Selected: true"
        } ]
      } ]
    }
  }, {
    "fullUrl": "urn:uuid:119622f5-aab3-4bcc-b397-a0b370e59ccb",
    "resource": {
      "resourceType": "QuestionnaireResponse",
      "id": "119622f5-aab3-4bcc-b397-a0b370e59ccb",
      "identifier": {
        "value": "59263"
      },
      "questionnaire": {
        "reference": "urn:uuid:538c44d4-e1a8-4da5-908c-af238e313e87"
      },
      "status": "completed",
      "subject": {
        "reference": "urn:uuid:d409cab5-03af-4f77-9a7a-f8397786eee9"
      },
      "context": {
        "reference": "urn:uuid:12062f4b-24ee-44cd-b535-b3e3545417dd"
      },
      "authored": "2021-04-06T11:29:26+00:00",
      "item": [ {
        "linkId": "Tx224120",
        "text": "Have you been bleeding RED BLOOD very heavily IN THE LAST 2 HOURS?",
        "answer": [ {
          "valueString": "no"
        } ]
      } ]
    }
  }, {
    "fullUrl": "urn:uuid:538c44d4-e1a8-4da5-908c-af238e313e87",
    "resource": {
      "resourceType": "Questionnaire",
      "id": "538c44d4-e1a8-4da5-908c-af238e313e87",
      "identifier": [ {
        "value": "59263"
      } ],
      "version": "2021-04-06T11:29:26.887Z",
      "status": "active",
      "experimental": false,
      "date": "2021-04-06T11:29:26+00:00",
      "publisher": "User ID: 'HADFIELDR' User name: 'Ryan Hadfield' User skill set: 'T3'",
      "lastReviewDate": "2021-04-06",
      "contact": [ {
        "telecom": [ {
          "system": "phone",
          "value": "07777 888888"
        } ]
      } ],
      "subjectType": [ "Patient" ],
      "item": [ {
        "linkId": "59263",
        "prefix": "10100",
        "text": "Have you been bleeding RED BLOOD very heavily IN THE LAST 2 HOURS?",
        "type": "choice",
        "required": true,
        "repeats": false,
        "option": [ {
          "valueString": "yes, Selected: false"
        }, {
          "valueString": "not sure, Selected: false"
        }, {
          "valueString": "no, Selected: true"
        } ]
      } ]
    }
  }, {
    "fullUrl": "urn:uuid:5569a48c-d9d1-49b6-aa8f-5274a5367997",
    "resource": {
      "resourceType": "QuestionnaireResponse",
      "id": "5569a48c-d9d1-49b6-aa8f-5274a5367997",
      "identifier": {
        "value": "59263"
      },
      "questionnaire": {
        "reference": "urn:uuid:99572e60-5cf1-42c0-9705-680a20211880"
      },
      "status": "completed",
      "subject": {
        "reference": "urn:uuid:d409cab5-03af-4f77-9a7a-f8397786eee9"
      },
      "context": {
        "reference": "urn:uuid:12062f4b-24ee-44cd-b535-b3e3545417dd"
      },
      "authored": "2021-04-06T11:29:26+00:00",
      "item": [ {
        "linkId": "Tx221343",
        "text": "SocialConcernsExcluded",
        "answer": [ {
          "valueString": "*"
        } ]
      } ]
    }
  }, {
    "fullUrl": "urn:uuid:99572e60-5cf1-42c0-9705-680a20211880",
    "resource": {
      "resourceType": "Questionnaire",
      "id": "99572e60-5cf1-42c0-9705-680a20211880",
      "identifier": [ {
        "value": "59263"
      } ],
      "version": "2021-04-06T11:29:26.887Z",
      "status": "active",
      "experimental": false,
      "date": "2021-04-06T11:29:26+00:00",
      "publisher": "User ID: 'HADFIELDR' User name: 'Ryan Hadfield' User skill set: 'T3'",
      "lastReviewDate": "2021-04-06",
      "contact": [ {
        "telecom": [ {
          "system": "phone",
          "value": "07777 888888"
        } ]
      } ],
      "subjectType": [ "Patient" ],
      "item": [ {
        "linkId": "59263",
        "prefix": "1100",
        "text": "SocialConcernsExcluded",
        "type": "choice",
        "required": true,
        "repeats": false,
        "option": [ {
          "valueString": "==\"present\", Selected: false"
        }, {
          "valueString": "*, Selected: true"
        } ]
      } ]
    }
  }, {
    "fullUrl": "urn:uuid:c4a715d3-c606-4ff8-b8ba-285a16b5064c",
    "resource": {
      "resourceType": "QuestionnaireResponse",
      "id": "c4a715d3-c606-4ff8-b8ba-285a16b5064c",
      "identifier": {
        "value": "59263"
      },
      "questionnaire": {
        "reference": "urn:uuid:c217d660-eaa9-495e-9de1-a7d0a21c191f"
      },
      "status": "completed",
      "subject": {
        "reference": "urn:uuid:d409cab5-03af-4f77-9a7a-f8397786eee9"
      },
      "context": {
        "reference": "urn:uuid:12062f4b-24ee-44cd-b535-b3e3545417dd"
      },
      "authored": "2021-04-06T11:29:26+00:00",
      "item": [ {
        "linkId": "Tx130011",
        "text": "What is the main problem?"
      } ]
    }
  }, {
    "fullUrl": "urn:uuid:c217d660-eaa9-495e-9de1-a7d0a21c191f",
    "resource": {
      "resourceType": "Questionnaire",
      "id": "c217d660-eaa9-495e-9de1-a7d0a21c191f",
      "identifier": [ {
        "value": "59263"
      } ],
      "version": "2021-04-06T11:29:26.887Z",
      "status": "active",
      "experimental": false,
      "date": "2021-04-06T11:29:26+00:00",
      "publisher": "User ID: 'HADFIELDR' User name: 'Ryan Hadfield' User skill set: 'T3'",
      "lastReviewDate": "2021-04-06",
      "contact": [ {
        "telecom": [ {
          "system": "phone",
          "value": "07777 888888"
        } ]
      } ],
      "subjectType": [ "Patient" ],
      "item": [ {
        "linkId": "59263",
        "prefix": "2300",
        "text": "What is the main problem?",
        "type": "choice",
        "required": true,
        "repeats": false,
        "option": [ {
          "valueString": "the individual has been told to follow a particular course of action (specify), Selected: false"
        }, {
          "valueString": "the individual is an identified frequent caller, Selected: false"
        }, {
          "valueString": "injury (specify), Selected: false"
        }, {
          "valueString": "illness or other health problem (specify), Selected: false"
        }, {
          "valueString": "child protection/vulnerable adult concern, Selected: false"
        }, {
          "valueString": "social or domestic emergency, Selected: false"
        }, {
          "valueString": "the environment potentially poses an immediate threat to life (specify), Selected: false"
        } ]
      } ]
    }
  }, {
    "fullUrl": "urn:uuid:e8ddb7c3-517a-4df7-8869-9e609d771b9d",
    "resource": {
      "resourceType": "QuestionnaireResponse",
      "id": "e8ddb7c3-517a-4df7-8869-9e609d771b9d",
      "identifier": {
        "value": "59263"
      },
      "questionnaire": {
        "reference": "urn:uuid:7bf515da-81a1-4193-971d-68463fb1b66c"
      },
      "status": "completed",
      "subject": {
        "reference": "urn:uuid:d409cab5-03af-4f77-9a7a-f8397786eee9"
      },
      "context": {
        "reference": "urn:uuid:12062f4b-24ee-44cd-b535-b3e3545417dd"
      },
      "authored": "2021-04-06T11:29:26+00:00",
      "item": [ {
        "linkId": "Tx220074",
        "text": "What is the reason for the contact?",
        "answer": [ {
          "valueString": "more"
        } ]
      } ]
    }
  }, {
    "fullUrl": "urn:uuid:7bf515da-81a1-4193-971d-68463fb1b66c",
    "resource": {
      "resourceType": "Questionnaire",
      "id": "7bf515da-81a1-4193-971d-68463fb1b66c",
      "identifier": [ {
        "value": "59263"
      } ],
      "version": "2021-04-06T11:29:26.887Z",
      "status": "active",
      "experimental": false,
      "date": "2021-04-06T11:29:26+00:00",
      "publisher": "User ID: 'HADFIELDR' User name: 'Ryan Hadfield' User skill set: 'T3'",
      "lastReviewDate": "2021-04-06",
      "contact": [ {
        "telecom": [ {
          "system": "phone",
          "value": "07777 888888"
        } ]
      } ],
      "subjectType": [ "Patient" ],
      "item": [ {
        "linkId": "59263",
        "prefix": "5",
        "text": "What is the reason for the contact?",
        "type": "choice",
        "required": true,
        "repeats": false,
        "option": [ {
          "valueString": "an injury or other health problem, Selected: false"
        }, {
          "valueString": "labour or childbirth, Selected: false"
        }, {
          "valueString": "a need to access another healthcare service, Selected: false"
        }, {
          "valueString": "a healthcare professional requesting contact with another clinician, Selected: false"
        }, {
          "valueString": "a report of results or tests, Selected: false"
        }, {
          "valueString": "a possible failure of contraception, Selected: false"
        }, {
          "valueString": "more, Selected: true"
        } ]
      } ]
    }
  }, {
    "fullUrl": "urn:uuid:2569c4f8-b8ce-40a3-9a69-7472a5a93e15",
    "resource": {
      "resourceType": "QuestionnaireResponse",
      "id": "2569c4f8-b8ce-40a3-9a69-7472a5a93e15",
      "identifier": {
        "value": "59263"
      },
      "questionnaire": {
        "reference": "urn:uuid:1f28a08c-9d8f-47e0-bf25-7499e1ed6e6a"
      },
      "status": "completed",
      "subject": {
        "reference": "urn:uuid:d409cab5-03af-4f77-9a7a-f8397786eee9"
      },
      "context": {
        "reference": "urn:uuid:12062f4b-24ee-44cd-b535-b3e3545417dd"
      },
      "authored": "2021-04-06T11:29:26+00:00",
      "item": [ {
        "linkId": "Tx221793",
        "text": "STRING:to'Social&information'-further'Callreason'menu",
        "answer": [ {
          "valueString": "\"present\""
        } ]
      } ]
    }
  }, {
    "fullUrl": "urn:uuid:1f28a08c-9d8f-47e0-bf25-7499e1ed6e6a",
    "resource": {
      "resourceType": "Questionnaire",
      "id": "1f28a08c-9d8f-47e0-bf25-7499e1ed6e6a",
      "identifier": [ {
        "value": "59263"
      } ],
      "version": "2021-04-06T11:29:26.887Z",
      "status": "active",
      "experimental": false,
      "date": "2021-04-06T11:29:26+00:00",
      "publisher": "User ID: 'HADFIELDR' User name: 'Ryan Hadfield' User skill set: 'T3'",
      "lastReviewDate": "2021-04-06",
      "contact": [ {
        "telecom": [ {
          "system": "phone",
          "value": "07777 888888"
        } ]
      } ],
      "subjectType": [ "Patient" ],
      "item": [ {
        "linkId": "59263",
        "prefix": "600",
        "text": "STRING:to'Social&information'-further'Callreason'menu",
        "type": "choice",
        "required": true,
        "repeats": false,
        "option": [ {
          "valueString": "\"present\", Selected: true"
        } ]
      } ]
    }
  }, {
    "fullUrl": "urn:uuid:01cec5dd-6795-499a-9476-186924f44baf",
    "resource": {
      "resourceType": "QuestionnaireResponse",
      "id": "01cec5dd-6795-499a-9476-186924f44baf",
      "identifier": {
        "value": "59263"
      },
      "questionnaire": {
        "reference": "urn:uuid:15a85565-f59d-4fc2-8422-566503cf2295"
      },
      "status": "completed",
      "subject": {
        "reference": "urn:uuid:d409cab5-03af-4f77-9a7a-f8397786eee9"
      },
      "context": {
        "reference": "urn:uuid:12062f4b-24ee-44cd-b535-b3e3545417dd"
      },
      "authored": "2021-04-06T11:29:26+00:00"
    }
  }, {
    "fullUrl": "urn:uuid:15a85565-f59d-4fc2-8422-566503cf2295",
    "resource": {
      "resourceType": "Questionnaire",
      "id": "15a85565-f59d-4fc2-8422-566503cf2295",
      "identifier": [ {
        "value": "59263"
      } ],
      "version": "2021-04-06T11:29:26.887Z",
      "status": "active",
      "experimental": false,
      "date": "2021-04-06T11:29:26+00:00",
      "publisher": "User ID: 'HADFIELDR' User name: 'Ryan Hadfield' User skill set: 'T3'",
      "lastReviewDate": "2021-04-06",
      "contact": [ {
        "telecom": [ {
          "system": "phone",
          "value": "07777 888888"
        } ]
      } ],
      "subjectType": [ "Patient" ]
    }
  }, {
    "fullUrl": "urn:uuid:0a350313-c3bf-4c15-aafd-8391b8da6638",
    "resource": {
      "resourceType": "QuestionnaireResponse",
      "id": "0a350313-c3bf-4c15-aafd-8391b8da6638",
      "identifier": {
        "value": "59263"
      },
      "questionnaire": {
        "reference": "urn:uuid:cd1b791d-bb51-4f43-8058-b062509aff09"
      },
      "status": "completed",
      "subject": {
        "reference": "urn:uuid:d409cab5-03af-4f77-9a7a-f8397786eee9"
      },
      "context": {
        "reference": "urn:uuid:12062f4b-24ee-44cd-b535-b3e3545417dd"
      },
      "authored": "2021-04-06T11:29:26+00:00",
      "item": [ {
        "linkId": "Tx221804",
        "text": "STRING:transfertofurthermenuquestionestablishedinEntryFlow",
        "answer": [ {
          "valueString": "\"present\""
        } ]
      } ]
    }
  }, {
    "fullUrl": "urn:uuid:cd1b791d-bb51-4f43-8058-b062509aff09",
    "resource": {
      "resourceType": "Questionnaire",
      "id": "cd1b791d-bb51-4f43-8058-b062509aff09",
      "identifier": [ {
        "value": "59263"
      } ],
      "version": "2021-04-06T11:29:26.887Z",
      "status": "active",
      "experimental": false,
      "date": "2021-04-06T11:29:26+00:00",
      "publisher": "User ID: 'HADFIELDR' User name: 'Ryan Hadfield' User skill set: 'T3'",
      "lastReviewDate": "2021-04-06",
      "contact": [ {
        "telecom": [ {
          "system": "phone",
          "value": "07777 888888"
        } ]
      } ],
      "subjectType": [ "Patient" ],
      "item": [ {
        "linkId": "59263",
        "prefix": "41",
        "text": "STRING:transfertofurthermenuquestionestablishedinEntryFlow",
        "type": "choice",
        "required": true,
        "repeats": false,
        "option": [ {
          "valueString": "\"present\", Selected: true"
        } ]
      } ]
    }
  }, {
    "fullUrl": "urn:uuid:8d0efa5e-2997-4d02-aef3-b0643fd05cc5",
    "resource": {
      "resourceType": "QuestionnaireResponse",
      "id": "8d0efa5e-2997-4d02-aef3-b0643fd05cc5",
      "identifier": {
        "value": "59263"
      },
      "questionnaire": {
        "reference": "urn:uuid:e29aba3b-3201-4de8-8bf4-25c81625f8ae"
      },
      "status": "completed",
      "subject": {
        "reference": "urn:uuid:d409cab5-03af-4f77-9a7a-f8397786eee9"
      },
      "context": {
        "reference": "urn:uuid:12062f4b-24ee-44cd-b535-b3e3545417dd"
      },
      "authored": "2021-04-06T11:29:26+00:00",
      "item": [ {
        "linkId": "Tx224998",
        "text": "SYSTEM_COVIDLEVEL2",
        "answer": [ {
          "valueString": "==\"covidlevel2\""
        } ]
      } ]
    }
  }, {
    "fullUrl": "urn:uuid:e29aba3b-3201-4de8-8bf4-25c81625f8ae",
    "resource": {
      "resourceType": "Questionnaire",
      "id": "e29aba3b-3201-4de8-8bf4-25c81625f8ae",
      "identifier": [ {
        "value": "59263"
      } ],
      "version": "2021-04-06T11:29:26.887Z",
      "status": "active",
      "experimental": false,
      "date": "2021-04-06T11:29:26+00:00",
      "publisher": "User ID: 'HADFIELDR' User name: 'Ryan Hadfield' User skill set: 'T3'",
      "lastReviewDate": "2021-04-06",
      "contact": [ {
        "telecom": [ {
          "system": "phone",
          "value": "07777 888888"
        } ]
      } ],
      "subjectType": [ "Patient" ],
      "item": [ {
        "linkId": "59263",
        "prefix": "5900",
        "text": "SYSTEM_COVIDLEVEL2",
        "type": "choice",
        "required": true,
        "repeats": false,
        "option": [ {
          "valueString": "==\"covidlevel2\", Selected: true"
        }, {
          "valueString": "*, Selected: false"
        } ]
      } ]
    }
  }, {
    "fullUrl": "urn:uuid:2bc20a8c-73ee-45bc-8f6c-17f37476f3df",
    "resource": {
      "resourceType": "QuestionnaireResponse",
      "id": "2bc20a8c-73ee-45bc-8f6c-17f37476f3df",
      "identifier": {
        "value": "59263"
      },
      "questionnaire": {
        "reference": "urn:uuid:6404c8bd-26ed-46b1-b3b8-2fc99b9d9850"
      },
      "status": "completed",
      "subject": {
        "reference": "urn:uuid:d409cab5-03af-4f77-9a7a-f8397786eee9"
      },
      "context": {
        "reference": "urn:uuid:12062f4b-24ee-44cd-b535-b3e3545417dd"
      },
      "authored": "2021-04-06T11:29:26+00:00",
      "item": [ {
        "linkId": "Tx225069",
        "text": "What is the reason for the contact?",
        "answer": [ {
          "valueString": "a prescription request"
        } ]
      } ]
    }
  }, {
    "fullUrl": "urn:uuid:6404c8bd-26ed-46b1-b3b8-2fc99b9d9850",
    "resource": {
      "resourceType": "Questionnaire",
      "id": "6404c8bd-26ed-46b1-b3b8-2fc99b9d9850",
      "identifier": [ {
        "value": "59263"
      } ],
      "version": "2021-04-06T11:29:26.887Z",
      "status": "active",
      "experimental": false,
      "date": "2021-04-06T11:29:26+00:00",
      "publisher": "User ID: 'HADFIELDR' User name: 'Ryan Hadfield' User skill set: 'T3'",
      "lastReviewDate": "2021-04-06",
      "contact": [ {
        "telecom": [ {
          "system": "phone",
          "value": "07777 888888"
        } ]
      } ],
      "subjectType": [ "Patient" ],
      "item": [ {
        "linkId": "59263",
        "prefix": "6000",
        "text": "What is the reason for the contact?",
        "type": "choice",
        "required": true,
        "repeats": false,
        "option": [ {
          "valueString": "a child protection/vulnerable adult concern (specify), Selected: false"
        }, {
          "valueString": "a social or domestic emergency, Selected: false"
        }, {
          "valueString": "a prescription request, Selected: true"
        }, {
          "valueString": "an appointment request, Selected: false"
        }, {
          "valueString": "a request for health or medication information, Selected: false"
        }, {
          "valueString": "public health alert information, Selected: false"
        } ]
      } ]
    }
  }, {
    "fullUrl": "urn:uuid:618ee4e5-3def-49a3-9a1a-25bcc54a7f31",
    "resource": {
      "resourceType": "QuestionnaireResponse",
      "id": "618ee4e5-3def-49a3-9a1a-25bcc54a7f31",
      "identifier": {
        "value": "59263"
      },
      "questionnaire": {
        "reference": "urn:uuid:3ddeb702-7354-4584-9ce0-ac760d4364e2"
      },
      "status": "completed",
      "subject": {
        "reference": "urn:uuid:d409cab5-03af-4f77-9a7a-f8397786eee9"
      },
      "context": {
        "reference": "urn:uuid:12062f4b-24ee-44cd-b535-b3e3545417dd"
      },
      "authored": "2021-04-06T11:29:26+00:00",
      "item": [ {
        "linkId": "Tx220957",
        "text": "Is this contact about a new or worsening illness?",
        "answer": [ {
          "valueString": "no"
        } ]
      } ]
    }
  }, {
    "fullUrl": "urn:uuid:3ddeb702-7354-4584-9ce0-ac760d4364e2",
    "resource": {
      "resourceType": "Questionnaire",
      "id": "3ddeb702-7354-4584-9ce0-ac760d4364e2",
      "identifier": [ {
        "value": "59263"
      } ],
      "version": "2021-04-06T11:29:26.887Z",
      "status": "active",
      "experimental": false,
      "date": "2021-04-06T11:29:26+00:00",
      "publisher": "User ID: 'HADFIELDR' User name: 'Ryan Hadfield' User skill set: 'T3'",
      "lastReviewDate": "2021-04-06",
      "contact": [ {
        "telecom": [ {
          "system": "phone",
          "value": "07777 888888"
        } ]
      } ],
      "subjectType": [ "Patient" ],
      "item": [ {
        "linkId": "59263",
        "prefix": "1400",
        "text": "Is this contact about a new or worsening illness?",
        "type": "choice",
        "required": true,
        "repeats": false,
        "option": [ {
          "valueString": "yes, Selected: false"
        }, {
          "valueString": "not sure, Selected: false"
        }, {
          "valueString": "no, Selected: true"
        } ]
      } ]
    }
  }, {
    "fullUrl": "urn:uuid:833dd9ea-2d0e-48c8-8285-662a9f2217bd",
    "resource": {
      "resourceType": "QuestionnaireResponse",
      "id": "833dd9ea-2d0e-48c8-8285-662a9f2217bd",
      "identifier": {
        "value": "59263"
      },
      "questionnaire": {
        "reference": "urn:uuid:5b395bf0-add8-43a4-861c-45c50873539b"
      },
      "status": "completed",
      "subject": {
        "reference": "urn:uuid:d409cab5-03af-4f77-9a7a-f8397786eee9"
      },
      "context": {
        "reference": "urn:uuid:12062f4b-24ee-44cd-b535-b3e3545417dd"
      },
      "authored": "2021-04-06T11:29:26+00:00",
      "item": [ {
        "linkId": "Tx221352",
        "text": "Have you got enough medication to last until the surgery opens?",
        "answer": [ {
          "valueString": "no"
        } ]
      } ]
    }
  }, {
    "fullUrl": "urn:uuid:5b395bf0-add8-43a4-861c-45c50873539b",
    "resource": {
      "resourceType": "Questionnaire",
      "id": "5b395bf0-add8-43a4-861c-45c50873539b",
      "identifier": [ {
        "value": "59263"
      } ],
      "version": "2021-04-06T11:29:26.887Z",
      "status": "active",
      "experimental": false,
      "date": "2021-04-06T11:29:26+00:00",
      "publisher": "User ID: 'HADFIELDR' User name: 'Ryan Hadfield' User skill set: 'T3'",
      "lastReviewDate": "2021-04-06",
      "contact": [ {
        "telecom": [ {
          "system": "phone",
          "value": "07777 888888"
        } ]
      } ],
      "subjectType": [ "Patient" ],
      "item": [ {
        "linkId": "59263",
        "prefix": "1500",
        "text": "Have you got enough medication to last until the surgery opens?",
        "type": "choice",
        "required": true,
        "repeats": false,
        "option": [ {
          "valueString": "yes, Selected: false"
        }, {
          "valueString": "not sure, Selected: false"
        }, {
          "valueString": "no, Selected: true"
        } ]
      } ]
    }
  }, {
    "fullUrl": "urn:uuid:b5086c84-4064-4831-b080-cc7a1fa081ed",
    "resource": {
      "resourceType": "QuestionnaireResponse",
      "id": "b5086c84-4064-4831-b080-cc7a1fa081ed",
      "identifier": {
        "value": "59263"
      },
      "questionnaire": {
        "reference": "urn:uuid:23b0e825-5233-433d-a25e-950ad8dfd622"
      },
      "status": "completed",
      "subject": {
        "reference": "urn:uuid:d409cab5-03af-4f77-9a7a-f8397786eee9"
      },
      "context": {
        "reference": "urn:uuid:12062f4b-24ee-44cd-b535-b3e3545417dd"
      },
      "authored": "2021-04-06T11:29:26+00:00"
    }
  }, {
    "fullUrl": "urn:uuid:23b0e825-5233-433d-a25e-950ad8dfd622",
    "resource": {
      "resourceType": "Questionnaire",
      "id": "23b0e825-5233-433d-a25e-950ad8dfd622",
      "identifier": [ {
        "value": "59263"
      } ],
      "version": "2021-04-06T11:29:26.887Z",
      "status": "active",
      "experimental": false,
      "date": "2021-04-06T11:29:26+00:00",
      "publisher": "User ID: 'HADFIELDR' User name: 'Ryan Hadfield' User skill set: 'T3'",
      "lastReviewDate": "2021-04-06",
      "contact": [ {
        "telecom": [ {
          "system": "phone",
          "value": "07777 888888"
        } ]
      } ],
      "subjectType": [ "Patient" ]
    }
  }, {
    "fullUrl": "urn:uuid:a77a1d18-6679-4ef2-ba26-4684607a1bb1",
    "resource": {
      "resourceType": "QuestionnaireResponse",
      "id": "a77a1d18-6679-4ef2-ba26-4684607a1bb1",
      "identifier": {
        "value": "59263"
      },
      "questionnaire": {
        "reference": "urn:uuid:0b7d389f-d6fb-447b-beb9-8aaa70af56dc"
      },
      "status": "completed",
      "subject": {
        "reference": "urn:uuid:d409cab5-03af-4f77-9a7a-f8397786eee9"
      },
      "context": {
        "reference": "urn:uuid:12062f4b-24ee-44cd-b535-b3e3545417dd"
      },
      "authored": "2021-04-06T11:29:26+00:00",
      "item": [ {
        "linkId": "Tx224231",
        "text": "FROM WHAT YOU HAVE HEARD IS A CONSULTATION WITH A PRESCRIBER NEEDED?",
        "answer": [ {
          "valueString": "no"
        } ]
      } ]
    }
  }, {
    "fullUrl": "urn:uuid:0b7d389f-d6fb-447b-beb9-8aaa70af56dc",
    "resource": {
      "resourceType": "Questionnaire",
      "id": "0b7d389f-d6fb-447b-beb9-8aaa70af56dc",
      "identifier": [ {
        "value": "59263"
      } ],
      "version": "2021-04-06T11:29:26.887Z",
      "status": "active",
      "experimental": false,
      "date": "2021-04-06T11:29:26+00:00",
      "publisher": "User ID: 'HADFIELDR' User name: 'Ryan Hadfield' User skill set: 'T3'",
      "lastReviewDate": "2021-04-06",
      "contact": [ {
        "telecom": [ {
          "system": "phone",
          "value": "07777 888888"
        } ]
      } ],
      "subjectType": [ "Patient" ],
      "item": [ {
        "linkId": "59263",
        "prefix": "0",
        "text": "FROM WHAT YOU HAVE HEARD IS A CONSULTATION WITH A PRESCRIBER NEEDED?",
        "type": "choice",
        "required": true,
        "repeats": false,
        "option": [ {
          "valueString": "yes, Selected: false"
        }, {
          "valueString": "not sure, Selected: false"
        }, {
          "valueString": "no, Selected: true"
        } ]
      } ]
    }
  }, {
    "fullUrl": "urn:uuid:2061ac02-b663-4298-967c-f33816e921d3",
    "resource": {
      "resourceType": "QuestionnaireResponse",
      "id": "2061ac02-b663-4298-967c-f33816e921d3",
      "identifier": {
        "value": "59263"
      },
      "questionnaire": {
        "reference": "urn:uuid:10ea8a97-867a-4b94-9785-5dc67f660276"
      },
      "status": "completed",
      "subject": {
        "reference": "urn:uuid:d409cab5-03af-4f77-9a7a-f8397786eee9"
      },
      "context": {
        "reference": "urn:uuid:12062f4b-24ee-44cd-b535-b3e3545417dd"
      },
      "authored": "2021-04-06T11:29:26+00:00",
      "item": [ {
        "linkId": "Tx222687",
        "text": "Have you got any of the medication available at the moment?",
        "answer": [ {
          "valueString": "no"
        } ]
      } ]
    }
  }, {
    "fullUrl": "urn:uuid:10ea8a97-867a-4b94-9785-5dc67f660276",
    "resource": {
      "resourceType": "Questionnaire",
      "id": "10ea8a97-867a-4b94-9785-5dc67f660276",
      "identifier": [ {
        "value": "59263"
      } ],
      "version": "2021-04-06T11:29:26.887Z",
      "status": "active",
      "experimental": false,
      "date": "2021-04-06T11:29:26+00:00",
      "publisher": "User ID: 'HADFIELDR' User name: 'Ryan Hadfield' User skill set: 'T3'",
      "lastReviewDate": "2021-04-06",
      "contact": [ {
        "telecom": [ {
          "system": "phone",
          "value": "07777 888888"
        } ]
      } ],
      "subjectType": [ "Patient" ],
      "item": [ {
        "linkId": "59263",
        "prefix": "200",
        "text": "Have you got any of the medication available at the moment?",
        "type": "choice",
        "required": true,
        "repeats": false,
        "option": [ {
          "valueString": "yes, Selected: false"
        }, {
          "valueString": "not sure, Selected: false"
        }, {
          "valueString": "no, Selected: true"
        } ]
      } ]
    }
  }, {
    "fullUrl": "urn:uuid:6ed0a24a-84d2-432b-94b6-6ef29fee3747",
    "resource": {
      "resourceType": "QuestionnaireResponse",
      "id": "6ed0a24a-84d2-432b-94b6-6ef29fee3747",
      "identifier": {
        "value": "59263"
      },
      "questionnaire": {
        "reference": "urn:uuid:1e7e5f2b-15c9-437b-b9c8-b15e1ddffec4"
      },
      "status": "completed",
      "subject": {
        "reference": "urn:uuid:d409cab5-03af-4f77-9a7a-f8397786eee9"
      },
      "context": {
        "reference": "urn:uuid:12062f4b-24ee-44cd-b535-b3e3545417dd"
      },
      "authored": "2021-04-06T11:29:26+00:00",
      "item": [ {
        "linkId": "Tx221367",
        "text": "When is the next dose due?",
        "answer": [ {
          "valueString": "within the next 12 hours"
        } ]
      } ]
    }
  }, {
    "fullUrl": "urn:uuid:1e7e5f2b-15c9-437b-b9c8-b15e1ddffec4",
    "resource": {
      "resourceType": "Questionnaire",
      "id": "1e7e5f2b-15c9-437b-b9c8-b15e1ddffec4",
      "identifier": [ {
        "value": "59263"
      } ],
      "version": "2021-04-06T11:29:26.887Z",
      "status": "active",
      "experimental": false,
      "date": "2021-04-06T11:29:26+00:00",
      "publisher": "User ID: 'HADFIELDR' User name: 'Ryan Hadfield' User skill set: 'T3'",
      "lastReviewDate": "2021-04-06",
      "contact": [ {
        "telecom": [ {
          "system": "phone",
          "value": "07777 888888"
        } ]
      } ],
      "subjectType": [ "Patient" ],
      "item": [ {
        "linkId": "59263",
        "prefix": "100",
        "text": "When is the next dose due?",
        "type": "choice",
        "required": true,
        "repeats": false,
        "option": [ {
          "valueString": "within the next 2 hours, Selected: false"
        }, {
          "valueString": "within the next 6 hours, Selected: false"
        }, {
          "valueString": "within the next 12 hours, Selected: true"
        }, {
          "valueString": "over 12 hours time, Selected: false"
        }, {
          "valueString": "not sure, Selected: false"
        } ]
      } ]
    }
  }, {
    "fullUrl": "urn:uuid:4c564079-6662-4910-8755-8e9f3478980a",
    "resource": {
      "resourceType": "QuestionnaireResponse",
      "id": "4c564079-6662-4910-8755-8e9f3478980a",
      "identifier": {
        "value": "59263"
      },
      "questionnaire": {
        "reference": "urn:uuid:c4db3d17-9ed3-436a-8f7c-cb42d8f8ce6c"
      },
      "status": "completed",
      "subject": {
        "reference": "urn:uuid:d409cab5-03af-4f77-9a7a-f8397786eee9"
      },
      "context": {
        "reference": "urn:uuid:12062f4b-24ee-44cd-b535-b3e3545417dd"
      },
      "authored": "2021-04-06T11:29:26+00:00",
      "item": [ {
        "linkId": "Tx223441",
        "text": "STRING:SDPCRepeatPrescription",
        "answer": [ {
          "valueString": "\"PC repeat prescription\""
        } ]
      } ]
    }
  }, {
    "fullUrl": "urn:uuid:c4db3d17-9ed3-436a-8f7c-cb42d8f8ce6c",
    "resource": {
      "resourceType": "Questionnaire",
      "id": "c4db3d17-9ed3-436a-8f7c-cb42d8f8ce6c",
      "identifier": [ {
        "value": "59263"
      } ],
      "version": "2021-04-06T11:29:26.887Z",
      "status": "active",
      "experimental": false,
      "date": "2021-04-06T11:29:26+00:00",
      "publisher": "User ID: 'HADFIELDR' User name: 'Ryan Hadfield' User skill set: 'T3'",
      "lastReviewDate": "2021-04-06",
      "contact": [ {
        "telecom": [ {
          "system": "phone",
          "value": "07777 888888"
        } ]
      } ],
      "subjectType": [ "Patient" ],
      "item": [ {
        "linkId": "59263",
        "prefix": "1200",
        "text": "STRING:SDPCRepeatPrescription",
        "type": "choice",
        "required": true,
        "repeats": false,
        "option": [ {
          "valueString": "\"PC repeat prescription\", Selected: true"
        } ]
      } ]
    }
  }, {
    "fullUrl": "urn:uuid:91eef53a-9dea-4767-98d0-fc4c0f9fd592",
    "resource": {
      "resourceType": "QuestionnaireResponse",
      "id": "91eef53a-9dea-4767-98d0-fc4c0f9fd592",
      "identifier": {
        "value": "59263"
      },
      "questionnaire": {
        "reference": "urn:uuid:97a98e77-7d65-40c0-9128-ea3cb8280cf7"
      },
      "status": "completed",
      "subject": {
        "reference": "urn:uuid:d409cab5-03af-4f77-9a7a-f8397786eee9"
      },
      "context": {
        "reference": "urn:uuid:12062f4b-24ee-44cd-b535-b3e3545417dd"
      },
      "authored": "2021-04-06T11:29:26+00:00"
    }
  }, {
    "fullUrl": "urn:uuid:97a98e77-7d65-40c0-9128-ea3cb8280cf7",
    "resource": {
      "resourceType": "Questionnaire",
      "id": "97a98e77-7d65-40c0-9128-ea3cb8280cf7",
      "identifier": [ {
        "value": "59263"
      } ],
      "version": "2021-04-06T11:29:26.887Z",
      "status": "active",
      "experimental": false,
      "date": "2021-04-06T11:29:26+00:00",
      "publisher": "User ID: 'HADFIELDR' User name: 'Ryan Hadfield' User skill set: 'T3'",
      "lastReviewDate": "2021-04-06",
      "contact": [ {
        "telecom": [ {
          "system": "phone",
          "value": "07777 888888"
        } ]
      } ],
      "subjectType": [ "Patient" ]
    }
  }, {
    "fullUrl": "urn:uuid:6b7bf680-d9f1-4bd9-8ae1-00f3d05613e3",
    "resource": {
      "resourceType": "QuestionnaireResponse",
      "id": "6b7bf680-d9f1-4bd9-8ae1-00f3d05613e3",
      "identifier": {
        "value": "59263"
      },
      "questionnaire": {
        "reference": "urn:uuid:9dc315bc-7cec-4e4f-9c31-9fb47a6af7f4"
      },
      "status": "completed",
      "subject": {
        "reference": "urn:uuid:d409cab5-03af-4f77-9a7a-f8397786eee9"
      },
      "context": {
        "reference": "urn:uuid:12062f4b-24ee-44cd-b535-b3e3545417dd"
      },
      "authored": "2021-04-06T11:29:26+00:00",
      "item": [ {
        "linkId": "Tx220074",
        "text": "What is the reason for the contact?",
        "answer": [ {
          "valueString": "an injury or other health problem"
        } ]
      } ]
    }
  }, {
    "fullUrl": "urn:uuid:9dc315bc-7cec-4e4f-9c31-9fb47a6af7f4",
    "resource": {
      "resourceType": "Questionnaire",
      "id": "9dc315bc-7cec-4e4f-9c31-9fb47a6af7f4",
      "identifier": [ {
        "value": "59263"
      } ],
      "version": "2021-04-06T11:29:26.887Z",
      "status": "active",
      "experimental": false,
      "date": "2021-04-06T11:29:26+00:00",
      "publisher": "User ID: 'HADFIELDR' User name: 'Ryan Hadfield' User skill set: 'T3'",
      "lastReviewDate": "2021-04-06",
      "contact": [ {
        "telecom": [ {
          "system": "phone",
          "value": "07777 888888"
        } ]
      } ],
      "subjectType": [ "Patient" ],
      "item": [ {
        "linkId": "59263",
        "prefix": "5",
        "text": "What is the reason for the contact?",
        "type": "choice",
        "required": true,
        "repeats": false,
        "option": [ {
          "valueString": "an injury or other health problem, Selected: true"
        }, {
          "valueString": "labour or childbirth, Selected: false"
        }, {
          "valueString": "a need to access another healthcare service, Selected: false"
        }, {
          "valueString": "a healthcare professional requesting contact with another clinician, Selected: false"
        }, {
          "valueString": "a report of results or tests, Selected: false"
        }, {
          "valueString": "a possible failure of contraception, Selected: false"
        }, {
          "valueString": "more, Selected: false"
        } ]
      } ]
    }
  }, {
    "fullUrl": "urn:uuid:be613581-e19f-4472-b0b5-3a56d48b93c7",
    "resource": {
      "resourceType": "QuestionnaireResponse",
      "id": "be613581-e19f-4472-b0b5-3a56d48b93c7",
      "identifier": {
        "value": "59263"
      },
      "questionnaire": {
        "reference": "urn:uuid:9643c1d9-d92f-4acf-8177-50fdd76fa34e"
      },
      "status": "completed",
      "subject": {
        "reference": "urn:uuid:d409cab5-03af-4f77-9a7a-f8397786eee9"
      },
      "context": {
        "reference": "urn:uuid:12062f4b-24ee-44cd-b535-b3e3545417dd"
      },
      "authored": "2021-04-06T11:29:26+00:00",
      "item": [ {
        "linkId": "Tx221807",
        "text": "STRING:to'Immediatethreatstolife(SPA/OOHversion)'-'Majorbloodloss'stem",
        "answer": [ {
          "valueString": "\"present\""
        } ]
      } ]
    }
  }, {
    "fullUrl": "urn:uuid:9643c1d9-d92f-4acf-8177-50fdd76fa34e",
    "resource": {
      "resourceType": "Questionnaire",
      "id": "9643c1d9-d92f-4acf-8177-50fdd76fa34e",
      "identifier": [ {
        "value": "59263"
      } ],
      "version": "2021-04-06T11:29:26.887Z",
      "status": "active",
      "experimental": false,
      "date": "2021-04-06T11:29:26+00:00",
      "publisher": "User ID: 'HADFIELDR' User name: 'Ryan Hadfield' User skill set: 'T3'",
      "lastReviewDate": "2021-04-06",
      "contact": [ {
        "telecom": [ {
          "system": "phone",
          "value": "07777 888888"
        } ]
      } ],
      "subjectType": [ "Patient" ],
      "item": [ {
        "linkId": "59263",
        "prefix": "200",
        "text": "STRING:to'Immediatethreatstolife(SPA/OOHversion)'-'Majorbloodloss'stem",
        "type": "choice",
        "required": true,
        "repeats": false,
        "option": [ {
          "valueString": "\"present\", Selected: true"
        } ]
      } ]
    }
  }, {
    "fullUrl": "urn:uuid:83f7cefd-5aa2-4f07-93d9-cb3c0eff9005",
    "resource": {
      "resourceType": "QuestionnaireResponse",
      "id": "83f7cefd-5aa2-4f07-93d9-cb3c0eff9005",
      "identifier": {
        "value": "59263"
      },
      "questionnaire": {
        "reference": "urn:uuid:bbbf71ae-c114-4052-b1c5-00f28393100f"
      },
      "status": "completed",
      "subject": {
        "reference": "urn:uuid:d409cab5-03af-4f77-9a7a-f8397786eee9"
      },
      "context": {
        "reference": "urn:uuid:12062f4b-24ee-44cd-b535-b3e3545417dd"
      },
      "authored": "2021-04-06T11:29:26+00:00"
    }
  }, {
    "fullUrl": "urn:uuid:bbbf71ae-c114-4052-b1c5-00f28393100f",
    "resource": {
      "resourceType": "Questionnaire",
      "id": "bbbf71ae-c114-4052-b1c5-00f28393100f",
      "identifier": [ {
        "value": "59263"
      } ],
      "version": "2021-04-06T11:29:26.887Z",
      "status": "active",
      "experimental": false,
      "date": "2021-04-06T11:29:26+00:00",
      "publisher": "User ID: 'HADFIELDR' User name: 'Ryan Hadfield' User skill set: 'T3'",
      "lastReviewDate": "2021-04-06",
      "contact": [ {
        "telecom": [ {
          "system": "phone",
          "value": "07777 888888"
        } ]
      } ],
      "subjectType": [ "Patient" ]
    }
  }, {
    "fullUrl": "urn:uuid:3925d092-fd5a-402e-a7eb-aadbeef7b7b4",
    "resource": {
      "resourceType": "QuestionnaireResponse",
      "id": "3925d092-fd5a-402e-a7eb-aadbeef7b7b4",
      "identifier": {
        "value": "59263"
      },
      "questionnaire": {
        "reference": "urn:uuid:3ad29f9f-686b-4a28-9df0-b64e8ac44aa3"
      },
      "status": "completed",
      "subject": {
        "reference": "urn:uuid:d409cab5-03af-4f77-9a7a-f8397786eee9"
      },
      "context": {
        "reference": "urn:uuid:12062f4b-24ee-44cd-b535-b3e3545417dd"
      },
      "authored": "2021-04-06T11:29:26+00:00",
      "item": [ {
        "linkId": "Tx221799",
        "text": "STRING:injury,illnessorlabourestablishedinEntryFlow",
        "answer": [ {
          "valueString": "\"present\""
        } ]
      } ]
    }
  }, {
    "fullUrl": "urn:uuid:3ad29f9f-686b-4a28-9df0-b64e8ac44aa3",
    "resource": {
      "resourceType": "Questionnaire",
      "id": "3ad29f9f-686b-4a28-9df0-b64e8ac44aa3",
      "identifier": [ {
        "value": "59263"
      } ],
      "version": "2021-04-06T11:29:26.887Z",
      "status": "active",
      "experimental": false,
      "date": "2021-04-06T11:29:26+00:00",
      "publisher": "User ID: 'HADFIELDR' User name: 'Ryan Hadfield' User skill set: 'T3'",
      "lastReviewDate": "2021-04-06",
      "contact": [ {
        "telecom": [ {
          "system": "phone",
          "value": "07777 888888"
        } ]
      } ],
      "subjectType": [ "Patient" ],
      "item": [ {
        "linkId": "59263",
        "prefix": "0",
        "text": "STRING:injury,illnessorlabourestablishedinEntryFlow",
        "type": "choice",
        "required": true,
        "repeats": false,
        "option": [ {
          "valueString": "\"present\", Selected: true"
        } ]
      } ]
    }
  }, {
    "fullUrl": "urn:uuid:b35c0fa6-70fa-42f3-a461-cc1be9845d1d",
    "resource": {
      "resourceType": "QuestionnaireResponse",
      "id": "b35c0fa6-70fa-42f3-a461-cc1be9845d1d",
      "identifier": {
        "value": "59263"
      },
      "questionnaire": {
        "reference": "urn:uuid:d71b1d4b-cf96-4320-849e-e4926e817654"
      },
      "status": "completed",
      "subject": {
        "reference": "urn:uuid:d409cab5-03af-4f77-9a7a-f8397786eee9"
      },
      "context": {
        "reference": "urn:uuid:12062f4b-24ee-44cd-b535-b3e3545417dd"
      },
      "authored": "2021-04-06T11:29:26+00:00",
      "item": [ {
        "linkId": "Tx224120",
        "text": "Have you been bleeding RED BLOOD very heavily IN THE LAST 2 HOURS?",
        "answer": [ {
          "valueString": "no"
        } ]
      } ]
    }
  }, {
    "fullUrl": "urn:uuid:d71b1d4b-cf96-4320-849e-e4926e817654",
    "resource": {
      "resourceType": "Questionnaire",
      "id": "d71b1d4b-cf96-4320-849e-e4926e817654",
      "identifier": [ {
        "value": "59263"
      } ],
      "version": "2021-04-06T11:29:26.887Z",
      "status": "active",
      "experimental": false,
      "date": "2021-04-06T11:29:26+00:00",
      "publisher": "User ID: 'HADFIELDR' User name: 'Ryan Hadfield' User skill set: 'T3'",
      "lastReviewDate": "2021-04-06",
      "contact": [ {
        "telecom": [ {
          "system": "phone",
          "value": "07777 888888"
        } ]
      } ],
      "subjectType": [ "Patient" ],
      "item": [ {
        "linkId": "59263",
        "prefix": "10100",
        "text": "Have you been bleeding RED BLOOD very heavily IN THE LAST 2 HOURS?",
        "type": "choice",
        "required": true,
        "repeats": false,
        "option": [ {
          "valueString": "yes, Selected: false"
        }, {
          "valueString": "not sure, Selected: false"
        }, {
          "valueString": "no, Selected: true"
        } ]
      } ]
    }
  }, {
    "fullUrl": "urn:uuid:e7455f1a-1ba3-4af4-99e4-9e6cc7101ff5",
    "resource": {
      "resourceType": "QuestionnaireResponse",
      "id": "e7455f1a-1ba3-4af4-99e4-9e6cc7101ff5",
      "identifier": {
        "value": "59263"
      },
      "questionnaire": {
        "reference": "urn:uuid:c717cf44-c1ec-4e8e-a091-4e78863d5351"
      },
      "status": "completed",
      "subject": {
        "reference": "urn:uuid:d409cab5-03af-4f77-9a7a-f8397786eee9"
      },
      "context": {
        "reference": "urn:uuid:12062f4b-24ee-44cd-b535-b3e3545417dd"
      },
      "authored": "2021-04-06T11:29:26+00:00",
      "item": [ {
        "linkId": "Tx221343",
        "text": "SocialConcernsExcluded",
        "answer": [ {
          "valueString": "*"
        } ]
      } ]
    }
  }, {
    "fullUrl": "urn:uuid:c717cf44-c1ec-4e8e-a091-4e78863d5351",
    "resource": {
      "resourceType": "Questionnaire",
      "id": "c717cf44-c1ec-4e8e-a091-4e78863d5351",
      "identifier": [ {
        "value": "59263"
      } ],
      "version": "2021-04-06T11:29:26.887Z",
      "status": "active",
      "experimental": false,
      "date": "2021-04-06T11:29:26+00:00",
      "publisher": "User ID: 'HADFIELDR' User name: 'Ryan Hadfield' User skill set: 'T3'",
      "lastReviewDate": "2021-04-06",
      "contact": [ {
        "telecom": [ {
          "system": "phone",
          "value": "07777 888888"
        } ]
      } ],
      "subjectType": [ "Patient" ],
      "item": [ {
        "linkId": "59263",
        "prefix": "1100",
        "text": "SocialConcernsExcluded",
        "type": "choice",
        "required": true,
        "repeats": false,
        "option": [ {
          "valueString": "==\"present\", Selected: false"
        }, {
          "valueString": "*, Selected: true"
        } ]
      } ]
    }
  }, {
    "fullUrl": "urn:uuid:f62b8131-3048-4b89-afc6-282ce631a185",
    "resource": {
      "resourceType": "QuestionnaireResponse",
      "id": "f62b8131-3048-4b89-afc6-282ce631a185",
      "identifier": {
        "value": "59263"
      },
      "questionnaire": {
        "reference": "urn:uuid:5bd10742-bfd8-46d5-a95b-066f1d1e5a4d"
      },
      "status": "completed",
      "subject": {
        "reference": "urn:uuid:d409cab5-03af-4f77-9a7a-f8397786eee9"
      },
      "context": {
        "reference": "urn:uuid:12062f4b-24ee-44cd-b535-b3e3545417dd"
      },
      "authored": "2021-04-06T11:29:26+00:00",
      "item": [ {
        "linkId": "Tx130011",
        "text": "What is the main problem?"
      } ]
    }
  }, {
    "fullUrl": "urn:uuid:5bd10742-bfd8-46d5-a95b-066f1d1e5a4d",
    "resource": {
      "resourceType": "Questionnaire",
      "id": "5bd10742-bfd8-46d5-a95b-066f1d1e5a4d",
      "identifier": [ {
        "value": "59263"
      } ],
      "version": "2021-04-06T11:29:26.887Z",
      "status": "active",
      "experimental": false,
      "date": "2021-04-06T11:29:26+00:00",
      "publisher": "User ID: 'HADFIELDR' User name: 'Ryan Hadfield' User skill set: 'T3'",
      "lastReviewDate": "2021-04-06",
      "contact": [ {
        "telecom": [ {
          "system": "phone",
          "value": "07777 888888"
        } ]
      } ],
      "subjectType": [ "Patient" ],
      "item": [ {
        "linkId": "59263",
        "prefix": "2300",
        "text": "What is the main problem?",
        "type": "choice",
        "required": true,
        "repeats": false,
        "option": [ {
          "valueString": "the individual has been told to follow a particular course of action (specify), Selected: false"
        }, {
          "valueString": "the individual is an identified frequent caller, Selected: false"
        }, {
          "valueString": "injury (specify), Selected: false"
        }, {
          "valueString": "illness or other health problem (specify), Selected: false"
        }, {
          "valueString": "child protection/vulnerable adult concern, Selected: false"
        }, {
          "valueString": "social or domestic emergency, Selected: false"
        }, {
          "valueString": "the environment potentially poses an immediate threat to life (specify), Selected: false"
        } ]
      } ]
    }
  }, {
    "fullUrl": "urn:uuid:e7c1f5af-90e8-47c7-8345-42d22cff3344",
    "resource": {
      "resourceType": "QuestionnaireResponse",
      "id": "e7c1f5af-90e8-47c7-8345-42d22cff3344",
      "identifier": {
        "value": "59263"
      },
      "questionnaire": {
        "reference": "urn:uuid:e317a877-f90c-49b1-b34d-2caacc26dbfe"
      },
      "status": "completed",
      "subject": {
        "reference": "urn:uuid:d409cab5-03af-4f77-9a7a-f8397786eee9"
      },
      "context": {
        "reference": "urn:uuid:12062f4b-24ee-44cd-b535-b3e3545417dd"
      },
      "authored": "2021-04-06T11:29:26+00:00",
      "item": [ {
        "linkId": "Tx220074",
        "text": "What is the reason for the contact?",
        "answer": [ {
          "valueString": "more"
        } ]
      } ]
    }
  }, {
    "fullUrl": "urn:uuid:e317a877-f90c-49b1-b34d-2caacc26dbfe",
    "resource": {
      "resourceType": "Questionnaire",
      "id": "e317a877-f90c-49b1-b34d-2caacc26dbfe",
      "identifier": [ {
        "value": "59263"
      } ],
      "version": "2021-04-06T11:29:26.887Z",
      "status": "active",
      "experimental": false,
      "date": "2021-04-06T11:29:26+00:00",
      "publisher": "User ID: 'HADFIELDR' User name: 'Ryan Hadfield' User skill set: 'T3'",
      "lastReviewDate": "2021-04-06",
      "contact": [ {
        "telecom": [ {
          "system": "phone",
          "value": "07777 888888"
        } ]
      } ],
      "subjectType": [ "Patient" ],
      "item": [ {
        "linkId": "59263",
        "prefix": "5",
        "text": "What is the reason for the contact?",
        "type": "choice",
        "required": true,
        "repeats": false,
        "option": [ {
          "valueString": "an injury or other health problem, Selected: false"
        }, {
          "valueString": "labour or childbirth, Selected: false"
        }, {
          "valueString": "a need to access another healthcare service, Selected: false"
        }, {
          "valueString": "a healthcare professional requesting contact with another clinician, Selected: false"
        }, {
          "valueString": "a report of results or tests, Selected: false"
        }, {
          "valueString": "a possible failure of contraception, Selected: false"
        }, {
          "valueString": "more, Selected: true"
        } ]
      } ]
    }
  }, {
    "fullUrl": "urn:uuid:6fbe1818-d5b4-4f93-8646-3dda94841b19",
    "resource": {
      "resourceType": "QuestionnaireResponse",
      "id": "6fbe1818-d5b4-4f93-8646-3dda94841b19",
      "identifier": {
        "value": "59263"
      },
      "questionnaire": {
        "reference": "urn:uuid:2a42638a-29e2-4213-b137-729775e488ba"
      },
      "status": "completed",
      "subject": {
        "reference": "urn:uuid:d409cab5-03af-4f77-9a7a-f8397786eee9"
      },
      "context": {
        "reference": "urn:uuid:12062f4b-24ee-44cd-b535-b3e3545417dd"
      },
      "authored": "2021-04-06T11:29:26+00:00",
      "item": [ {
        "linkId": "Tx221793",
        "text": "STRING:to'Social&information'-further'Callreason'menu",
        "answer": [ {
          "valueString": "\"present\""
        } ]
      } ]
    }
  }, {
    "fullUrl": "urn:uuid:2a42638a-29e2-4213-b137-729775e488ba",
    "resource": {
      "resourceType": "Questionnaire",
      "id": "2a42638a-29e2-4213-b137-729775e488ba",
      "identifier": [ {
        "value": "59263"
      } ],
      "version": "2021-04-06T11:29:26.887Z",
      "status": "active",
      "experimental": false,
      "date": "2021-04-06T11:29:26+00:00",
      "publisher": "User ID: 'HADFIELDR' User name: 'Ryan Hadfield' User skill set: 'T3'",
      "lastReviewDate": "2021-04-06",
      "contact": [ {
        "telecom": [ {
          "system": "phone",
          "value": "07777 888888"
        } ]
      } ],
      "subjectType": [ "Patient" ],
      "item": [ {
        "linkId": "59263",
        "prefix": "600",
        "text": "STRING:to'Social&information'-further'Callreason'menu",
        "type": "choice",
        "required": true,
        "repeats": false,
        "option": [ {
          "valueString": "\"present\", Selected: true"
        } ]
      } ]
    }
  }, {
    "fullUrl": "urn:uuid:6b5a511c-dd33-4af9-a4b2-a8c713142300",
    "resource": {
      "resourceType": "QuestionnaireResponse",
      "id": "6b5a511c-dd33-4af9-a4b2-a8c713142300",
      "identifier": {
        "value": "59263"
      },
      "questionnaire": {
        "reference": "urn:uuid:0fa9185f-fece-4fc4-817a-ba1e22058060"
      },
      "status": "completed",
      "subject": {
        "reference": "urn:uuid:d409cab5-03af-4f77-9a7a-f8397786eee9"
      },
      "context": {
        "reference": "urn:uuid:12062f4b-24ee-44cd-b535-b3e3545417dd"
      },
      "authored": "2021-04-06T11:29:26+00:00"
    }
  }, {
    "fullUrl": "urn:uuid:0fa9185f-fece-4fc4-817a-ba1e22058060",
    "resource": {
      "resourceType": "Questionnaire",
      "id": "0fa9185f-fece-4fc4-817a-ba1e22058060",
      "identifier": [ {
        "value": "59263"
      } ],
      "version": "2021-04-06T11:29:26.887Z",
      "status": "active",
      "experimental": false,
      "date": "2021-04-06T11:29:26+00:00",
      "publisher": "User ID: 'HADFIELDR' User name: 'Ryan Hadfield' User skill set: 'T3'",
      "lastReviewDate": "2021-04-06",
      "contact": [ {
        "telecom": [ {
          "system": "phone",
          "value": "07777 888888"
        } ]
      } ],
      "subjectType": [ "Patient" ]
    }
  }, {
    "fullUrl": "urn:uuid:aad18035-f061-4dda-88e3-3b8e89095b78",
    "resource": {
      "resourceType": "QuestionnaireResponse",
      "id": "aad18035-f061-4dda-88e3-3b8e89095b78",
      "identifier": {
        "value": "59263"
      },
      "questionnaire": {
        "reference": "urn:uuid:eecd91a5-7851-4e58-9362-086d392f8c47"
      },
      "status": "completed",
      "subject": {
        "reference": "urn:uuid:d409cab5-03af-4f77-9a7a-f8397786eee9"
      },
      "context": {
        "reference": "urn:uuid:12062f4b-24ee-44cd-b535-b3e3545417dd"
      },
      "authored": "2021-04-06T11:29:26+00:00",
      "item": [ {
        "linkId": "Tx221804",
        "text": "STRING:transfertofurthermenuquestionestablishedinEntryFlow",
        "answer": [ {
          "valueString": "\"present\""
        } ]
      } ]
    }
  }, {
    "fullUrl": "urn:uuid:eecd91a5-7851-4e58-9362-086d392f8c47",
    "resource": {
      "resourceType": "Questionnaire",
      "id": "eecd91a5-7851-4e58-9362-086d392f8c47",
      "identifier": [ {
        "value": "59263"
      } ],
      "version": "2021-04-06T11:29:26.887Z",
      "status": "active",
      "experimental": false,
      "date": "2021-04-06T11:29:26+00:00",
      "publisher": "User ID: 'HADFIELDR' User name: 'Ryan Hadfield' User skill set: 'T3'",
      "lastReviewDate": "2021-04-06",
      "contact": [ {
        "telecom": [ {
          "system": "phone",
          "value": "07777 888888"
        } ]
      } ],
      "subjectType": [ "Patient" ],
      "item": [ {
        "linkId": "59263",
        "prefix": "41",
        "text": "STRING:transfertofurthermenuquestionestablishedinEntryFlow",
        "type": "choice",
        "required": true,
        "repeats": false,
        "option": [ {
          "valueString": "\"present\", Selected: true"
        } ]
      } ]
    }
  }, {
    "fullUrl": "urn:uuid:b9ea7fd7-99a8-4da4-a8ef-1da2fa6e2eec",
    "resource": {
      "resourceType": "QuestionnaireResponse",
      "id": "b9ea7fd7-99a8-4da4-a8ef-1da2fa6e2eec",
      "identifier": {
        "value": "59263"
      },
      "questionnaire": {
        "reference": "urn:uuid:40225001-6f53-4faf-a33c-f0457bcec196"
      },
      "status": "completed",
      "subject": {
        "reference": "urn:uuid:d409cab5-03af-4f77-9a7a-f8397786eee9"
      },
      "context": {
        "reference": "urn:uuid:12062f4b-24ee-44cd-b535-b3e3545417dd"
      },
      "authored": "2021-04-06T11:29:26+00:00",
      "item": [ {
        "linkId": "Tx224998",
        "text": "SYSTEM_COVIDLEVEL2",
        "answer": [ {
          "valueString": "==\"covidlevel2\""
        } ]
      } ]
    }
  }, {
    "fullUrl": "urn:uuid:40225001-6f53-4faf-a33c-f0457bcec196",
    "resource": {
      "resourceType": "Questionnaire",
      "id": "40225001-6f53-4faf-a33c-f0457bcec196",
      "identifier": [ {
        "value": "59263"
      } ],
      "version": "2021-04-06T11:29:26.887Z",
      "status": "active",
      "experimental": false,
      "date": "2021-04-06T11:29:26+00:00",
      "publisher": "User ID: 'HADFIELDR' User name: 'Ryan Hadfield' User skill set: 'T3'",
      "lastReviewDate": "2021-04-06",
      "contact": [ {
        "telecom": [ {
          "system": "phone",
          "value": "07777 888888"
        } ]
      } ],
      "subjectType": [ "Patient" ],
      "item": [ {
        "linkId": "59263",
        "prefix": "5900",
        "text": "SYSTEM_COVIDLEVEL2",
        "type": "choice",
        "required": true,
        "repeats": false,
        "option": [ {
          "valueString": "==\"covidlevel2\", Selected: true"
        }, {
          "valueString": "*, Selected: false"
        } ]
      } ]
    }
  }, {
    "fullUrl": "urn:uuid:823cdad8-527c-4c40-b9e9-93a59c14c6b1",
    "resource": {
      "resourceType": "QuestionnaireResponse",
      "id": "823cdad8-527c-4c40-b9e9-93a59c14c6b1",
      "identifier": {
        "value": "59263"
      },
      "questionnaire": {
        "reference": "urn:uuid:9de53232-d1aa-48ba-ad8c-e652a6ab7df0"
      },
      "status": "completed",
      "subject": {
        "reference": "urn:uuid:d409cab5-03af-4f77-9a7a-f8397786eee9"
      },
      "context": {
        "reference": "urn:uuid:12062f4b-24ee-44cd-b535-b3e3545417dd"
      },
      "authored": "2021-04-06T11:29:26+00:00",
      "item": [ {
        "linkId": "Tx225069",
        "text": "What is the reason for the contact?",
        "answer": [ {
          "valueString": "a prescription request"
        } ]
      } ]
    }
  }, {
    "fullUrl": "urn:uuid:9de53232-d1aa-48ba-ad8c-e652a6ab7df0",
    "resource": {
      "resourceType": "Questionnaire",
      "id": "9de53232-d1aa-48ba-ad8c-e652a6ab7df0",
      "identifier": [ {
        "value": "59263"
      } ],
      "version": "2021-04-06T11:29:26.887Z",
      "status": "active",
      "experimental": false,
      "date": "2021-04-06T11:29:26+00:00",
      "publisher": "User ID: 'HADFIELDR' User name: 'Ryan Hadfield' User skill set: 'T3'",
      "lastReviewDate": "2021-04-06",
      "contact": [ {
        "telecom": [ {
          "system": "phone",
          "value": "07777 888888"
        } ]
      } ],
      "subjectType": [ "Patient" ],
      "item": [ {
        "linkId": "59263",
        "prefix": "6000",
        "text": "What is the reason for the contact?",
        "type": "choice",
        "required": true,
        "repeats": false,
        "option": [ {
          "valueString": "a child protection/vulnerable adult concern (specify), Selected: false"
        }, {
          "valueString": "a social or domestic emergency, Selected: false"
        }, {
          "valueString": "a prescription request, Selected: true"
        }, {
          "valueString": "an appointment request, Selected: false"
        }, {
          "valueString": "a request for health or medication information, Selected: false"
        }, {
          "valueString": "public health alert information, Selected: false"
        } ]
      } ]
    }
  }, {
    "fullUrl": "urn:uuid:ee08f372-1670-4dcb-8232-acb7d689c312",
    "resource": {
      "resourceType": "QuestionnaireResponse",
      "id": "ee08f372-1670-4dcb-8232-acb7d689c312",
      "identifier": {
        "value": "59263"
      },
      "questionnaire": {
        "reference": "urn:uuid:13dd905f-e446-413a-96ac-0ece4817bb81"
      },
      "status": "completed",
      "subject": {
        "reference": "urn:uuid:d409cab5-03af-4f77-9a7a-f8397786eee9"
      },
      "context": {
        "reference": "urn:uuid:12062f4b-24ee-44cd-b535-b3e3545417dd"
      },
      "authored": "2021-04-06T11:29:26+00:00",
      "item": [ {
        "linkId": "Tx220957",
        "text": "Is this contact about a new or worsening illness?",
        "answer": [ {
          "valueString": "no"
        } ]
      } ]
    }
  }, {
    "fullUrl": "urn:uuid:13dd905f-e446-413a-96ac-0ece4817bb81",
    "resource": {
      "resourceType": "Questionnaire",
      "id": "13dd905f-e446-413a-96ac-0ece4817bb81",
      "identifier": [ {
        "value": "59263"
      } ],
      "version": "2021-04-06T11:29:26.887Z",
      "status": "active",
      "experimental": false,
      "date": "2021-04-06T11:29:26+00:00",
      "publisher": "User ID: 'HADFIELDR' User name: 'Ryan Hadfield' User skill set: 'T3'",
      "lastReviewDate": "2021-04-06",
      "contact": [ {
        "telecom": [ {
          "system": "phone",
          "value": "07777 888888"
        } ]
      } ],
      "subjectType": [ "Patient" ],
      "item": [ {
        "linkId": "59263",
        "prefix": "1400",
        "text": "Is this contact about a new or worsening illness?",
        "type": "choice",
        "required": true,
        "repeats": false,
        "option": [ {
          "valueString": "yes, Selected: false"
        }, {
          "valueString": "not sure, Selected: false"
        }, {
          "valueString": "no, Selected: true"
        } ]
      } ]
    }
  }, {
    "fullUrl": "urn:uuid:d679f4a3-a86a-4430-a4eb-b6b6dcf9c0a8",
    "resource": {
      "resourceType": "QuestionnaireResponse",
      "id": "d679f4a3-a86a-4430-a4eb-b6b6dcf9c0a8",
      "identifier": {
        "value": "59263"
      },
      "questionnaire": {
        "reference": "urn:uuid:8fa8e290-19d8-4c4e-8b09-8388902d4826"
      },
      "status": "completed",
      "subject": {
        "reference": "urn:uuid:d409cab5-03af-4f77-9a7a-f8397786eee9"
      },
      "context": {
        "reference": "urn:uuid:12062f4b-24ee-44cd-b535-b3e3545417dd"
      },
      "authored": "2021-04-06T11:29:26+00:00",
      "item": [ {
        "linkId": "Tx221352",
        "text": "Have you got enough medication to last until the surgery opens?",
        "answer": [ {
          "valueString": "no"
        } ]
      } ]
    }
  }, {
    "fullUrl": "urn:uuid:8fa8e290-19d8-4c4e-8b09-8388902d4826",
    "resource": {
      "resourceType": "Questionnaire",
      "id": "8fa8e290-19d8-4c4e-8b09-8388902d4826",
      "identifier": [ {
        "value": "59263"
      } ],
      "version": "2021-04-06T11:29:26.887Z",
      "status": "active",
      "experimental": false,
      "date": "2021-04-06T11:29:26+00:00",
      "publisher": "User ID: 'HADFIELDR' User name: 'Ryan Hadfield' User skill set: 'T3'",
      "lastReviewDate": "2021-04-06",
      "contact": [ {
        "telecom": [ {
          "system": "phone",
          "value": "07777 888888"
        } ]
      } ],
      "subjectType": [ "Patient" ],
      "item": [ {
        "linkId": "59263",
        "prefix": "1500",
        "text": "Have you got enough medication to last until the surgery opens?",
        "type": "choice",
        "required": true,
        "repeats": false,
        "option": [ {
          "valueString": "yes, Selected: false"
        }, {
          "valueString": "not sure, Selected: false"
        }, {
          "valueString": "no, Selected: true"
        } ]
      } ]
    }
  }, {
    "fullUrl": "urn:uuid:6bebd884-6707-4dde-92c0-cc67f63ad868",
    "resource": {
      "resourceType": "QuestionnaireResponse",
      "id": "6bebd884-6707-4dde-92c0-cc67f63ad868",
      "identifier": {
        "value": "59263"
      },
      "questionnaire": {
        "reference": "urn:uuid:0e8532e5-655e-45e3-937e-6adea03fd412"
      },
      "status": "completed",
      "subject": {
        "reference": "urn:uuid:d409cab5-03af-4f77-9a7a-f8397786eee9"
      },
      "context": {
        "reference": "urn:uuid:12062f4b-24ee-44cd-b535-b3e3545417dd"
      },
      "authored": "2021-04-06T11:29:26+00:00"
    }
  }, {
    "fullUrl": "urn:uuid:0e8532e5-655e-45e3-937e-6adea03fd412",
    "resource": {
      "resourceType": "Questionnaire",
      "id": "0e8532e5-655e-45e3-937e-6adea03fd412",
      "identifier": [ {
        "value": "59263"
      } ],
      "version": "2021-04-06T11:29:26.887Z",
      "status": "active",
      "experimental": false,
      "date": "2021-04-06T11:29:26+00:00",
      "publisher": "User ID: 'HADFIELDR' User name: 'Ryan Hadfield' User skill set: 'T3'",
      "lastReviewDate": "2021-04-06",
      "contact": [ {
        "telecom": [ {
          "system": "phone",
          "value": "07777 888888"
        } ]
      } ],
      "subjectType": [ "Patient" ]
    }
  }, {
    "fullUrl": "urn:uuid:643ac296-2779-4a53-81e9-85f3d4ba33ce",
    "resource": {
      "resourceType": "QuestionnaireResponse",
      "id": "643ac296-2779-4a53-81e9-85f3d4ba33ce",
      "identifier": {
        "value": "59263"
      },
      "questionnaire": {
        "reference": "urn:uuid:1a2b71fd-7843-4e4d-a0d4-96423aecef6b"
      },
      "status": "completed",
      "subject": {
        "reference": "urn:uuid:d409cab5-03af-4f77-9a7a-f8397786eee9"
      },
      "context": {
        "reference": "urn:uuid:12062f4b-24ee-44cd-b535-b3e3545417dd"
      },
      "authored": "2021-04-06T11:29:26+00:00",
      "item": [ {
        "linkId": "Tx224231",
        "text": "FROM WHAT YOU HAVE HEARD IS A CONSULTATION WITH A PRESCRIBER NEEDED?",
        "answer": [ {
          "valueString": "no"
        } ]
      } ]
    }
  }, {
    "fullUrl": "urn:uuid:1a2b71fd-7843-4e4d-a0d4-96423aecef6b",
    "resource": {
      "resourceType": "Questionnaire",
      "id": "1a2b71fd-7843-4e4d-a0d4-96423aecef6b",
      "identifier": [ {
        "value": "59263"
      } ],
      "version": "2021-04-06T11:29:26.887Z",
      "status": "active",
      "experimental": false,
      "date": "2021-04-06T11:29:26+00:00",
      "publisher": "User ID: 'HADFIELDR' User name: 'Ryan Hadfield' User skill set: 'T3'",
      "lastReviewDate": "2021-04-06",
      "contact": [ {
        "telecom": [ {
          "system": "phone",
          "value": "07777 888888"
        } ]
      } ],
      "subjectType": [ "Patient" ],
      "item": [ {
        "linkId": "59263",
        "prefix": "0",
        "text": "FROM WHAT YOU HAVE HEARD IS A CONSULTATION WITH A PRESCRIBER NEEDED?",
        "type": "choice",
        "required": true,
        "repeats": false,
        "option": [ {
          "valueString": "yes, Selected: false"
        }, {
          "valueString": "not sure, Selected: false"
        }, {
          "valueString": "no, Selected: true"
        } ]
      } ]
    }
  }, {
    "fullUrl": "urn:uuid:26945ca5-117b-410b-83f4-abd9a349145a",
    "resource": {
      "resourceType": "QuestionnaireResponse",
      "id": "26945ca5-117b-410b-83f4-abd9a349145a",
      "identifier": {
        "value": "59263"
      },
      "questionnaire": {
        "reference": "urn:uuid:2ea93fde-b702-4c25-9d44-2963a0c392db"
      },
      "status": "completed",
      "subject": {
        "reference": "urn:uuid:d409cab5-03af-4f77-9a7a-f8397786eee9"
      },
      "context": {
        "reference": "urn:uuid:12062f4b-24ee-44cd-b535-b3e3545417dd"
      },
      "authored": "2021-04-06T11:29:26+00:00",
      "item": [ {
        "linkId": "Tx222687",
        "text": "Have you got any of the medication available at the moment?",
        "answer": [ {
          "valueString": "no"
        } ]
      } ]
    }
  }, {
    "fullUrl": "urn:uuid:2ea93fde-b702-4c25-9d44-2963a0c392db",
    "resource": {
      "resourceType": "Questionnaire",
      "id": "2ea93fde-b702-4c25-9d44-2963a0c392db",
      "identifier": [ {
        "value": "59263"
      } ],
      "version": "2021-04-06T11:29:26.887Z",
      "status": "active",
      "experimental": false,
      "date": "2021-04-06T11:29:26+00:00",
      "publisher": "User ID: 'HADFIELDR' User name: 'Ryan Hadfield' User skill set: 'T3'",
      "lastReviewDate": "2021-04-06",
      "contact": [ {
        "telecom": [ {
          "system": "phone",
          "value": "07777 888888"
        } ]
      } ],
      "subjectType": [ "Patient" ],
      "item": [ {
        "linkId": "59263",
        "prefix": "200",
        "text": "Have you got any of the medication available at the moment?",
        "type": "choice",
        "required": true,
        "repeats": false,
        "option": [ {
          "valueString": "yes, Selected: false"
        }, {
          "valueString": "not sure, Selected: false"
        }, {
          "valueString": "no, Selected: true"
        } ]
      } ]
    }
  }, {
    "fullUrl": "urn:uuid:978ddf2d-d867-4c49-8da2-4e823a7c5664",
    "resource": {
      "resourceType": "QuestionnaireResponse",
      "id": "978ddf2d-d867-4c49-8da2-4e823a7c5664",
      "identifier": {
        "value": "59263"
      },
      "questionnaire": {
        "reference": "urn:uuid:201798c9-77c5-4f94-a923-c88628633dcc"
      },
      "status": "completed",
      "subject": {
        "reference": "urn:uuid:d409cab5-03af-4f77-9a7a-f8397786eee9"
      },
      "context": {
        "reference": "urn:uuid:12062f4b-24ee-44cd-b535-b3e3545417dd"
      },
      "authored": "2021-04-06T11:29:26+00:00",
      "item": [ {
        "linkId": "Tx221367",
        "text": "When is the next dose due?",
        "answer": [ {
          "valueString": "within the next 12 hours"
        } ]
      } ]
    }
  }, {
    "fullUrl": "urn:uuid:201798c9-77c5-4f94-a923-c88628633dcc",
    "resource": {
      "resourceType": "Questionnaire",
      "id": "201798c9-77c5-4f94-a923-c88628633dcc",
      "identifier": [ {
        "value": "59263"
      } ],
      "version": "2021-04-06T11:29:26.887Z",
      "status": "active",
      "experimental": false,
      "date": "2021-04-06T11:29:26+00:00",
      "publisher": "User ID: 'HADFIELDR' User name: 'Ryan Hadfield' User skill set: 'T3'",
      "lastReviewDate": "2021-04-06",
      "contact": [ {
        "telecom": [ {
          "system": "phone",
          "value": "07777 888888"
        } ]
      } ],
      "subjectType": [ "Patient" ],
      "item": [ {
        "linkId": "59263",
        "prefix": "100",
        "text": "When is the next dose due?",
        "type": "choice",
        "required": true,
        "repeats": false,
        "option": [ {
          "valueString": "within the next 2 hours, Selected: false"
        }, {
          "valueString": "within the next 6 hours, Selected: false"
        }, {
          "valueString": "within the next 12 hours, Selected: true"
        }, {
          "valueString": "over 12 hours time, Selected: false"
        }, {
          "valueString": "not sure, Selected: false"
        } ]
      } ]
    }
  }, {
    "fullUrl": "urn:uuid:80b3751b-3af0-476e-95b3-ed5273270c99",
    "resource": {
      "resourceType": "QuestionnaireResponse",
      "id": "80b3751b-3af0-476e-95b3-ed5273270c99",
      "identifier": {
        "value": "59263"
      },
      "questionnaire": {
        "reference": "urn:uuid:6eafd79f-8624-4c22-8819-1b5073804ec3"
      },
      "status": "completed",
      "subject": {
        "reference": "urn:uuid:d409cab5-03af-4f77-9a7a-f8397786eee9"
      },
      "context": {
        "reference": "urn:uuid:12062f4b-24ee-44cd-b535-b3e3545417dd"
      },
      "authored": "2021-04-06T11:29:26+00:00",
      "item": [ {
        "linkId": "Tx223441",
        "text": "STRING:SDPCRepeatPrescription",
        "answer": [ {
          "valueString": "\"PC repeat prescription\""
        } ]
      } ]
    }
  }, {
    "fullUrl": "urn:uuid:6eafd79f-8624-4c22-8819-1b5073804ec3",
    "resource": {
      "resourceType": "Questionnaire",
      "id": "6eafd79f-8624-4c22-8819-1b5073804ec3",
      "identifier": [ {
        "value": "59263"
      } ],
      "version": "2021-04-06T11:29:26.887Z",
      "status": "active",
      "experimental": false,
      "date": "2021-04-06T11:29:26+00:00",
      "publisher": "User ID: 'HADFIELDR' User name: 'Ryan Hadfield' User skill set: 'T3'",
      "lastReviewDate": "2021-04-06",
      "contact": [ {
        "telecom": [ {
          "system": "phone",
          "value": "07777 888888"
        } ]
      } ],
      "subjectType": [ "Patient" ],
      "item": [ {
        "linkId": "59263",
        "prefix": "1200",
        "text": "STRING:SDPCRepeatPrescription",
        "type": "choice",
        "required": true,
        "repeats": false,
        "option": [ {
          "valueString": "\"PC repeat prescription\", Selected: true"
        } ]
      } ]
    }
  }, {
    "fullUrl": "urn:uuid:4df657ed-ba5f-4aef-b447-b9b395a199f5",
    "resource": {
      "resourceType": "QuestionnaireResponse",
      "id": "4df657ed-ba5f-4aef-b447-b9b395a199f5",
      "identifier": {
        "value": "59263"
      },
      "questionnaire": {
        "reference": "urn:uuid:12e29b30-7215-4b81-999f-2729baa268d9"
      },
      "status": "completed",
      "subject": {
        "reference": "urn:uuid:d409cab5-03af-4f77-9a7a-f8397786eee9"
      },
      "context": {
        "reference": "urn:uuid:12062f4b-24ee-44cd-b535-b3e3545417dd"
      },
      "authored": "2021-04-06T11:29:26+00:00"
    }
  }, {
    "fullUrl": "urn:uuid:12e29b30-7215-4b81-999f-2729baa268d9",
    "resource": {
      "resourceType": "Questionnaire",
      "id": "12e29b30-7215-4b81-999f-2729baa268d9",
      "identifier": [ {
        "value": "59263"
      } ],
      "version": "2021-04-06T11:29:26.887Z",
      "status": "active",
      "experimental": false,
      "date": "2021-04-06T11:29:26+00:00",
      "publisher": "User ID: 'HADFIELDR' User name: 'Ryan Hadfield' User skill set: 'T3'",
      "lastReviewDate": "2021-04-06",
      "contact": [ {
        "telecom": [ {
          "system": "phone",
          "value": "07777 888888"
        } ]
      } ],
      "subjectType": [ "Patient" ]
    }
  }, {
    "fullUrl": "urn:uuid:fee8bf3e-6736-4387-bee3-22dc2e19fa2b",
    "resource": {
      "resourceType": "QuestionnaireResponse",
      "id": "fee8bf3e-6736-4387-bee3-22dc2e19fa2b",
      "identifier": {
        "value": "59263"
      },
      "questionnaire": {
        "reference": "urn:uuid:100cb4e3-2415-4071-a6a3-a7bd54cf9069"
      },
      "status": "completed",
      "subject": {
        "reference": "urn:uuid:d409cab5-03af-4f77-9a7a-f8397786eee9"
      },
      "context": {
        "reference": "urn:uuid:12062f4b-24ee-44cd-b535-b3e3545417dd"
      },
      "authored": "2021-04-06T11:29:26+00:00"
    }
  }, {
    "fullUrl": "urn:uuid:100cb4e3-2415-4071-a6a3-a7bd54cf9069",
    "resource": {
      "resourceType": "Questionnaire",
      "id": "100cb4e3-2415-4071-a6a3-a7bd54cf9069",
      "identifier": [ {
        "value": "59263"
      } ],
      "version": "2021-04-06T11:29:26.887Z",
      "status": "active",
      "experimental": false,
      "date": "2021-04-06T11:29:26+00:00",
      "publisher": "User ID: 'HADFIELDR' User name: 'Ryan Hadfield' User skill set: 'T3'",
      "lastReviewDate": "2021-04-06",
      "contact": [ {
        "telecom": [ {
          "system": "phone",
          "value": "07777 888888"
        } ]
      } ],
      "subjectType": [ "Patient" ]
    }
  }, {
    "fullUrl": "urn:uuid:a06a8444-1cb2-4f66-b189-dfce2c05242d",
    "resource": {
      "resourceType": "Observation",
      "id": "a06a8444-1cb2-4f66-b189-dfce2c05242d",
      "status": "final",
      "code": {
        "coding": [ {
          "system": "http://snomed.info/sct",
          "code": "33962009",
          "display": "Presenting complaint"
        } ]
      },
      "subject": {
        "reference": "urn:uuid:d409cab5-03af-4f77-9a7a-f8397786eee9"
      },
      "context": {
        "reference": "urn:uuid:12062f4b-24ee-44cd-b535-b3e3545417dd"
      },
      "valueString": "test"
    }
  }, {
    "fullUrl": "urn:uuid:105a9a2b-05a2-49b4-adad-ce85d8e56101",
    "resource": {
      "resourceType": "PractitionerRole",
      "id": "105a9a2b-05a2-49b4-adad-ce85d8e56101",
      "practitioner": {
        "reference": "urn:uuid:d8122d98-187b-499f-aa6c-ac0c929e51c7"
      },
      "organization": {
        "reference": "urn:uuid:96dfec30-2b9b-418a-a08d-13ff7427bb67"
      },
      "code": [ {
        "coding": [ {
          "system": "2.16.840.1.113883.2.1.3.2.4.17.339",
          "code": "DOCTOR",
          "display": "Doctor"
        } ]
      } ]
    }
  }, {
    "fullUrl": "urn:uuid:96dfec30-2b9b-418a-a08d-13ff7427bb67",
    "resource": {
      "resourceType": "Organization",
      "id": "96dfec30-2b9b-418a-a08d-13ff7427bb67",
      "identifier": [ {
        "value": "RYE"
      } ],
      "name": "1.SCAS Administrator (SCAS111)"
    }
  }, {
    "fullUrl": "urn:uuid:52eea329-1a07-4a4e-911f-00629b07b5db",
    "resource": {
      "resourceType": "PractitionerRole",
      "id": "52eea329-1a07-4a4e-911f-00629b07b5db",
      "practitioner": {
        "reference": "urn:uuid:53a38701-2712-40cc-b3b2-2e21fafc6df4"
      },
      "organization": {
        "reference": "urn:uuid:aaed33e7-2cff-4e37-be7f-6a06ebf83e77"
      },
      "code": [ {
        "coding": [ {
          "system": "2.16.840.1.113883.2.1.3.2.4.17.196",
          "code": "R0010",
          "display": "Medical Director"
        } ]
      } ]
    }
  }, {
    "fullUrl": "urn:uuid:aaed33e7-2cff-4e37-be7f-6a06ebf83e77",
    "resource": {
      "resourceType": "Organization",
      "id": "aaed33e7-2cff-4e37-be7f-6a06ebf83e77",
      "identifier": [ {
        "value": "RYE"
      } ],
      "name": "SCAS111"
    }
  }, {
    "fullUrl": "urn:uuid:6bda100b-8920-4e6c-a24f-87590f74de69",
    "resource": {
      "resourceType": "RelatedPerson",
      "id": "6bda100b-8920-4e6c-a24f-87590f74de69",
      "patient": {
        "reference": "urn:uuid:d409cab5-03af-4f77-9a7a-f8397786eee9"
      },
      "relationship": {
        "coding": [ {
          "system": "http://hl7.org/fhir/v2/0131",
          "code": "C",
          "display": "Emergency Contact"
        } ]
      },
      "telecom": [ {
        "system": "phone",
        "value": "tel:000000000000"
      } ]
    }
  }, {
    "fullUrl": "urn:uuid:236dfdc7-db10-43ee-a18a-b04db870c97c",
    "resource": {
      "resourceType": "Device",
      "id": "236dfdc7-db10-43ee-a18a-b04db870c97c",
      "model": "111 Adaptor",
      "version": "1.0.3"
    }
  }, {
    "fullUrl": "urn:uuid:add1d743-12e1-4859-afa6-728f12fcfd8e",
    "resource": {
      "resourceType": "List",
      "id": "add1d743-12e1-4859-afa6-728f12fcfd8e",
      "status": "current",
      "mode": "working",
      "title": "111 Report List",
      "code": {
        "coding": [ {
          "system": "http://snomed.info/sct",
          "code": "225390008",
          "display": "Triage"
        } ]
      },
      "subject": {
        "reference": "urn:uuid:d409cab5-03af-4f77-9a7a-f8397786eee9"
      },
      "encounter": {
        "reference": "urn:uuid:12062f4b-24ee-44cd-b535-b3e3545417dd"
      },
      "date": "2021-04-06T11:29:27+00:00",
      "source": {
        "reference": "urn:uuid:236dfdc7-db10-43ee-a18a-b04db870c97c"
      },
      "orderedBy": {
        "coding": [ {
          "system": "http://hl7.org/fhir/list-order",
          "code": "event-date",
          "display": "Sorted by Event Date"
        } ]
      },
      "entry": [ {
        "item": {
          "reference": "urn:uuid:720c401d-a380-4c08-8e4d-fe83edb43161"
        }
      }, {
        "item": {
          "reference": "urn:uuid:a06a8444-1cb2-4f66-b189-dfce2c05242d"
        }
      }, {
        "item": {
          "reference": "urn:uuid:d8122d98-187b-499f-aa6c-ac0c929e51c7"
        }
      }, {
        "item": {
          "reference": "urn:uuid:53a38701-2712-40cc-b3b2-2e21fafc6df4"
        }
      }, {
        "item": {
          "reference": "urn:uuid:ecaab0a3-43fc-4b93-9b14-09498b6d69dd"
        }
      }, {
        "item": {
          "reference": "urn:uuid:e303521f-00a5-40ef-9e17-c68c9eb544ab"
        }
      }, {
        "item": {
          "reference": "urn:uuid:96dfec30-2b9b-418a-a08d-13ff7427bb67"
        }
      }, {
        "item": {
          "reference": "urn:uuid:aaed33e7-2cff-4e37-be7f-6a06ebf83e77"
        }
      }, {
        "item": {
          "reference": "urn:uuid:d3b40d51-0b71-4de5-b470-0f905c88337f"
        }
      }, {
        "item": {
          "reference": "urn:uuid:6bda100b-8920-4e6c-a24f-87590f74de69"
        }
      }, {
        "item": {
          "reference": "urn:uuid:47b3dc4e-2307-4722-bc87-c7ad361f2f8c"
        }
      }, {
        "item": {
          "reference": "urn:uuid:201798c9-77c5-4f94-a923-c88628633dcc"
        }
      }, {
        "item": {
          "reference": "urn:uuid:e4269638-81f8-4a4e-995e-55feeebffcd2"
        }
      }, {
        "item": {
          "reference": "urn:uuid:435b89e2-9f16-4ec7-aa5b-014b8908b203"
        }
      }, {
        "item": {
          "reference": "urn:uuid:aad18035-f061-4dda-88e3-3b8e89095b78"
        }
      }, {
        "item": {
          "reference": "urn:uuid:743ca6d4-699b-4e71-abc8-e6db4fe760d1"
        }
      }, {
        "item": {
          "reference": "urn:uuid:89c927e8-ed63-4555-81de-ffe122a713f6"
        }
      }, {
        "item": {
          "reference": "urn:uuid:6bebd884-6707-4dde-92c0-cc67f63ad868"
        }
      }, {
        "item": {
          "reference": "urn:uuid:2569c4f8-b8ce-40a3-9a69-7472a5a93e15"
        }
      }, {
        "item": {
          "reference": "urn:uuid:d4d09f6b-5b30-4ec8-92e6-1a7dd33d9f6e"
        }
      }, {
        "item": {
          "reference": "urn:uuid:a71e4608-872b-47f9-b3e1-b71954069286"
        }
      }, {
        "item": {
          "reference": "urn:uuid:1f28a08c-9d8f-47e0-bf25-7499e1ed6e6a"
        }
      }, {
        "item": {
          "reference": "urn:uuid:0b7d389f-d6fb-447b-beb9-8aaa70af56dc"
        }
      }, {
        "item": {
          "reference": "urn:uuid:bbbf71ae-c114-4052-b1c5-00f28393100f"
        }
      }, {
        "item": {
          "reference": "urn:uuid:1e7e5f2b-15c9-437b-b9c8-b15e1ddffec4"
        }
      }, {
        "item": {
          "reference": "urn:uuid:b500da36-5c4e-47b5-9d2c-119355b17b84"
        }
      }, {
        "item": {
          "reference": "urn:uuid:e317a877-f90c-49b1-b34d-2caacc26dbfe"
        }
      }, {
        "item": {
          "reference": "urn:uuid:6fbe1818-d5b4-4f93-8646-3dda94841b19"
        }
      }, {
        "item": {
          "reference": "urn:uuid:c217d660-eaa9-495e-9de1-a7d0a21c191f"
        }
      }, {
        "item": {
          "reference": "urn:uuid:61844210-b8ca-434b-ae04-32fa522276ef"
        }
      }, {
        "item": {
          "reference": "urn:uuid:5b395bf0-add8-43a4-861c-45c50873539b"
        }
      }, {
        "item": {
          "reference": "urn:uuid:bb63fae9-e579-4d89-bf8d-180439d13dff"
        }
      }, {
        "item": {
          "reference": "urn:uuid:4c564079-6662-4910-8755-8e9f3478980a"
        }
      }, {
        "item": {
          "reference": "urn:uuid:1a2b71fd-7843-4e4d-a0d4-96423aecef6b"
        }
      }, {
        "item": {
          "reference": "urn:uuid:cd1b791d-bb51-4f43-8058-b062509aff09"
        }
      }, {
        "item": {
          "reference": "urn:uuid:c4db3d17-9ed3-436a-8f7c-cb42d8f8ce6c"
        }
      }, {
        "item": {
          "reference": "urn:uuid:c717cf44-c1ec-4e8e-a091-4e78863d5351"
        }
      }, {
        "item": {
          "reference": "urn:uuid:13dd905f-e446-413a-96ac-0ece4817bb81"
        }
      }, {
        "item": {
          "reference": "urn:uuid:23b0e825-5233-433d-a25e-950ad8dfd622"
        }
      }, {
        "item": {
          "reference": "urn:uuid:2a42638a-29e2-4213-b137-729775e488ba"
        }
      }, {
        "item": {
          "reference": "urn:uuid:9ccbca6b-2ce5-4ecc-aecf-ce667067b3ad"
        }
      }, {
        "item": {
          "reference": "urn:uuid:c94d3362-aac0-4fd9-8dfd-abd32635f96e"
        }
      }, {
        "item": {
          "reference": "urn:uuid:41653007-d196-4107-b5e4-38bf0af11a1b"
        }
      }, {
        "item": {
          "reference": "urn:uuid:b9ea7fd7-99a8-4da4-a8ef-1da2fa6e2eec"
        }
      }, {
        "item": {
          "reference": "urn:uuid:538c44d4-e1a8-4da5-908c-af238e313e87"
        }
      }, {
        "item": {
          "reference": "urn:uuid:a77a1d18-6679-4ef2-ba26-4684607a1bb1"
        }
      }, {
        "item": {
          "reference": "urn:uuid:5bd10742-bfd8-46d5-a95b-066f1d1e5a4d"
        }
      }, {
        "item": {
          "reference": "urn:uuid:1d6937b1-162b-4a5c-811d-50052b5d4274"
        }
      }, {
        "item": {
          "reference": "urn:uuid:7765a927-ce90-4a55-b638-9e2752b2db76"
        }
      }, {
        "item": {
          "reference": "urn:uuid:100cb4e3-2415-4071-a6a3-a7bd54cf9069"
        }
      }, {
        "item": {
          "reference": "urn:uuid:0177de5f-95ac-490a-897d-c906a5a21207"
        }
      }, {
        "item": {
          "reference": "urn:uuid:6eafd79f-8624-4c22-8819-1b5073804ec3"
        }
      }, {
        "item": {
          "reference": "urn:uuid:c4a715d3-c606-4ff8-b8ba-285a16b5064c"
        }
      }, {
        "item": {
          "reference": "urn:uuid:61280337-21d5-431c-9ece-a7115e15e166"
        }
      }, {
        "item": {
          "reference": "urn:uuid:b35c0fa6-70fa-42f3-a461-cc1be9845d1d"
        }
      }, {
        "item": {
          "reference": "urn:uuid:833dd9ea-2d0e-48c8-8285-662a9f2217bd"
        }
      }, {
        "item": {
          "reference": "urn:uuid:478f3cef-c54e-4f4b-b765-2d9707c7557f"
        }
      }, {
        "item": {
          "reference": "urn:uuid:3925d092-fd5a-402e-a7eb-aadbeef7b7b4"
        }
      }, {
        "item": {
          "reference": "urn:uuid:4df657ed-ba5f-4aef-b447-b9b395a199f5"
        }
      }, {
        "item": {
          "reference": "urn:uuid:96af9c69-0b27-4794-81da-7c0332a856a4"
        }
      }, {
        "item": {
          "reference": "urn:uuid:3ad29f9f-686b-4a28-9df0-b64e8ac44aa3"
        }
      }, {
        "item": {
          "reference": "urn:uuid:ba170c7e-a515-4b99-b81a-b1727245300e"
        }
      }, {
        "item": {
          "reference": "urn:uuid:3ddeb702-7354-4584-9ce0-ac760d4364e2"
        }
      }, {
        "item": {
          "reference": "urn:uuid:2bc20a8c-73ee-45bc-8f6c-17f37476f3df"
        }
      }, {
        "item": {
          "reference": "urn:uuid:ee08f372-1670-4dcb-8232-acb7d689c312"
        }
      }, {
        "item": {
          "reference": "urn:uuid:86de08b1-19aa-4218-8c8e-4382a289e99d"
        }
      }, {
        "item": {
          "reference": "urn:uuid:5569a48c-d9d1-49b6-aa8f-5274a5367997"
        }
      }, {
        "item": {
          "reference": "urn:uuid:d679f4a3-a86a-4430-a4eb-b6b6dcf9c0a8"
        }
      }, {
        "item": {
          "reference": "urn:uuid:5a105104-06f0-4b84-8c58-f05f24db9ecb"
        }
      }, {
        "item": {
          "reference": "urn:uuid:9643c1d9-d92f-4acf-8177-50fdd76fa34e"
        }
      }, {
        "item": {
          "reference": "urn:uuid:6ed0a24a-84d2-432b-94b6-6ef29fee3747"
        }
      }, {
        "item": {
          "reference": "urn:uuid:8f5d5858-22ce-47d6-a0d5-adbb2978fa31"
        }
      }, {
        "item": {
          "reference": "urn:uuid:0fa9185f-fece-4fc4-817a-ba1e22058060"
        }
      }, {
        "item": {
          "reference": "urn:uuid:7c110332-8813-4e0d-9ac1-94c6112bad59"
        }
      }, {
        "item": {
          "reference": "urn:uuid:12e29b30-7215-4b81-999f-2729baa268d9"
        }
      }, {
        "item": {
          "reference": "urn:uuid:0a350313-c3bf-4c15-aafd-8391b8da6638"
        }
      }, {
        "item": {
          "reference": "urn:uuid:e7c1f5af-90e8-47c7-8345-42d22cff3344"
        }
      }, {
        "item": {
          "reference": "urn:uuid:6b5a511c-dd33-4af9-a4b2-a8c713142300"
        }
      }, {
        "item": {
          "reference": "urn:uuid:823cdad8-527c-4c40-b9e9-93a59c14c6b1"
        }
      }, {
        "item": {
          "reference": "urn:uuid:91eef53a-9dea-4767-98d0-fc4c0f9fd592"
        }
      }, {
        "item": {
          "reference": "urn:uuid:d71b1d4b-cf96-4320-849e-e4926e817654"
        }
      }, {
        "item": {
          "reference": "urn:uuid:30234a15-1237-4e6e-a9b5-a2055e8b4306"
        }
      }, {
        "item": {
          "reference": "urn:uuid:99572e60-5cf1-42c0-9705-680a20211880"
        }
      }, {
        "item": {
          "reference": "urn:uuid:97a98e77-7d65-40c0-9128-ea3cb8280cf7"
        }
      }, {
        "item": {
          "reference": "urn:uuid:0a3f7bd1-9728-4c94-91be-10aebcdfedf0"
        }
      }, {
        "item": {
          "reference": "urn:uuid:e7455f1a-1ba3-4af4-99e4-9e6cc7101ff5"
        }
      }, {
        "item": {
          "reference": "urn:uuid:9698f640-f467-4cbc-bc0a-02e892bf1a3a"
        }
      }, {
        "item": {
          "reference": "urn:uuid:e8ddb7c3-517a-4df7-8869-9e609d771b9d"
        }
      }, {
        "item": {
          "reference": "urn:uuid:db1c43db-b3c0-4f3a-b4ef-b4e86d4ff0e3"
        }
      }, {
        "item": {
          "reference": "urn:uuid:9de53232-d1aa-48ba-ad8c-e652a6ab7df0"
        }
      }, {
        "item": {
          "reference": "urn:uuid:0846e371-366e-490c-87f8-e92f0d818bd3"
        }
      }, {
        "item": {
          "reference": "urn:uuid:0e8532e5-655e-45e3-937e-6adea03fd412"
        }
      }, {
        "item": {
          "reference": "urn:uuid:15a85565-f59d-4fc2-8422-566503cf2295"
        }
      }, {
        "item": {
          "reference": "urn:uuid:1ea4cb7f-e031-4694-9e99-965f4a7f2f1d"
        }
      }, {
        "item": {
          "reference": "urn:uuid:80b3751b-3af0-476e-95b3-ed5273270c99"
        }
      }, {
        "item": {
          "reference": "urn:uuid:ca2e23b7-758a-4913-bc1b-138bf8c5855c"
        }
      }, {
        "item": {
          "reference": "urn:uuid:f62b8131-3048-4b89-afc6-282ce631a185"
        }
      }, {
        "item": {
          "reference": "urn:uuid:8fa8e290-19d8-4c4e-8b09-8388902d4826"
        }
      }, {
        "item": {
          "reference": "urn:uuid:b5086c84-4064-4831-b080-cc7a1fa081ed"
        }
      }, {
        "item": {
          "reference": "urn:uuid:eecd91a5-7851-4e58-9362-086d392f8c47"
        }
      }, {
        "item": {
          "reference": "urn:uuid:7bf515da-81a1-4193-971d-68463fb1b66c"
        }
      }, {
        "item": {
          "reference": "urn:uuid:8d0efa5e-2997-4d02-aef3-b0643fd05cc5"
        }
      }, {
        "item": {
          "reference": "urn:uuid:d35a2733-9416-4e98-8846-442488e12cc9"
        }
      }, {
        "item": {
          "reference": "urn:uuid:6b7bf680-d9f1-4bd9-8ae1-00f3d05613e3"
        }
      }, {
        "item": {
          "reference": "urn:uuid:be613581-e19f-4472-b0b5-3a56d48b93c7"
        }
      }, {
        "item": {
          "reference": "urn:uuid:2061ac02-b663-4298-967c-f33816e921d3"
        }
      }, {
        "item": {
          "reference": "urn:uuid:10ea8a97-867a-4b94-9785-5dc67f660276"
        }
      }, {
        "item": {
          "reference": "urn:uuid:83f7cefd-5aa2-4f07-93d9-cb3c0eff9005"
        }
      }, {
        "item": {
          "reference": "urn:uuid:663fe2cb-fb66-4ad2-8782-f2ed233e8965"
        }
      }, {
        "item": {
          "reference": "urn:uuid:6404c8bd-26ed-46b1-b3b8-2fc99b9d9850"
        }
      }, {
        "item": {
          "reference": "urn:uuid:e29aba3b-3201-4de8-8bf4-25c81625f8ae"
        }
      }, {
        "item": {
          "reference": "urn:uuid:de7fb818-6eee-4711-9639-d07ac8368c37"
        }
      }, {
        "item": {
          "reference": "urn:uuid:fee8bf3e-6736-4387-bee3-22dc2e19fa2b"
        }
      }, {
        "item": {
          "reference": "urn:uuid:159bdacf-11af-48c3-bb05-7bbfc172f9b3"
        }
      }, {
        "item": {
          "reference": "urn:uuid:f1071f66-a00f-4471-833f-598db406e667"
        }
      }, {
        "item": {
          "reference": "urn:uuid:dbedf7cd-af43-4312-b726-89b0004ff67b"
        }
      }, {
        "item": {
          "reference": "urn:uuid:d47f803f-6745-4b98-97ce-58aed5ecaa4d"
        }
      }, {
        "item": {
          "reference": "urn:uuid:119622f5-aab3-4bcc-b397-a0b370e59ccb"
        }
      }, {
        "item": {
          "reference": "urn:uuid:978ddf2d-d867-4c49-8da2-4e823a7c5664"
        }
      }, {
        "item": {
          "reference": "urn:uuid:562291bb-de8a-42a2-94ce-447989d488f0"
        }
      }, {
        "item": {
          "reference": "urn:uuid:b4080d46-bc4b-45d9-9fda-e52b86e96955"
        }
      }, {
        "item": {
          "reference": "urn:uuid:94a41973-5a32-4904-b37c-c2bc5142b546"
        }
      }, {
        "item": {
          "reference": "urn:uuid:9dc315bc-7cec-4e4f-9c31-9fb47a6af7f4"
        }
      }, {
        "item": {
          "reference": "urn:uuid:40225001-6f53-4faf-a33c-f0457bcec196"
        }
      }, {
        "item": {
          "reference": "urn:uuid:643ac296-2779-4a53-81e9-85f3d4ba33ce"
        }
      }, {
        "item": {
          "reference": "urn:uuid:af724407-d4e1-401f-bbce-546813b47c94"
        }
      }, {
        "item": {
          "reference": "urn:uuid:01cec5dd-6795-499a-9476-186924f44baf"
        }
      }, {
        "item": {
          "reference": "urn:uuid:2ea93fde-b702-4c25-9d44-2963a0c392db"
        }
      }, {
        "item": {
          "reference": "urn:uuid:324ad88c-9f61-4184-8034-991b73be4cfb"
        }
      }, {
        "item": {
          "reference": "urn:uuid:26945ca5-117b-410b-83f4-abd9a349145a"
        }
      }, {
        "item": {
          "reference": "urn:uuid:1ba6f43f-7aca-40df-ba16-82dfb8e5d5b8"
        }
      }, {
        "item": {
          "reference": "urn:uuid:618ee4e5-3def-49a3-9a1a-25bcc54a7f31"
        }
      }, {
        "item": {
          "reference": "urn:uuid:0acdd69a-930d-4352-8458-bf24a9d774f0"
        }
      } ]
    }
  } ]
}