{
  "resourceType": "Bundle",
  "identifier": {
    "type": {
      "text": "ClinicalDocument VersionNumber"
    },
    "value": "1"
  },
  "type": "message",
  "entry": [ {
    "fullUrl": "urn:uuid:2F182787-CA39-46F8-9B1C-8E77F3050067",
    "resource": {
      "resourceType": "MessageHeader",
      "id": "2F182787-CA39-46F8-9B1C-8E77F3050067",
      "event": {
        "system": "https://fhir.nhs.uk/STU3/CodeSystem/EventType-1",
        "code": "referral-1",
        "display": "Referral"
      },
      "destination": [ {
        "endpoint": "urn:nhs-uk:addressing:ods:FDH68RPX:DOSServiceID:2000038407"
      } ],
      "timestamp": "2021-04-06T11:29:27.000+00:00",
      "source": {
        "name": "NHS 111 Adaptor",
        "endpoint": "http://localhost:8080/report"
      },
      "reason": {
        "coding": [ {
          "system": "urn:nhs-itk:ns:201005:interaction",
          "code": "urn:nhs-itk:interaction:primaryOutofHourRecipientNHS111CDADocument-v2-0"
        } ]
      }
    }
  }, {
    "fullUrl": "urn:uuid:88dc2508-3a3e-420c-a31c-8610e1656a00",
    "resource": {
      "resourceType": "Encounter",
      "id": "88dc2508-3a3e-420c-a31c-8610e1656a00",
      "identifier": [ {
        "system": "2.16.840.1.113883.2.1.3.2.4.18.34",
        "value": "CAC4BF79-AF64-47E2-8162-53438279E2F9"
      }, {
        "system": "2.16.840.1.113883.2.1.3.2.4.18.35",
        "value": "59263"
      }, {
        "system": "2.16.840.1.113883.2.1.3.2.4.18.49",
        "value": "CAC4BF79-AF64-47E2-8162-53438279E2F9"
      } ],
      "status": "finished",
      "type": [ {
        "text": "111 Encounter Referral"
      } ],
      "subject": {
        "reference": "urn:uuid:aabd7936-28a0-4a40-b6ae-7c699d318846"
      },
      "participant": [ {
        "type": [ {
          "coding": [ {
            "system": "http://hl7.org/fhir/ValueSet/encounter-participant-type",
            "code": "PPRF",
            "display": "Author"
          } ]
        } ],
        "individual": {
          "reference": "urn:uuid:02bd0b9d-8e51-4acb-98ca-5b4081ab6931"
        }
      }, {
        "type": [ {
          "text": "Informant"
        } ],
        "individual": {
          "reference": "urn:uuid:7a65882b-8b2a-48df-a98e-e6bc74323674"
        }
      }, {
        "type": [ {
          "coding": [ {
            "system": "http://hl7.org/fhir/ValueSet/encounter-participant-type",
            "code": "ATND",
            "display": "Responsible Party"
          } ]
        } ],
        "individual": {
          "reference": "urn:uuid:bc643710-97f7-4d26-a3d9-225867daa8f3"
        }
      } ],
      "period": {
        "start": "2021-04-06T11:29:27+00:00"
      },
      "location": [ {
        "location": {
          "reference": "urn:uuid:9ac7872b-dd11-4582-b546-4c3722cbfc17"
        },
        "status": "completed"
      } ],
      "serviceProvider": {
        "reference": "urn:uuid:df778022-23c4-4a83-861f-c031f5977f4f"
      }
    }
  }, {
    "fullUrl": "urn:uuid:df778022-23c4-4a83-861f-c031f5977f4f",
    "resource": {
      "resourceType": "Organization",
      "id": "df778022-23c4-4a83-861f-c031f5977f4f",
      "active": true,
      "type": [ {
        "text": "CST"
      } ],
      "name": "SCAS111"
    }
  }, {
    "fullUrl": "urn:uuid:02bd0b9d-8e51-4acb-98ca-5b4081ab6931",
    "resource": {
      "resourceType": "Practitioner",
      "id": "02bd0b9d-8e51-4acb-98ca-5b4081ab6931",
      "active": true,
      "name": [ {
        "use": "official",
        "family": "Hadfield",
        "given": [ "Ryan" ]
      } ]
    }
  }, {
    "fullUrl": "urn:uuid:7a65882b-8b2a-48df-a98e-e6bc74323674",
    "resource": {
      "resourceType": "RelatedPerson",
      "id": "7a65882b-8b2a-48df-a98e-e6bc74323674",
      "active": true,
      "patient": {
        "reference": "urn:uuid:aabd7936-28a0-4a40-b6ae-7c699d318846"
      },
      "relationship": {
        "coding": [ {
          "system": "2.16.840.1.113883.2.1.3.2.4.16.45",
          "code": "99",
          "display": "Not specified"
        } ]
      },
      "name": [ {
        "text": "Test Caller (Carer - Home)"
      } ],
      "telecom": [ {
        "system": "phone",
        "value": "tel:07777888888",
        "use": "home"
      } ],
      "gender": "unknown"
    }
  }, {
    "fullUrl": "urn:uuid:bc643710-97f7-4d26-a3d9-225867daa8f3",
    "resource": {
      "resourceType": "Practitioner",
      "id": "bc643710-97f7-4d26-a3d9-225867daa8f3",
      "active": true,
      "name": [ {
        "use": "official",
        "family": "Black",
        "given": [ "John" ]
      } ]
    }
  }, {
    "fullUrl": "urn:uuid:9ac7872b-dd11-4582-b546-4c3722cbfc17",
    "resource": {
      "resourceType": "Location",
      "id": "9ac7872b-dd11-4582-b546-4c3722cbfc17",
      "name": "Incident Location",
      "address": {
        "type": "physical",
        "line": [ "12A", "Otter Close", "Bishopstoke", "Eastleigh", "Hampshire" ],
        "postalCode": "SO50 8NF"
      }
    }
  }, {
    "fullUrl": "urn:uuid:aabd7936-28a0-4a40-b6ae-7c699d318846",
    "resource": {
      "resourceType": "Patient",
      "id": "aabd7936-28a0-4a40-b6ae-7c699d318846",
      "identifier": [ {
        "extension": [ {
          "url": "https://fhir.hl7.org.uk/STU3/StructureDefinition/Extension-CareConnect-NHSNumberVerificationStatus-1",
          "valueCodeableConcept": {
            "coding": [ {
              "system": "https://fhir.hl7.org.uk/STU3/StructureDefinition/Extension-CareConnect-NHSNumberVerificationStatus-1",
              "code": "02"
            } ]
          }
        } ],
        "system": "https://fhir.nhs.uk/Id/nhs-number",
        "value": "0000000000"
      } ],
      "active": true,
      "name": [ {
        "use": "official",
        "family": "Testone",
        "given": [ "Test" ]
      } ],
      "telecom": [ {
        "system": "phone",
        "value": "tel:000000000000",
        "use": "home"
      }, {
        "system": "phone",
        "value": "tel:01111111111",
        "use": "mobile"
      }, {
        "system": "phone",
        "value": "tel:000000000000"
      } ],
      "gender": "female",
      "birthDate": "1980-01-01",
      "address": [ {
        "use": "home",
        "line": [ "Southern House", "Sparrowgrove", "Otterbourne", "Winchester", "Hampshire" ],
        "postalCode": "SO21 2RU"
      }, {
        "type": "physical",
        "line": [ "12A", "Otter Close", "Bishopstoke", "Eastleigh", "Hampshire" ],
        "postalCode": "SO50 8NF"
      } ]
    }
  }, {
    "fullUrl": "urn:uuid:d6fb3b6d-a718-493a-9c81-2b68e2c874c8",
    "resource": {
      "resourceType": "HealthcareService",
      "id": "d6fb3b6d-a718-493a-9c81-2b68e2c874c8",
      "active": true,
      "providedBy": {
        "reference": "urn:uuid:2b867f05-8a77-43ef-9320-5aa8e1e44e8e"
      },
      "location": [ {
        "reference": "urn:uuid:37737c50-dc45-4da9-9ad3-10bf32f373ca"
      } ],
      "name": "Lloyds Pharmacy, Stokewood Close, Fair Oak, Eastleigh"
    }
  }, {
    "fullUrl": "urn:uuid:37737c50-dc45-4da9-9ad3-10bf32f373ca",
    "resource": {
      "resourceType": "Location",
      "id": "37737c50-dc45-4da9-9ad3-10bf32f373ca",
      "managingOrganization": {
        "reference": "urn:uuid:2b867f05-8a77-43ef-9320-5aa8e1e44e8e"
      }
    }
  }, {
    "fullUrl": "urn:uuid:2b867f05-8a77-43ef-9320-5aa8e1e44e8e",
    "resource": {
      "resourceType": "Organization",
      "id": "2b867f05-8a77-43ef-9320-5aa8e1e44e8e",
      "identifier": [ {
        "value": "FDH68RPX"
      } ],
      "type": [ {
        "coding": [ {
          "code": "PRCP",
          "display": "Lloyds Pharmacy, Stokewood Close, Fair Oak, Eastleigh"
        } ]
      } ],
      "name": "Lloyds Pharmacy, Stokewood Close, Fair Oak, Eastleigh"
    }
  }, {
    "fullUrl": "urn:uuid:2496fadc-0631-4ae6-ae1d-bd16f7ea8a95",
    "resource": {
      "resourceType": "ReferralRequest",
      "id": "2496fadc-0631-4ae6-ae1d-bd16f7ea8a95",
      "status": "active",
      "intent": "plan",
      "priority": "routine",
      "subject": {
        "reference": "urn:uuid:aabd7936-28a0-4a40-b6ae-7c699d318846"
      },
      "context": {
        "reference": "urn:uuid:88dc2508-3a3e-420c-a31c-8610e1656a00"
      },
      "occurrencePeriod": {
        "start": "2021-09-29T10:03:06+00:00",
        "end": "2021-09-29T11:03:06+00:00"
      },
      "authoredOn": "2021-04-06T11:29:25+00:00",
      "requester": {
        "agent": {
          "reference": "urn:uuid:d7815eb3-46dd-461c-b285-21d607e81e1d"
        },
        "onBehalfOf": {
          "reference": "urn:uuid:df778022-23c4-4a83-861f-c031f5977f4f"
        }
      },
      "recipient": [ {
        "reference": "urn:uuid:d6fb3b6d-a718-493a-9c81-2b68e2c874c8"
      } ],
      "reasonReference": [ {
        "reference": "urn:uuid:438035b8-c1e5-4909-b75f-d0fdfe611846"
      } ],
      "supportingInfo": [ {
        "reference": "urn:uuid:228c5242-4731-4921-928d-276456d117fb"
      } ]
    }
  }, {
    "fullUrl": "urn:uuid:228c5242-4731-4921-928d-276456d117fb",
    "resource": {
      "resourceType": "ProcedureRequest",
      "id": "228c5242-4731-4921-928d-276456d117fb",
      "status": "active",
      "intent": "plan",
      "priority": "routine",
      "doNotPerform": false,
      "code": {
        "coding": [ {
          "system": "2.16.840.1.113883.2.1.3.2.4.17.325",
          "code": "Dx86",
          "display": "Repeat Prescription required within 12 hours"
        } ]
      },
      "subject": {
        "reference": "urn:uuid:aabd7936-28a0-4a40-b6ae-7c699d318846"
      },
      "occurrencePeriod": {
        "start": "2021-09-29T10:03:06+00:00",
        "end": "2021-09-29T11:03:06+00:00"
      },
      "reasonReference": [ {
        "reference": "urn:uuid:438035b8-c1e5-4909-b75f-d0fdfe611846"
      } ]
    }
  }, {
    "fullUrl": "urn:uuid:9bd42fb3-2186-4518-b2c5-1a76ca19a2aa",
    "resource": {
      "resourceType": "Composition",
      "id": "9bd42fb3-2186-4518-b2c5-1a76ca19a2aa",
      "identifier": {
        "use": "usual",
        "value": "B66502CD-A9B4-4F3E-83EB-981F572C2C91"
      },
      "status": "final",
      "type": {
        "coding": [ {
          "system": "http://snomed.info/sct",
          "code": "371531000",
          "display": "Report of clinical encounter (record artifact)"
        } ]
      },
      "subject": {
        "reference": "urn:uuid:aabd7936-28a0-4a40-b6ae-7c699d318846"
      },
      "encounter": {
        "reference": "urn:uuid:88dc2508-3a3e-420c-a31c-8610e1656a00"
      },
      "date": "2021-09-29T10:03:06+00:00",
      "author": [ {
        "reference": "urn:uuid:02bd0b9d-8e51-4acb-98ca-5b4081ab6931"
      } ],
      "title": "111 Report",
      "confidentiality": "N",
      "section": [ {
        "section": [ {
          "title": "Patient's Reported Condition",
          "text": {
            "status": "generated",
            "div": "<div xmlns=\"http://www.w3.org/1999/xhtml\">&lt;content&gt;test&lt;/content&gt;\n                                                    &lt;br/&gt;</div>"
          }
        }, {
          "title": "Pathways Disposition",
          "text": {
            "status": "generated",
            "div": "<div xmlns=\"http://www.w3.org/1999/xhtml\">Repeat Prescription required within 12 hours (Dx86)                                         &lt;br/&gt;\n                                                    &lt;br/&gt;                                         Selected service: Lloyds Pharmacy, Stokewood Close, Fair Oak, Eastle&lt;br/&gt;</div>"
          }
        }, {
          "title": "Consultation Summary",
          "text": {
            "status": "generated",
            "div": "<div xmlns=\"http://www.w3.org/1999/xhtml\">Prescription request&lt;br/&gt;Not enough medication until surgery opens&lt;br/&gt;No medication available&lt;br/&gt;Next dose due within next 12 hours&lt;br/&gt;</div>"
          }
        }, {
          "title": "Pathways Assessment",
          "text": {
            "status": "generated",
            "div": "<div xmlns=\"http://www.w3.org/1999/xhtml\">Reason for call menu - continued to next list.&lt;br/&gt;A prescription request was the main reason for the contact.&lt;br/&gt;The main reason for the contact was not a new or worsening illness.&lt;br/&gt;The individual did not have enough medication to last until the surgery next opened.&lt;br/&gt;The medication was suitable for repeat prescribing without further consultation.&lt;br/&gt;The individual had no medication available.&lt;br/&gt;The next dose was due within 12 hours.&lt;br/&gt;Instructions given were: The individual needs a repeat prescription.&lt;br/&gt;Directory of Services referral: Lloyds Pharmacy, Stokewood Close, Fair Oak, Eastleigh&lt;br/&gt;</div>"
          }
        }, {
          "title": "Advice Given",
          "text": {
            "status": "generated",
            "div": "<div xmlns=\"http://www.w3.org/1999/xhtml\">IF THE RECOMMENDED TIMEFRAME FALLS OUTSIDE OPENING HOURS: I will arrange for a clinician to speak to the individual.&lt;br/&gt;\n                                                    &lt;br/&gt;</div>"
          }
        }, {
          "title": "Information And Advice Given"
        }, {
          "title": "Disposition",
          "text": {
            "status": "generated",
            "div": "<div xmlns=\"http://www.w3.org/1999/xhtml\">&lt;content&gt;Repeat Prescription required within 12 hours&lt;br/&gt;\n                                                    &lt;/content&gt;\n                                                    &lt;br/&gt;\n                                                    &lt;br/&gt;</div>"
          }
        } ]
      }, {
        "title": "CarePlan",
        "entry": [ {
          "reference": "urn:uuid:ead762d7-efcc-42fb-9a6a-9839a82c023a"
        } ]
      }, {
        "title": "ReferralRequest",
        "entry": [ {
          "reference": "urn:uuid:2496fadc-0631-4ae6-ae1d-bd16f7ea8a95"
        } ]
      }, {
        "title": "QuestionnaireResponse",
        "entry": [ {
          "reference": "urn:uuid:16785590-db95-4ca3-acf8-8471fc1026cb"
        } ]
      }, {
        "title": "QuestionnaireResponse",
        "entry": [ {
          "reference": "urn:uuid:6485327e-760a-4a5a-955a-b79be4192591"
        } ]
      }, {
        "title": "QuestionnaireResponse",
        "entry": [ {
          "reference": "urn:uuid:cab9a183-5289-4625-af20-c61bb0980b41"
        } ]
      }, {
        "title": "QuestionnaireResponse",
        "entry": [ {
          "reference": "urn:uuid:78ccd485-61c7-4f88-b33f-638da081ac55"
        } ]
      }, {
        "title": "QuestionnaireResponse",
        "entry": [ {
          "reference": "urn:uuid:2ded902a-154a-4b7b-a333-6e01f6bd03ce"
        } ]
      }, {
        "title": "QuestionnaireResponse",
        "entry": [ {
          "reference": "urn:uuid:80c5748f-a51a-49a2-bffb-c8fa80664ae6"
        } ]
      }, {
        "title": "QuestionnaireResponse",
        "entry": [ {
          "reference": "urn:uuid:b8badbd7-2d41-4c26-99a3-de2814c01a3c"
        } ]
      }, {
        "title": "QuestionnaireResponse",
        "entry": [ {
          "reference": "urn:uuid:1fd70291-eda2-4ae4-ab5a-69e734b5e2cb"
        } ]
      }, {
        "title": "QuestionnaireResponse",
        "entry": [ {
          "reference": "urn:uuid:e29ff3db-52b7-4200-b9f9-9a6929480cb3"
        } ]
      }, {
        "title": "QuestionnaireResponse",
        "entry": [ {
          "reference": "urn:uuid:137f3351-c7da-45b6-9139-c3e39e6978de"
        } ]
      }, {
        "title": "QuestionnaireResponse",
        "entry": [ {
          "reference": "urn:uuid:faa90f21-630a-47a4-8b97-9b52646e7096"
        } ]
      }, {
        "title": "QuestionnaireResponse",
        "entry": [ {
          "reference": "urn:uuid:27187d9d-051d-4079-ac12-6347a3a72958"
        } ]
      }, {
        "title": "QuestionnaireResponse",
        "entry": [ {
          "reference": "urn:uuid:53a632b1-ecaf-4d51-89d9-e7556f5a52d2"
        } ]
      }, {
        "title": "QuestionnaireResponse",
        "entry": [ {
          "reference": "urn:uuid:29d4d9a2-c0a0-4bb3-9605-2e2c2f1bab92"
        } ]
      }, {
        "title": "QuestionnaireResponse",
        "entry": [ {
          "reference": "urn:uuid:3eb47c17-827a-4298-bb68-bed7c7776c37"
        } ]
      }, {
        "title": "QuestionnaireResponse",
        "entry": [ {
          "reference": "urn:uuid:1599048b-7d5f-4cd7-a21e-64ce6a4ac523"
        } ]
      }, {
        "title": "QuestionnaireResponse",
        "entry": [ {
          "reference": "urn:uuid:4afe38d4-deee-4cdc-b38e-0fc6af136180"
        } ]
      }, {
        "title": "QuestionnaireResponse",
        "entry": [ {
          "reference": "urn:uuid:ee3cd987-5285-4b2d-8845-0a30fda1ad92"
        } ]
      }, {
        "title": "QuestionnaireResponse",
        "entry": [ {
          "reference": "urn:uuid:be214d61-b47e-454b-8ce7-ec63c2b0cb88"
        } ]
      }, {
        "title": "QuestionnaireResponse",
        "entry": [ {
          "reference": "urn:uuid:b8da1040-7077-4190-8c27-6405365a9212"
        } ]
      }, {
        "title": "QuestionnaireResponse",
        "entry": [ {
          "reference": "urn:uuid:08378543-5fb9-423d-b744-a496880fd6a8"
        } ]
      }, {
        "title": "QuestionnaireResponse",
        "entry": [ {
          "reference": "urn:uuid:e11b4951-12c0-41c8-8e76-9d05af6b04df"
        } ]
      }, {
        "title": "QuestionnaireResponse",
        "entry": [ {
          "reference": "urn:uuid:a1c244c2-4dab-4f87-8fd7-4ca7bcb9346f"
        } ]
      }, {
        "title": "QuestionnaireResponse",
        "entry": [ {
          "reference": "urn:uuid:4f484c16-f2fd-4d1a-8afd-11413df4a1cb"
        } ]
      }, {
        "title": "QuestionnaireResponse",
        "entry": [ {
          "reference": "urn:uuid:03c7692f-8761-4a13-8856-3326d9713385"
        } ]
      }, {
        "title": "QuestionnaireResponse",
        "entry": [ {
          "reference": "urn:uuid:da609292-1a23-4a67-b4e8-65fc6284dfff"
        } ]
      }, {
        "title": "QuestionnaireResponse",
        "entry": [ {
          "reference": "urn:uuid:1cfcffe5-85c9-4fb8-be5e-a4164b779594"
        } ]
      }, {
        "title": "QuestionnaireResponse",
        "entry": [ {
          "reference": "urn:uuid:27d888ad-8b70-4449-b64a-40b628f058cd"
        } ]
      }, {
        "title": "QuestionnaireResponse",
        "entry": [ {
          "reference": "urn:uuid:474b5638-725b-4da7-8250-cff0650d8e95"
        } ]
      }, {
        "title": "QuestionnaireResponse",
        "entry": [ {
          "reference": "urn:uuid:112c1730-0c0f-4ff6-a73f-9d6fe985d05b"
        } ]
      }, {
        "title": "QuestionnaireResponse",
        "entry": [ {
          "reference": "urn:uuid:f50d044f-710a-4c3b-8284-f60789d467ac"
        } ]
      }, {
        "title": "QuestionnaireResponse",
        "entry": [ {
          "reference": "urn:uuid:d9c98a2a-0023-4877-b2cf-10e85954bac2"
        } ]
      }, {
        "title": "QuestionnaireResponse",
        "entry": [ {
          "reference": "urn:uuid:f3858208-614d-4aa4-9094-74981fff6832"
        } ]
      }, {
        "title": "QuestionnaireResponse",
        "entry": [ {
          "reference": "urn:uuid:db8faa96-9c3f-427f-b16a-06ead7c2b709"
        } ]
      }, {
        "title": "QuestionnaireResponse",
        "entry": [ {
          "reference": "urn:uuid:a0658f93-28fb-4f36-8185-3ef36ff9eddb"
        } ]
      }, {
        "title": "QuestionnaireResponse",
        "entry": [ {
          "reference": "urn:uuid:b0fbbd2e-34b8-455e-b29e-5d88363bb983"
        } ]
      }, {
        "title": "QuestionnaireResponse",
        "entry": [ {
          "reference": "urn:uuid:fb8fa375-8936-4c27-9e98-4429a01e7585"
        } ]
      }, {
        "title": "QuestionnaireResponse",
        "entry": [ {
          "reference": "urn:uuid:9c6febe5-2ed0-478b-9f76-0fff7ae59a9a"
        } ]
      }, {
        "title": "QuestionnaireResponse",
        "entry": [ {
          "reference": "urn:uuid:2cbe4955-2d11-4b02-9ffd-8ba1974c151b"
        } ]
      }, {
        "title": "QuestionnaireResponse",
        "entry": [ {
          "reference": "urn:uuid:255178af-e281-4445-9e0c-e7bb449440e3"
        } ]
      }, {
        "title": "QuestionnaireResponse",
        "entry": [ {
          "reference": "urn:uuid:3a7e29fd-06de-47dc-a5a7-5ca60c1ee40d"
        } ]
      }, {
        "title": "QuestionnaireResponse",
        "entry": [ {
          "reference": "urn:uuid:89895b09-eb65-48b8-b307-fa081f80224a"
        } ]
      }, {
        "title": "QuestionnaireResponse",
        "entry": [ {
          "reference": "urn:uuid:3abc2cb7-04ce-4edd-9778-e6f80484e311"
        } ]
      }, {
        "title": "QuestionnaireResponse",
        "entry": [ {
          "reference": "urn:uuid:a4869f40-9364-4305-9c6c-442bcfce8aa8"
        } ]
      }, {
        "title": "QuestionnaireResponse",
        "entry": [ {
          "reference": "urn:uuid:43b230de-a677-468f-a2bd-1b7080b85f0c"
        } ]
      }, {
        "title": "QuestionnaireResponse",
        "entry": [ {
          "reference": "urn:uuid:2579ff73-ddb9-4155-b9db-ef8b73a3f4c3"
        } ]
      }, {
        "title": "QuestionnaireResponse",
        "entry": [ {
          "reference": "urn:uuid:9868e821-fb5d-477e-b645-32b4b45385b9"
        } ]
      }, {
        "title": "QuestionnaireResponse",
        "entry": [ {
          "reference": "urn:uuid:f2dd3936-271c-4ec0-a75c-e7de94745586"
        } ]
      }, {
        "title": "QuestionnaireResponse",
        "entry": [ {
          "reference": "urn:uuid:4e22a478-7ad7-4941-966c-5ab8596945ee"
        } ]
      }, {
        "title": "QuestionnaireResponse",
        "entry": [ {
          "reference": "urn:uuid:563189d7-c7d9-454a-8383-72f124440083"
        } ]
      }, {
        "title": "QuestionnaireResponse",
        "entry": [ {
          "reference": "urn:uuid:5f4b8e65-28d0-4e98-a155-5abdca1bb074"
        } ]
      }, {
        "title": "QuestionnaireResponse",
        "entry": [ {
          "reference": "urn:uuid:44c59010-d443-469e-b720-794ab023fa00"
        } ]
      }, {
        "title": "QuestionnaireResponse",
        "entry": [ {
          "reference": "urn:uuid:77d8bd7a-15bd-494b-9698-943ce32bd29b"
        } ]
      }, {
        "title": "QuestionnaireResponse",
        "entry": [ {
          "reference": "urn:uuid:095cf0bc-17f2-46e8-8554-9962d0e31f19"
        } ]
      }, {
        "title": "QuestionnaireResponse",
        "entry": [ {
          "reference": "urn:uuid:62590ee2-b7d6-49b5-94a7-beed15c91060"
        } ]
      }, {
        "title": "QuestionnaireResponse",
        "entry": [ {
          "reference": "urn:uuid:71f85174-6625-4843-81eb-b1ebdb2d8b5e"
        } ]
      }, {
        "title": "QuestionnaireResponse",
        "entry": [ {
          "reference": "urn:uuid:2592176f-7892-41b0-a419-0bc936375535"
        } ]
      }, {
        "title": "QuestionnaireResponse",
        "entry": [ {
          "reference": "urn:uuid:51a86bf3-403f-4937-bf26-500f18e7d796"
        } ]
      }, {
        "title": "QuestionnaireResponse",
        "entry": [ {
          "reference": "urn:uuid:d392790e-4071-407e-91b2-a62e5453693b"
        } ]
      }, {
        "title": "QuestionnaireResponse",
        "entry": [ {
          "reference": "urn:uuid:1c62fa50-c673-4e4d-8b26-19dc79e8168e"
        } ]
      }, {
        "title": "QuestionnaireResponse",
        "entry": [ {
          "reference": "urn:uuid:cacc6748-a337-4f7e-87b9-abe5343df374"
        } ]
      } ]
    }
  }, {
    "fullUrl": "urn:uuid:ead762d7-efcc-42fb-9a6a-9839a82c023a",
    "resource": {
      "resourceType": "CarePlan",
      "id": "ead762d7-efcc-42fb-9a6a-9839a82c023a",
      "status": "completed",
      "intent": "plan",
      "title": "Information And Advice Given",
      "subject": {
        "reference": "urn:uuid:aabd7936-28a0-4a40-b6ae-7c699d318846"
      },
      "context": {
        "reference": "urn:uuid:88dc2508-3a3e-420c-a31c-8610e1656a00"
      },
      "period": {
        "start": "2021-04-06T11:29:27+00:00"
      },
      "addresses": [ {
        "reference": "urn:uuid:438035b8-c1e5-4909-b75f-d0fdfe611846"
      } ]
    }
  }, {
    "fullUrl": "urn:uuid:31e1a5c4-b678-4b5e-b3a5-504578670c6b",
    "resource": {
      "resourceType": "Consent",
      "id": "31e1a5c4-b678-4b5e-b3a5-504578670c6b",
      "identifier": {
        "use": "usual",
        "value": "B66502CD-A9B4-4F3E-83EB-981F572C2C91"
      },
      "status": "active",
      "patient": {
        "reference": "urn:uuid:aabd7936-28a0-4a40-b6ae-7c699d318846"
      },
      "period": {
        "start": "2021-04-06T11:29:27+00:00"
      },
      "consentingParty": [ {
        "reference": "urn:uuid:aabd7936-28a0-4a40-b6ae-7c699d318846"
      } ],
      "action": [ {
        "coding": [ {
          "system": "http://snomed.info/sct",
          "code": "425691002",
          "display": "Consent given for electronic record sharing"
        } ],
        "text": "Consent given for electronic record sharing"
      } ],
      "organization": [ {
        "reference": "urn:uuid:df778022-23c4-4a83-861f-c031f5977f4f"
      } ],
      "policyRule": "http://hl7.org/fhir/ConsentPolicy/opt-out",
      "data": [ {
        "meaning": "related",
        "reference": {
          "reference": "urn:uuid:88dc2508-3a3e-420c-a31c-8610e1656a00"
        }
      } ]
    }
  }, {
    "fullUrl": "urn:uuid:438035b8-c1e5-4909-b75f-d0fdfe611846",
    "resource": {
      "resourceType": "Condition",
      "id": "438035b8-c1e5-4909-b75f-d0fdfe611846",
      "clinicalStatus": "active",
      "verificationStatus": "unknown",
      "subject": {
        "reference": "urn:uuid:aabd7936-28a0-4a40-b6ae-7c699d318846"
      },
      "context": {
        "reference": "urn:uuid:88dc2508-3a3e-420c-a31c-8610e1656a00"
      },
      "evidence": [ {
        "detail": [ {
          "reference": "urn:uuid:16785590-db95-4ca3-acf8-8471fc1026cb"
        } ]
      }, {
        "detail": [ {
          "reference": "urn:uuid:6485327e-760a-4a5a-955a-b79be4192591"
        } ]
      }, {
        "detail": [ {
          "reference": "urn:uuid:cab9a183-5289-4625-af20-c61bb0980b41"
        } ]
      }, {
        "detail": [ {
          "reference": "urn:uuid:78ccd485-61c7-4f88-b33f-638da081ac55"
        } ]
      }, {
        "detail": [ {
          "reference": "urn:uuid:2ded902a-154a-4b7b-a333-6e01f6bd03ce"
        } ]
      }, {
        "detail": [ {
          "reference": "urn:uuid:80c5748f-a51a-49a2-bffb-c8fa80664ae6"
        } ]
      }, {
        "detail": [ {
          "reference": "urn:uuid:b8badbd7-2d41-4c26-99a3-de2814c01a3c"
        } ]
      }, {
        "detail": [ {
          "reference": "urn:uuid:1fd70291-eda2-4ae4-ab5a-69e734b5e2cb"
        } ]
      }, {
        "detail": [ {
          "reference": "urn:uuid:e29ff3db-52b7-4200-b9f9-9a6929480cb3"
        } ]
      }, {
        "detail": [ {
          "reference": "urn:uuid:137f3351-c7da-45b6-9139-c3e39e6978de"
        } ]
      }, {
        "detail": [ {
          "reference": "urn:uuid:faa90f21-630a-47a4-8b97-9b52646e7096"
        } ]
      }, {
        "detail": [ {
          "reference": "urn:uuid:27187d9d-051d-4079-ac12-6347a3a72958"
        } ]
      }, {
        "detail": [ {
          "reference": "urn:uuid:53a632b1-ecaf-4d51-89d9-e7556f5a52d2"
        } ]
      }, {
        "detail": [ {
          "reference": "urn:uuid:29d4d9a2-c0a0-4bb3-9605-2e2c2f1bab92"
        } ]
      }, {
        "detail": [ {
          "reference": "urn:uuid:3eb47c17-827a-4298-bb68-bed7c7776c37"
        } ]
      }, {
        "detail": [ {
          "reference": "urn:uuid:1599048b-7d5f-4cd7-a21e-64ce6a4ac523"
        } ]
      }, {
        "detail": [ {
          "reference": "urn:uuid:4afe38d4-deee-4cdc-b38e-0fc6af136180"
        } ]
      }, {
        "detail": [ {
          "reference": "urn:uuid:ee3cd987-5285-4b2d-8845-0a30fda1ad92"
        } ]
      }, {
        "detail": [ {
          "reference": "urn:uuid:be214d61-b47e-454b-8ce7-ec63c2b0cb88"
        } ]
      }, {
        "detail": [ {
          "reference": "urn:uuid:b8da1040-7077-4190-8c27-6405365a9212"
        } ]
      }, {
        "detail": [ {
          "reference": "urn:uuid:08378543-5fb9-423d-b744-a496880fd6a8"
        } ]
      }, {
        "detail": [ {
          "reference": "urn:uuid:e11b4951-12c0-41c8-8e76-9d05af6b04df"
        } ]
      }, {
        "detail": [ {
          "reference": "urn:uuid:a1c244c2-4dab-4f87-8fd7-4ca7bcb9346f"
        } ]
      }, {
        "detail": [ {
          "reference": "urn:uuid:4f484c16-f2fd-4d1a-8afd-11413df4a1cb"
        } ]
      }, {
        "detail": [ {
          "reference": "urn:uuid:03c7692f-8761-4a13-8856-3326d9713385"
        } ]
      }, {
        "detail": [ {
          "reference": "urn:uuid:da609292-1a23-4a67-b4e8-65fc6284dfff"
        } ]
      }, {
        "detail": [ {
          "reference": "urn:uuid:1cfcffe5-85c9-4fb8-be5e-a4164b779594"
        } ]
      }, {
        "detail": [ {
          "reference": "urn:uuid:27d888ad-8b70-4449-b64a-40b628f058cd"
        } ]
      }, {
        "detail": [ {
          "reference": "urn:uuid:474b5638-725b-4da7-8250-cff0650d8e95"
        } ]
      }, {
        "detail": [ {
          "reference": "urn:uuid:112c1730-0c0f-4ff6-a73f-9d6fe985d05b"
        } ]
      }, {
        "detail": [ {
          "reference": "urn:uuid:f50d044f-710a-4c3b-8284-f60789d467ac"
        } ]
      }, {
        "detail": [ {
          "reference": "urn:uuid:d9c98a2a-0023-4877-b2cf-10e85954bac2"
        } ]
      }, {
        "detail": [ {
          "reference": "urn:uuid:f3858208-614d-4aa4-9094-74981fff6832"
        } ]
      }, {
        "detail": [ {
          "reference": "urn:uuid:db8faa96-9c3f-427f-b16a-06ead7c2b709"
        } ]
      }, {
        "detail": [ {
          "reference": "urn:uuid:a0658f93-28fb-4f36-8185-3ef36ff9eddb"
        } ]
      }, {
        "detail": [ {
          "reference": "urn:uuid:b0fbbd2e-34b8-455e-b29e-5d88363bb983"
        } ]
      }, {
        "detail": [ {
          "reference": "urn:uuid:fb8fa375-8936-4c27-9e98-4429a01e7585"
        } ]
      }, {
        "detail": [ {
          "reference": "urn:uuid:9c6febe5-2ed0-478b-9f76-0fff7ae59a9a"
        } ]
      }, {
        "detail": [ {
          "reference": "urn:uuid:2cbe4955-2d11-4b02-9ffd-8ba1974c151b"
        } ]
      }, {
        "detail": [ {
          "reference": "urn:uuid:255178af-e281-4445-9e0c-e7bb449440e3"
        } ]
      }, {
        "detail": [ {
          "reference": "urn:uuid:3a7e29fd-06de-47dc-a5a7-5ca60c1ee40d"
        } ]
      }, {
        "detail": [ {
          "reference": "urn:uuid:89895b09-eb65-48b8-b307-fa081f80224a"
        } ]
      }, {
        "detail": [ {
          "reference": "urn:uuid:3abc2cb7-04ce-4edd-9778-e6f80484e311"
        } ]
      }, {
        "detail": [ {
          "reference": "urn:uuid:a4869f40-9364-4305-9c6c-442bcfce8aa8"
        } ]
      }, {
        "detail": [ {
          "reference": "urn:uuid:43b230de-a677-468f-a2bd-1b7080b85f0c"
        } ]
      }, {
        "detail": [ {
          "reference": "urn:uuid:2579ff73-ddb9-4155-b9db-ef8b73a3f4c3"
        } ]
      }, {
        "detail": [ {
          "reference": "urn:uuid:9868e821-fb5d-477e-b645-32b4b45385b9"
        } ]
      }, {
        "detail": [ {
          "reference": "urn:uuid:f2dd3936-271c-4ec0-a75c-e7de94745586"
        } ]
      }, {
        "detail": [ {
          "reference": "urn:uuid:4e22a478-7ad7-4941-966c-5ab8596945ee"
        } ]
      }, {
        "detail": [ {
          "reference": "urn:uuid:563189d7-c7d9-454a-8383-72f124440083"
        } ]
      }, {
        "detail": [ {
          "reference": "urn:uuid:5f4b8e65-28d0-4e98-a155-5abdca1bb074"
        } ]
      }, {
        "detail": [ {
          "reference": "urn:uuid:44c59010-d443-469e-b720-794ab023fa00"
        } ]
      }, {
        "detail": [ {
          "reference": "urn:uuid:77d8bd7a-15bd-494b-9698-943ce32bd29b"
        } ]
      }, {
        "detail": [ {
          "reference": "urn:uuid:095cf0bc-17f2-46e8-8554-9962d0e31f19"
        } ]
      }, {
        "detail": [ {
          "reference": "urn:uuid:62590ee2-b7d6-49b5-94a7-beed15c91060"
        } ]
      }, {
        "detail": [ {
          "reference": "urn:uuid:71f85174-6625-4843-81eb-b1ebdb2d8b5e"
        } ]
      }, {
        "detail": [ {
          "reference": "urn:uuid:2592176f-7892-41b0-a419-0bc936375535"
        } ]
      }, {
        "detail": [ {
          "reference": "urn:uuid:51a86bf3-403f-4937-bf26-500f18e7d796"
        } ]
      }, {
        "detail": [ {
          "reference": "urn:uuid:d392790e-4071-407e-91b2-a62e5453693b"
        } ]
      }, {
        "detail": [ {
          "reference": "urn:uuid:1c62fa50-c673-4e4d-8b26-19dc79e8168e"
        } ]
      }, {
        "detail": [ {
          "reference": "urn:uuid:cacc6748-a337-4f7e-87b9-abe5343df374"
        } ]
      } ]
    }
  }, {
    "fullUrl": "urn:uuid:16785590-db95-4ca3-acf8-8471fc1026cb",
    "resource": {
      "resourceType": "QuestionnaireResponse",
      "id": "16785590-db95-4ca3-acf8-8471fc1026cb",
      "identifier": {
        "value": "59263"
      },
      "questionnaire": {
        "reference": "urn:uuid:ccfa84dd-8d01-4839-a329-7f1443aee6eb"
      },
      "status": "completed",
      "subject": {
        "reference": "urn:uuid:aabd7936-28a0-4a40-b6ae-7c699d318846"
      },
      "context": {
        "reference": "urn:uuid:88dc2508-3a3e-420c-a31c-8610e1656a00"
      },
      "authored": "2021-04-06T11:29:26+00:00",
      "item": [ {
        "linkId": "Tx220074",
        "text": "What is the reason for the contact?",
        "answer": [ {
          "valueString": "an injury or other health problem"
        } ]
      } ]
    }
  }, {
    "fullUrl": "urn:uuid:ccfa84dd-8d01-4839-a329-7f1443aee6eb",
    "resource": {
      "resourceType": "Questionnaire",
      "id": "ccfa84dd-8d01-4839-a329-7f1443aee6eb",
      "identifier": [ {
        "value": "59263"
      } ],
      "version": "2021-04-06T11:29:26.887Z",
      "status": "active",
      "experimental": false,
      "date": "2021-04-06T11:29:26+00:00",
      "publisher": "User ID: 'HADFIELDR' User name: 'Ryan Hadfield' User skill set: 'T3'",
      "lastReviewDate": "2021-04-06",
      "contact": [ {
        "telecom": [ {
          "system": "phone",
          "value": "07777 888888"
        } ]
      } ],
      "subjectType": [ "Patient" ],
      "item": [ {
        "linkId": "59263",
        "prefix": "5",
        "text": "What is the reason for the contact?",
        "type": "choice",
        "required": true,
        "repeats": false,
        "option": [ {
          "valueString": "an injury or other health problem, Selected: true"
        }, {
          "valueString": "labour or childbirth, Selected: false"
        }, {
          "valueString": "a need to access another healthcare service, Selected: false"
        }, {
          "valueString": "a healthcare professional requesting contact with another clinician, Selected: false"
        }, {
          "valueString": "a report of results or tests, Selected: false"
        }, {
          "valueString": "a possible failure of contraception, Selected: false"
        }, {
          "valueString": "more, Selected: false"
        } ]
      } ]
    }
  }, {
    "fullUrl": "urn:uuid:6485327e-760a-4a5a-955a-b79be4192591",
    "resource": {
      "resourceType": "QuestionnaireResponse",
      "id": "6485327e-760a-4a5a-955a-b79be4192591",
      "identifier": {
        "value": "59263"
      },
      "questionnaire": {
        "reference": "urn:uuid:55c4e10d-4129-4a28-a0db-9c32355bd880"
      },
      "status": "completed",
      "subject": {
        "reference": "urn:uuid:aabd7936-28a0-4a40-b6ae-7c699d318846"
      },
      "context": {
        "reference": "urn:uuid:88dc2508-3a3e-420c-a31c-8610e1656a00"
      },
      "authored": "2021-04-06T11:29:26+00:00",
      "item": [ {
        "linkId": "Tx221807",
        "text": "STRING:to'Immediatethreatstolife(SPA/OOHversion)'-'Majorbloodloss'stem",
        "answer": [ {
          "valueString": "\"present\""
        } ]
      } ]
    }
  }, {
    "fullUrl": "urn:uuid:55c4e10d-4129-4a28-a0db-9c32355bd880",
    "resource": {
      "resourceType": "Questionnaire",
      "id": "55c4e10d-4129-4a28-a0db-9c32355bd880",
      "identifier": [ {
        "value": "59263"
      } ],
      "version": "2021-04-06T11:29:26.887Z",
      "status": "active",
      "experimental": false,
      "date": "2021-04-06T11:29:26+00:00",
      "publisher": "User ID: 'HADFIELDR' User name: 'Ryan Hadfield' User skill set: 'T3'",
      "lastReviewDate": "2021-04-06",
      "contact": [ {
        "telecom": [ {
          "system": "phone",
          "value": "07777 888888"
        } ]
      } ],
      "subjectType": [ "Patient" ],
      "item": [ {
        "linkId": "59263",
        "prefix": "200",
        "text": "STRING:to'Immediatethreatstolife(SPA/OOHversion)'-'Majorbloodloss'stem",
        "type": "choice",
        "required": true,
        "repeats": false,
        "option": [ {
          "valueString": "\"present\", Selected: true"
        } ]
      } ]
    }
  }, {
    "fullUrl": "urn:uuid:cab9a183-5289-4625-af20-c61bb0980b41",
    "resource": {
      "resourceType": "QuestionnaireResponse",
      "id": "cab9a183-5289-4625-af20-c61bb0980b41",
      "identifier": {
        "value": "59263"
      },
      "questionnaire": {
        "reference": "urn:uuid:46eebdb4-0a75-45de-aaac-9edd2ed222d4"
      },
      "status": "completed",
      "subject": {
        "reference": "urn:uuid:aabd7936-28a0-4a40-b6ae-7c699d318846"
      },
      "context": {
        "reference": "urn:uuid:88dc2508-3a3e-420c-a31c-8610e1656a00"
      },
      "authored": "2021-04-06T11:29:26+00:00"
    }
  }, {
    "fullUrl": "urn:uuid:46eebdb4-0a75-45de-aaac-9edd2ed222d4",
    "resource": {
      "resourceType": "Questionnaire",
      "id": "46eebdb4-0a75-45de-aaac-9edd2ed222d4",
      "identifier": [ {
        "value": "59263"
      } ],
      "version": "2021-04-06T11:29:26.887Z",
      "status": "active",
      "experimental": false,
      "date": "2021-04-06T11:29:26+00:00",
      "publisher": "User ID: 'HADFIELDR' User name: 'Ryan Hadfield' User skill set: 'T3'",
      "lastReviewDate": "2021-04-06",
      "contact": [ {
        "telecom": [ {
          "system": "phone",
          "value": "07777 888888"
        } ]
      } ],
      "subjectType": [ "Patient" ]
    }
  }, {
    "fullUrl": "urn:uuid:78ccd485-61c7-4f88-b33f-638da081ac55",
    "resource": {
      "resourceType": "QuestionnaireResponse",
      "id": "78ccd485-61c7-4f88-b33f-638da081ac55",
      "identifier": {
        "value": "59263"
      },
      "questionnaire": {
        "reference": "urn:uuid:a3055054-684c-4043-9670-7ae655202a41"
      },
      "status": "completed",
      "subject": {
        "reference": "urn:uuid:aabd7936-28a0-4a40-b6ae-7c699d318846"
      },
      "context": {
        "reference": "urn:uuid:88dc2508-3a3e-420c-a31c-8610e1656a00"
      },
      "authored": "2021-04-06T11:29:26+00:00",
      "item": [ {
        "linkId": "Tx221799",
        "text": "STRING:injury,illnessorlabourestablishedinEntryFlow",
        "answer": [ {
          "valueString": "\"present\""
        } ]
      } ]
    }
  }, {
    "fullUrl": "urn:uuid:a3055054-684c-4043-9670-7ae655202a41",
    "resource": {
      "resourceType": "Questionnaire",
      "id": "a3055054-684c-4043-9670-7ae655202a41",
      "identifier": [ {
        "value": "59263"
      } ],
      "version": "2021-04-06T11:29:26.887Z",
      "status": "active",
      "experimental": false,
      "date": "2021-04-06T11:29:26+00:00",
      "publisher": "User ID: 'HADFIELDR' User name: 'Ryan Hadfield' User skill set: 'T3'",
      "lastReviewDate": "2021-04-06",
      "contact": [ {
        "telecom": [ {
          "system": "phone",
          "value": "07777 888888"
        } ]
      } ],
      "subjectType": [ "Patient" ],
      "item": [ {
        "linkId": "59263",
        "prefix": "0",
        "text": "STRING:injury,illnessorlabourestablishedinEntryFlow",
        "type": "choice",
        "required": true,
        "repeats": false,
        "option": [ {
          "valueString": "\"present\", Selected: true"
        } ]
      } ]
    }
  }, {
    "fullUrl": "urn:uuid:2ded902a-154a-4b7b-a333-6e01f6bd03ce",
    "resource": {
      "resourceType": "QuestionnaireResponse",
      "id": "2ded902a-154a-4b7b-a333-6e01f6bd03ce",
      "identifier": {
        "value": "59263"
      },
      "questionnaire": {
        "reference": "urn:uuid:a0548e5b-db0d-4242-a2e8-46f131f551aa"
      },
      "status": "completed",
      "subject": {
        "reference": "urn:uuid:aabd7936-28a0-4a40-b6ae-7c699d318846"
      },
      "context": {
        "reference": "urn:uuid:88dc2508-3a3e-420c-a31c-8610e1656a00"
      },
      "authored": "2021-04-06T11:29:26+00:00",
      "item": [ {
        "linkId": "Tx224120",
        "text": "Have you been bleeding RED BLOOD very heavily IN THE LAST 2 HOURS?"
      } ]
    }
  }, {
    "fullUrl": "urn:uuid:a0548e5b-db0d-4242-a2e8-46f131f551aa",
    "resource": {
      "resourceType": "Questionnaire",
      "id": "a0548e5b-db0d-4242-a2e8-46f131f551aa",
      "identifier": [ {
        "value": "59263"
      } ],
      "version": "2021-04-06T11:29:26.887Z",
      "status": "active",
      "experimental": false,
      "date": "2021-04-06T11:29:26+00:00",
      "publisher": "User ID: 'HADFIELDR' User name: 'Ryan Hadfield' User skill set: 'T3'",
      "lastReviewDate": "2021-04-06",
      "contact": [ {
        "telecom": [ {
          "system": "phone",
          "value": "07777 888888"
        } ]
      } ],
      "subjectType": [ "Patient" ],
      "item": [ {
        "linkId": "59263",
        "prefix": "10100",
        "text": "Have you been bleeding RED BLOOD very heavily IN THE LAST 2 HOURS?",
        "type": "choice",
        "required": true,
        "repeats": false,
        "option": [ {
          "valueString": "yes, Selected: false"
        }, {
          "valueString": "not sure, Selected: false"
        }, {
          "valueString": "no, Selected: false"
        } ]
      } ]
    }
  }, {
    "fullUrl": "urn:uuid:80c5748f-a51a-49a2-bffb-c8fa80664ae6",
    "resource": {
      "resourceType": "QuestionnaireResponse",
      "id": "80c5748f-a51a-49a2-bffb-c8fa80664ae6",
      "identifier": {
        "value": "59263"
      },
      "questionnaire": {
        "reference": "urn:uuid:55e9d535-b45b-42fc-8359-48e688c1ebd6"
      },
      "status": "completed",
      "subject": {
        "reference": "urn:uuid:aabd7936-28a0-4a40-b6ae-7c699d318846"
      },
      "context": {
        "reference": "urn:uuid:88dc2508-3a3e-420c-a31c-8610e1656a00"
      },
      "authored": "2021-04-06T11:29:26+00:00",
      "item": [ {
        "linkId": "Tx220074",
        "text": "What is the reason for the contact?",
        "answer": [ {
          "valueString": "more"
        } ]
      } ]
    }
  }, {
    "fullUrl": "urn:uuid:55e9d535-b45b-42fc-8359-48e688c1ebd6",
    "resource": {
      "resourceType": "Questionnaire",
      "id": "55e9d535-b45b-42fc-8359-48e688c1ebd6",
      "identifier": [ {
        "value": "59263"
      } ],
      "version": "2021-04-06T11:29:26.887Z",
      "status": "active",
      "experimental": false,
      "date": "2021-04-06T11:29:26+00:00",
      "publisher": "User ID: 'HADFIELDR' User name: 'Ryan Hadfield' User skill set: 'T3'",
      "lastReviewDate": "2021-04-06",
      "contact": [ {
        "telecom": [ {
          "system": "phone",
          "value": "07777 888888"
        } ]
      } ],
      "subjectType": [ "Patient" ],
      "item": [ {
        "linkId": "59263",
        "prefix": "5",
        "text": "What is the reason for the contact?",
        "type": "choice",
        "required": true,
        "repeats": false,
        "option": [ {
          "valueString": "an injury or other health problem, Selected: false"
        }, {
          "valueString": "labour or childbirth, Selected: false"
        }, {
          "valueString": "a need to access another healthcare service, Selected: false"
        }, {
          "valueString": "a healthcare professional requesting contact with another clinician, Selected: false"
        }, {
          "valueString": "a report of results or tests, Selected: false"
        }, {
          "valueString": "a possible failure of contraception, Selected: false"
        }, {
          "valueString": "more, Selected: true"
        } ]
      } ]
    }
  }, {
    "fullUrl": "urn:uuid:b8badbd7-2d41-4c26-99a3-de2814c01a3c",
    "resource": {
      "resourceType": "QuestionnaireResponse",
      "id": "b8badbd7-2d41-4c26-99a3-de2814c01a3c",
      "identifier": {
        "value": "59263"
      },
      "questionnaire": {
        "reference": "urn:uuid:bb0fa41c-26fd-430b-807b-c25da5db9a95"
      },
      "status": "completed",
      "subject": {
        "reference": "urn:uuid:aabd7936-28a0-4a40-b6ae-7c699d318846"
      },
      "context": {
        "reference": "urn:uuid:88dc2508-3a3e-420c-a31c-8610e1656a00"
      },
      "authored": "2021-04-06T11:29:26+00:00",
      "item": [ {
        "linkId": "Tx221793",
        "text": "STRING:to'Social&information'-further'Callreason'menu",
        "answer": [ {
          "valueString": "\"present\""
        } ]
      } ]
    }
  }, {
    "fullUrl": "urn:uuid:bb0fa41c-26fd-430b-807b-c25da5db9a95",
    "resource": {
      "resourceType": "Questionnaire",
      "id": "bb0fa41c-26fd-430b-807b-c25da5db9a95",
      "identifier": [ {
        "value": "59263"
      } ],
      "version": "2021-04-06T11:29:26.887Z",
      "status": "active",
      "experimental": false,
      "date": "2021-04-06T11:29:26+00:00",
      "publisher": "User ID: 'HADFIELDR' User name: 'Ryan Hadfield' User skill set: 'T3'",
      "lastReviewDate": "2021-04-06",
      "contact": [ {
        "telecom": [ {
          "system": "phone",
          "value": "07777 888888"
        } ]
      } ],
      "subjectType": [ "Patient" ],
      "item": [ {
        "linkId": "59263",
        "prefix": "600",
        "text": "STRING:to'Social&information'-further'Callreason'menu",
        "type": "choice",
        "required": true,
        "repeats": false,
        "option": [ {
          "valueString": "\"present\", Selected: true"
        } ]
      } ]
    }
  }, {
    "fullUrl": "urn:uuid:1fd70291-eda2-4ae4-ab5a-69e734b5e2cb",
    "resource": {
      "resourceType": "QuestionnaireResponse",
      "id": "1fd70291-eda2-4ae4-ab5a-69e734b5e2cb",
      "identifier": {
        "value": "59263"
      },
      "questionnaire": {
        "reference": "urn:uuid:4a137145-d8eb-4a43-9d00-62add43f6897"
      },
      "status": "completed",
      "subject": {
        "reference": "urn:uuid:aabd7936-28a0-4a40-b6ae-7c699d318846"
      },
      "context": {
        "reference": "urn:uuid:88dc2508-3a3e-420c-a31c-8610e1656a00"
      },
      "authored": "2021-04-06T11:29:26+00:00"
    }
  }, {
    "fullUrl": "urn:uuid:4a137145-d8eb-4a43-9d00-62add43f6897",
    "resource": {
      "resourceType": "Questionnaire",
      "id": "4a137145-d8eb-4a43-9d00-62add43f6897",
      "identifier": [ {
        "value": "59263"
      } ],
      "version": "2021-04-06T11:29:26.887Z",
      "status": "active",
      "experimental": false,
      "date": "2021-04-06T11:29:26+00:00",
      "publisher": "User ID: 'HADFIELDR' User name: 'Ryan Hadfield' User skill set: 'T3'",
      "lastReviewDate": "2021-04-06",
      "contact": [ {
        "telecom": [ {
          "system": "phone",
          "value": "07777 888888"
        } ]
      } ],
      "subjectType": [ "Patient" ]
    }
  }, {
    "fullUrl": "urn:uuid:e29ff3db-52b7-4200-b9f9-9a6929480cb3",
    "resource": {
      "resourceType": "QuestionnaireResponse",
      "id": "e29ff3db-52b7-4200-b9f9-9a6929480cb3",
      "identifier": {
        "value": "59263"
      },
      "questionnaire": {
        "reference": "urn:uuid:c5ea276d-9b7d-4aca-9f85-096dd1672b03"
      },
      "status": "completed",
      "subject": {
        "reference": "urn:uuid:aabd7936-28a0-4a40-b6ae-7c699d318846"
      },
      "context": {
        "reference": "urn:uuid:88dc2508-3a3e-420c-a31c-8610e1656a00"
      },
      "authored": "2021-04-06T11:29:26+00:00",
      "item": [ {
        "linkId": "Tx221804",
        "text": "STRING:transfertofurthermenuquestionestablishedinEntryFlow",
        "answer": [ {
          "valueString": "\"present\""
        } ]
      } ]
    }
  }, {
    "fullUrl": "urn:uuid:c5ea276d-9b7d-4aca-9f85-096dd1672b03",
    "resource": {
      "resourceType": "Questionnaire",
      "id": "c5ea276d-9b7d-4aca-9f85-096dd1672b03",
      "identifier": [ {
        "value": "59263"
      } ],
      "version": "2021-04-06T11:29:26.887Z",
      "status": "active",
      "experimental": false,
      "date": "2021-04-06T11:29:26+00:00",
      "publisher": "User ID: 'HADFIELDR' User name: 'Ryan Hadfield' User skill set: 'T3'",
      "lastReviewDate": "2021-04-06",
      "contact": [ {
        "telecom": [ {
          "system": "phone",
          "value": "07777 888888"
        } ]
      } ],
      "subjectType": [ "Patient" ],
      "item": [ {
        "linkId": "59263",
        "prefix": "41",
        "text": "STRING:transfertofurthermenuquestionestablishedinEntryFlow",
        "type": "choice",
        "required": true,
        "repeats": false,
        "option": [ {
          "valueString": "\"present\", Selected: true"
        } ]
      } ]
    }
  }, {
    "fullUrl": "urn:uuid:137f3351-c7da-45b6-9139-c3e39e6978de",
    "resource": {
      "resourceType": "QuestionnaireResponse",
      "id": "137f3351-c7da-45b6-9139-c3e39e6978de",
      "identifier": {
        "value": "59263"
      },
      "questionnaire": {
        "reference": "urn:uuid:755dd969-d647-49c4-8144-0b2287af540e"
      },
      "status": "completed",
      "subject": {
        "reference": "urn:uuid:aabd7936-28a0-4a40-b6ae-7c699d318846"
      },
      "context": {
        "reference": "urn:uuid:88dc2508-3a3e-420c-a31c-8610e1656a00"
      },
      "authored": "2021-04-06T11:29:26+00:00",
      "item": [ {
        "linkId": "Tx224998",
        "text": "SYSTEM_COVIDLEVEL2",
        "answer": [ {
          "valueString": "==\"covidlevel2\""
        } ]
      } ]
    }
  }, {
    "fullUrl": "urn:uuid:755dd969-d647-49c4-8144-0b2287af540e",
    "resource": {
      "resourceType": "Questionnaire",
      "id": "755dd969-d647-49c4-8144-0b2287af540e",
      "identifier": [ {
        "value": "59263"
      } ],
      "version": "2021-04-06T11:29:26.887Z",
      "status": "active",
      "experimental": false,
      "date": "2021-04-06T11:29:26+00:00",
      "publisher": "User ID: 'HADFIELDR' User name: 'Ryan Hadfield' User skill set: 'T3'",
      "lastReviewDate": "2021-04-06",
      "contact": [ {
        "telecom": [ {
          "system": "phone",
          "value": "07777 888888"
        } ]
      } ],
      "subjectType": [ "Patient" ],
      "item": [ {
        "linkId": "59263",
        "prefix": "5900",
        "text": "SYSTEM_COVIDLEVEL2",
        "type": "choice",
        "required": true,
        "repeats": false,
        "option": [ {
          "valueString": "==\"covidlevel2\", Selected: true"
        }, {
          "valueString": "*, Selected: false"
        } ]
      } ]
    }
  }, {
    "fullUrl": "urn:uuid:faa90f21-630a-47a4-8b97-9b52646e7096",
    "resource": {
      "resourceType": "QuestionnaireResponse",
      "id": "faa90f21-630a-47a4-8b97-9b52646e7096",
      "identifier": {
        "value": "59263"
      },
      "questionnaire": {
        "reference": "urn:uuid:f4abeec8-6083-403f-9b4b-e3936dab6645"
      },
      "status": "completed",
      "subject": {
        "reference": "urn:uuid:aabd7936-28a0-4a40-b6ae-7c699d318846"
      },
      "context": {
        "reference": "urn:uuid:88dc2508-3a3e-420c-a31c-8610e1656a00"
      },
      "authored": "2021-04-06T11:29:26+00:00",
      "item": [ {
        "linkId": "Tx225069",
        "text": "What is the reason for the contact?",
        "answer": [ {
          "valueString": "a prescription request"
        } ]
      } ]
    }
  }, {
    "fullUrl": "urn:uuid:f4abeec8-6083-403f-9b4b-e3936dab6645",
    "resource": {
      "resourceType": "Questionnaire",
      "id": "f4abeec8-6083-403f-9b4b-e3936dab6645",
      "identifier": [ {
        "value": "59263"
      } ],
      "version": "2021-04-06T11:29:26.887Z",
      "status": "active",
      "experimental": false,
      "date": "2021-04-06T11:29:26+00:00",
      "publisher": "User ID: 'HADFIELDR' User name: 'Ryan Hadfield' User skill set: 'T3'",
      "lastReviewDate": "2021-04-06",
      "contact": [ {
        "telecom": [ {
          "system": "phone",
          "value": "07777 888888"
        } ]
      } ],
      "subjectType": [ "Patient" ],
      "item": [ {
        "linkId": "59263",
        "prefix": "6000",
        "text": "What is the reason for the contact?",
        "type": "choice",
        "required": true,
        "repeats": false,
        "option": [ {
          "valueString": "a child protection/vulnerable adult concern (specify), Selected: false"
        }, {
          "valueString": "a social or domestic emergency, Selected: false"
        }, {
          "valueString": "a prescription request, Selected: true"
        }, {
          "valueString": "an appointment request, Selected: false"
        }, {
          "valueString": "a request for health or medication information, Selected: false"
        }, {
          "valueString": "public health alert information, Selected: false"
        } ]
      } ]
    }
  }, {
    "fullUrl": "urn:uuid:27187d9d-051d-4079-ac12-6347a3a72958",
    "resource": {
      "resourceType": "QuestionnaireResponse",
      "id": "27187d9d-051d-4079-ac12-6347a3a72958",
      "identifier": {
        "value": "59263"
      },
      "questionnaire": {
        "reference": "urn:uuid:20346a69-3759-4afe-9b51-4cd53cf4c959"
      },
      "status": "completed",
      "subject": {
        "reference": "urn:uuid:aabd7936-28a0-4a40-b6ae-7c699d318846"
      },
      "context": {
        "reference": "urn:uuid:88dc2508-3a3e-420c-a31c-8610e1656a00"
      },
      "authored": "2021-04-06T11:29:26+00:00",
      "item": [ {
        "linkId": "Tx220957",
        "text": "Is this contact about a new or worsening illness?",
        "answer": [ {
          "valueString": "no"
        } ]
      } ]
    }
  }, {
    "fullUrl": "urn:uuid:20346a69-3759-4afe-9b51-4cd53cf4c959",
    "resource": {
      "resourceType": "Questionnaire",
      "id": "20346a69-3759-4afe-9b51-4cd53cf4c959",
      "identifier": [ {
        "value": "59263"
      } ],
      "version": "2021-04-06T11:29:26.887Z",
      "status": "active",
      "experimental": false,
      "date": "2021-04-06T11:29:26+00:00",
      "publisher": "User ID: 'HADFIELDR' User name: 'Ryan Hadfield' User skill set: 'T3'",
      "lastReviewDate": "2021-04-06",
      "contact": [ {
        "telecom": [ {
          "system": "phone",
          "value": "07777 888888"
        } ]
      } ],
      "subjectType": [ "Patient" ],
      "item": [ {
        "linkId": "59263",
        "prefix": "1400",
        "text": "Is this contact about a new or worsening illness?",
        "type": "choice",
        "required": true,
        "repeats": false,
        "option": [ {
          "valueString": "yes, Selected: false"
        }, {
          "valueString": "not sure, Selected: false"
        }, {
          "valueString": "no, Selected: true"
        } ]
      } ]
    }
  }, {
    "fullUrl": "urn:uuid:53a632b1-ecaf-4d51-89d9-e7556f5a52d2",
    "resource": {
      "resourceType": "QuestionnaireResponse",
      "id": "53a632b1-ecaf-4d51-89d9-e7556f5a52d2",
      "identifier": {
        "value": "59263"
      },
      "questionnaire": {
        "reference": "urn:uuid:e6a7f8ed-5294-4a8a-9700-306f25866d4d"
      },
      "status": "completed",
      "subject": {
        "reference": "urn:uuid:aabd7936-28a0-4a40-b6ae-7c699d318846"
      },
      "context": {
        "reference": "urn:uuid:88dc2508-3a3e-420c-a31c-8610e1656a00"
      },
      "authored": "2021-04-06T11:29:26+00:00",
      "item": [ {
        "linkId": "Tx221352",
        "text": "Have you got enough medication to last until the surgery opens?",
        "answer": [ {
          "valueString": "no"
        } ]
      } ]
    }
  }, {
    "fullUrl": "urn:uuid:e6a7f8ed-5294-4a8a-9700-306f25866d4d",
    "resource": {
      "resourceType": "Questionnaire",
      "id": "e6a7f8ed-5294-4a8a-9700-306f25866d4d",
      "identifier": [ {
        "value": "59263"
      } ],
      "version": "2021-04-06T11:29:26.887Z",
      "status": "active",
      "experimental": false,
      "date": "2021-04-06T11:29:26+00:00",
      "publisher": "User ID: 'HADFIELDR' User name: 'Ryan Hadfield' User skill set: 'T3'",
      "lastReviewDate": "2021-04-06",
      "contact": [ {
        "telecom": [ {
          "system": "phone",
          "value": "07777 888888"
        } ]
      } ],
      "subjectType": [ "Patient" ],
      "item": [ {
        "linkId": "59263",
        "prefix": "1500",
        "text": "Have you got enough medication to last until the surgery opens?",
        "type": "choice",
        "required": true,
        "repeats": false,
        "option": [ {
          "valueString": "yes, Selected: false"
        }, {
          "valueString": "not sure, Selected: false"
        }, {
          "valueString": "no, Selected: true"
        } ]
      } ]
    }
  }, {
    "fullUrl": "urn:uuid:29d4d9a2-c0a0-4bb3-9605-2e2c2f1bab92",
    "resource": {
      "resourceType": "QuestionnaireResponse",
      "id": "29d4d9a2-c0a0-4bb3-9605-2e2c2f1bab92",
      "identifier": {
        "value": "59263"
      },
      "questionnaire": {
        "reference": "urn:uuid:7bf98abb-6d04-4128-855f-8fcda3ae171c"
      },
      "status": "completed",
      "subject": {
        "reference": "urn:uuid:aabd7936-28a0-4a40-b6ae-7c699d318846"
      },
      "context": {
        "reference": "urn:uuid:88dc2508-3a3e-420c-a31c-8610e1656a00"
      },
      "authored": "2021-04-06T11:29:26+00:00"
    }
  }, {
    "fullUrl": "urn:uuid:7bf98abb-6d04-4128-855f-8fcda3ae171c",
    "resource": {
      "resourceType": "Questionnaire",
      "id": "7bf98abb-6d04-4128-855f-8fcda3ae171c",
      "identifier": [ {
        "value": "59263"
      } ],
      "version": "2021-04-06T11:29:26.887Z",
      "status": "active",
      "experimental": false,
      "date": "2021-04-06T11:29:26+00:00",
      "publisher": "User ID: 'HADFIELDR' User name: 'Ryan Hadfield' User skill set: 'T3'",
      "lastReviewDate": "2021-04-06",
      "contact": [ {
        "telecom": [ {
          "system": "phone",
          "value": "07777 888888"
        } ]
      } ],
      "subjectType": [ "Patient" ]
    }
  }, {
    "fullUrl": "urn:uuid:3eb47c17-827a-4298-bb68-bed7c7776c37",
    "resource": {
      "resourceType": "QuestionnaireResponse",
      "id": "3eb47c17-827a-4298-bb68-bed7c7776c37",
      "identifier": {
        "value": "59263"
      },
      "questionnaire": {
        "reference": "urn:uuid:738cb3a9-187b-4ad1-946a-429579e02e61"
      },
      "status": "completed",
      "subject": {
        "reference": "urn:uuid:aabd7936-28a0-4a40-b6ae-7c699d318846"
      },
      "context": {
        "reference": "urn:uuid:88dc2508-3a3e-420c-a31c-8610e1656a00"
      },
      "authored": "2021-04-06T11:29:26+00:00",
      "item": [ {
        "linkId": "Tx224231",
        "text": "FROM WHAT YOU HAVE HEARD IS A CONSULTATION WITH A PRESCRIBER NEEDED?",
        "answer": [ {
          "valueString": "yes"
        } ]
      } ]
    }
  }, {
    "fullUrl": "urn:uuid:738cb3a9-187b-4ad1-946a-429579e02e61",
    "resource": {
      "resourceType": "Questionnaire",
      "id": "738cb3a9-187b-4ad1-946a-429579e02e61",
      "identifier": [ {
        "value": "59263"
      } ],
      "version": "2021-04-06T11:29:26.887Z",
      "status": "active",
      "experimental": false,
      "date": "2021-04-06T11:29:26+00:00",
      "publisher": "User ID: 'HADFIELDR' User name: 'Ryan Hadfield' User skill set: 'T3'",
      "lastReviewDate": "2021-04-06",
      "contact": [ {
        "telecom": [ {
          "system": "phone",
          "value": "07777 888888"
        } ]
      } ],
      "subjectType": [ "Patient" ],
      "item": [ {
        "linkId": "59263",
        "prefix": "0",
        "text": "FROM WHAT YOU HAVE HEARD IS A CONSULTATION WITH A PRESCRIBER NEEDED?",
        "type": "choice",
        "required": true,
        "repeats": false,
        "option": [ {
          "valueString": "yes, Selected: true"
        }, {
          "valueString": "not sure, Selected: false"
        }, {
          "valueString": "no, Selected: false"
        } ]
      } ]
    }
  }, {
    "fullUrl": "urn:uuid:1599048b-7d5f-4cd7-a21e-64ce6a4ac523",
    "resource": {
      "resourceType": "QuestionnaireResponse",
      "id": "1599048b-7d5f-4cd7-a21e-64ce6a4ac523",
      "identifier": {
        "value": "59263"
      },
      "questionnaire": {
        "reference": "urn:uuid:50b80093-b2f9-413a-b131-cd90b6339671"
      },
      "status": "completed",
      "subject": {
        "reference": "urn:uuid:aabd7936-28a0-4a40-b6ae-7c699d318846"
      },
      "context": {
        "reference": "urn:uuid:88dc2508-3a3e-420c-a31c-8610e1656a00"
      },
      "authored": "2021-04-06T11:29:26+00:00",
      "item": [ {
        "linkId": "Tx221367",
        "text": "When is the next dose due?",
        "answer": [ {
          "valueString": "within the next 12 hours"
        } ]
      } ]
    }
  }, {
    "fullUrl": "urn:uuid:50b80093-b2f9-413a-b131-cd90b6339671",
    "resource": {
      "resourceType": "Questionnaire",
      "id": "50b80093-b2f9-413a-b131-cd90b6339671",
      "identifier": [ {
        "value": "59263"
      } ],
      "version": "2021-04-06T11:29:26.887Z",
      "status": "active",
      "experimental": false,
      "date": "2021-04-06T11:29:26+00:00",
      "publisher": "User ID: 'HADFIELDR' User name: 'Ryan Hadfield' User skill set: 'T3'",
      "lastReviewDate": "2021-04-06",
      "contact": [ {
        "telecom": [ {
          "system": "phone",
          "value": "07777 888888"
        } ]
      } ],
      "subjectType": [ "Patient" ],
      "item": [ {
        "linkId": "59263",
        "prefix": "2900",
        "text": "When is the next dose due?",
        "type": "choice",
        "required": true,
        "repeats": false,
        "option": [ {
          "valueString": "within the next 2 hours, Selected: false"
        }, {
          "valueString": "within the next 6 hours, Selected: false"
        }, {
          "valueString": "within the next 12 hours, Selected: true"
        }, {
          "valueString": "over 12 hours time, Selected: false"
        }, {
          "valueString": "not sure, Selected: false"
        } ]
      } ]
    }
  }, {
    "fullUrl": "urn:uuid:4afe38d4-deee-4cdc-b38e-0fc6af136180",
    "resource": {
      "resourceType": "QuestionnaireResponse",
      "id": "4afe38d4-deee-4cdc-b38e-0fc6af136180",
      "identifier": {
        "value": "59263"
      },
      "questionnaire": {
        "reference": "urn:uuid:2a67b1fa-4388-47f6-8c97-fbe4b6d4b083"
      },
      "status": "completed",
      "subject": {
        "reference": "urn:uuid:aabd7936-28a0-4a40-b6ae-7c699d318846"
      },
      "context": {
        "reference": "urn:uuid:88dc2508-3a3e-420c-a31c-8610e1656a00"
      },
      "authored": "2021-04-06T11:29:26+00:00",
      "item": [ {
        "linkId": "Tx221449",
        "text": "STRING:SDPCFullPrimaryCareassessmentandprescribingcapability",
        "answer": [ {
          "valueString": "\"PC full Primary Care assessment and prescribing capability\""
        } ]
      } ]
    }
  }, {
    "fullUrl": "urn:uuid:2a67b1fa-4388-47f6-8c97-fbe4b6d4b083",
    "resource": {
      "resourceType": "Questionnaire",
      "id": "2a67b1fa-4388-47f6-8c97-fbe4b6d4b083",
      "identifier": [ {
        "value": "59263"
      } ],
      "version": "2021-04-06T11:29:26.887Z",
      "status": "active",
      "experimental": false,
      "date": "2021-04-06T11:29:26+00:00",
      "publisher": "User ID: 'HADFIELDR' User name: 'Ryan Hadfield' User skill set: 'T3'",
      "lastReviewDate": "2021-04-06",
      "contact": [ {
        "telecom": [ {
          "system": "phone",
          "value": "07777 888888"
        } ]
      } ],
      "subjectType": [ "Patient" ],
      "item": [ {
        "linkId": "59263",
        "prefix": "3000",
        "text": "STRING:SDPCFullPrimaryCareassessmentandprescribingcapability",
        "type": "choice",
        "required": true,
        "repeats": false,
        "option": [ {
          "valueString": "\"PC full Primary Care assessment and prescribing capability\", Selected: true"
        } ]
      } ]
    }
  }, {
    "fullUrl": "urn:uuid:ee3cd987-5285-4b2d-8845-0a30fda1ad92",
    "resource": {
      "resourceType": "QuestionnaireResponse",
      "id": "ee3cd987-5285-4b2d-8845-0a30fda1ad92",
      "identifier": {
        "value": "59263"
      },
      "questionnaire": {
        "reference": "urn:uuid:703646d1-fe01-4870-aa94-4830d3050680"
      },
      "status": "completed",
      "subject": {
        "reference": "urn:uuid:aabd7936-28a0-4a40-b6ae-7c699d318846"
      },
      "context": {
        "reference": "urn:uuid:88dc2508-3a3e-420c-a31c-8610e1656a00"
      },
      "authored": "2021-04-06T11:29:26+00:00"
    }
  }, {
    "fullUrl": "urn:uuid:703646d1-fe01-4870-aa94-4830d3050680",
    "resource": {
      "resourceType": "Questionnaire",
      "id": "703646d1-fe01-4870-aa94-4830d3050680",
      "identifier": [ {
        "value": "59263"
      } ],
      "version": "2021-04-06T11:29:26.887Z",
      "status": "active",
      "experimental": false,
      "date": "2021-04-06T11:29:26+00:00",
      "publisher": "User ID: 'HADFIELDR' User name: 'Ryan Hadfield' User skill set: 'T3'",
      "lastReviewDate": "2021-04-06",
      "contact": [ {
        "telecom": [ {
          "system": "phone",
          "value": "07777 888888"
        } ]
      } ],
      "subjectType": [ "Patient" ]
    }
  }, {
    "fullUrl": "urn:uuid:be214d61-b47e-454b-8ce7-ec63c2b0cb88",
    "resource": {
      "resourceType": "QuestionnaireResponse",
      "id": "be214d61-b47e-454b-8ce7-ec63c2b0cb88",
      "identifier": {
        "value": "59263"
      },
      "questionnaire": {
        "reference": "urn:uuid:c9d6e489-0c02-45fb-bf02-86afa603b62e"
      },
      "status": "completed",
      "subject": {
        "reference": "urn:uuid:aabd7936-28a0-4a40-b6ae-7c699d318846"
      },
      "context": {
        "reference": "urn:uuid:88dc2508-3a3e-420c-a31c-8610e1656a00"
      },
      "authored": "2021-04-06T11:29:26+00:00",
      "item": [ {
        "linkId": "Tx220074",
        "text": "What is the reason for the contact?",
        "answer": [ {
          "valueString": "an injury or other health problem"
        } ]
      } ]
    }
  }, {
    "fullUrl": "urn:uuid:c9d6e489-0c02-45fb-bf02-86afa603b62e",
    "resource": {
      "resourceType": "Questionnaire",
      "id": "c9d6e489-0c02-45fb-bf02-86afa603b62e",
      "identifier": [ {
        "value": "59263"
      } ],
      "version": "2021-04-06T11:29:26.887Z",
      "status": "active",
      "experimental": false,
      "date": "2021-04-06T11:29:26+00:00",
      "publisher": "User ID: 'HADFIELDR' User name: 'Ryan Hadfield' User skill set: 'T3'",
      "lastReviewDate": "2021-04-06",
      "contact": [ {
        "telecom": [ {
          "system": "phone",
          "value": "07777 888888"
        } ]
      } ],
      "subjectType": [ "Patient" ],
      "item": [ {
        "linkId": "59263",
        "prefix": "5",
        "text": "What is the reason for the contact?",
        "type": "choice",
        "required": true,
        "repeats": false,
        "option": [ {
          "valueString": "an injury or other health problem, Selected: true"
        }, {
          "valueString": "labour or childbirth, Selected: false"
        }, {
          "valueString": "a need to access another healthcare service, Selected: false"
        }, {
          "valueString": "a healthcare professional requesting contact with another clinician, Selected: false"
        }, {
          "valueString": "a report of results or tests, Selected: false"
        }, {
          "valueString": "a possible failure of contraception, Selected: false"
        }, {
          "valueString": "more, Selected: false"
        } ]
      } ]
    }
  }, {
    "fullUrl": "urn:uuid:b8da1040-7077-4190-8c27-6405365a9212",
    "resource": {
      "resourceType": "QuestionnaireResponse",
      "id": "b8da1040-7077-4190-8c27-6405365a9212",
      "identifier": {
        "value": "59263"
      },
      "questionnaire": {
        "reference": "urn:uuid:192b5e7c-b21f-49bd-a6c5-8c9d57a2d6d1"
      },
      "status": "completed",
      "subject": {
        "reference": "urn:uuid:aabd7936-28a0-4a40-b6ae-7c699d318846"
      },
      "context": {
        "reference": "urn:uuid:88dc2508-3a3e-420c-a31c-8610e1656a00"
      },
      "authored": "2021-04-06T11:29:26+00:00",
      "item": [ {
        "linkId": "Tx221807",
        "text": "STRING:to'Immediatethreatstolife(SPA/OOHversion)'-'Majorbloodloss'stem",
        "answer": [ {
          "valueString": "\"present\""
        } ]
      } ]
    }
  }, {
    "fullUrl": "urn:uuid:192b5e7c-b21f-49bd-a6c5-8c9d57a2d6d1",
    "resource": {
      "resourceType": "Questionnaire",
      "id": "192b5e7c-b21f-49bd-a6c5-8c9d57a2d6d1",
      "identifier": [ {
        "value": "59263"
      } ],
      "version": "2021-04-06T11:29:26.887Z",
      "status": "active",
      "experimental": false,
      "date": "2021-04-06T11:29:26+00:00",
      "publisher": "User ID: 'HADFIELDR' User name: 'Ryan Hadfield' User skill set: 'T3'",
      "lastReviewDate": "2021-04-06",
      "contact": [ {
        "telecom": [ {
          "system": "phone",
          "value": "07777 888888"
        } ]
      } ],
      "subjectType": [ "Patient" ],
      "item": [ {
        "linkId": "59263",
        "prefix": "200",
        "text": "STRING:to'Immediatethreatstolife(SPA/OOHversion)'-'Majorbloodloss'stem",
        "type": "choice",
        "required": true,
        "repeats": false,
        "option": [ {
          "valueString": "\"present\", Selected: true"
        } ]
      } ]
    }
  }, {
    "fullUrl": "urn:uuid:08378543-5fb9-423d-b744-a496880fd6a8",
    "resource": {
      "resourceType": "QuestionnaireResponse",
      "id": "08378543-5fb9-423d-b744-a496880fd6a8",
      "identifier": {
        "value": "59263"
      },
      "questionnaire": {
        "reference": "urn:uuid:e32a93b3-a1e0-4f5f-8aba-cecf5e39cb4c"
      },
      "status": "completed",
      "subject": {
        "reference": "urn:uuid:aabd7936-28a0-4a40-b6ae-7c699d318846"
      },
      "context": {
        "reference": "urn:uuid:88dc2508-3a3e-420c-a31c-8610e1656a00"
      },
      "authored": "2021-04-06T11:29:26+00:00"
    }
  }, {
    "fullUrl": "urn:uuid:e32a93b3-a1e0-4f5f-8aba-cecf5e39cb4c",
    "resource": {
      "resourceType": "Questionnaire",
      "id": "e32a93b3-a1e0-4f5f-8aba-cecf5e39cb4c",
      "identifier": [ {
        "value": "59263"
      } ],
      "version": "2021-04-06T11:29:26.887Z",
      "status": "active",
      "experimental": false,
      "date": "2021-04-06T11:29:26+00:00",
      "publisher": "User ID: 'HADFIELDR' User name: 'Ryan Hadfield' User skill set: 'T3'",
      "lastReviewDate": "2021-04-06",
      "contact": [ {
        "telecom": [ {
          "system": "phone",
          "value": "07777 888888"
        } ]
      } ],
      "subjectType": [ "Patient" ]
    }
  }, {
    "fullUrl": "urn:uuid:e11b4951-12c0-41c8-8e76-9d05af6b04df",
    "resource": {
      "resourceType": "QuestionnaireResponse",
      "id": "e11b4951-12c0-41c8-8e76-9d05af6b04df",
      "identifier": {
        "value": "59263"
      },
      "questionnaire": {
        "reference": "urn:uuid:2533813c-c5ec-428a-8d73-63d39eba3f82"
      },
      "status": "completed",
      "subject": {
        "reference": "urn:uuid:aabd7936-28a0-4a40-b6ae-7c699d318846"
      },
      "context": {
        "reference": "urn:uuid:88dc2508-3a3e-420c-a31c-8610e1656a00"
      },
      "authored": "2021-04-06T11:29:26+00:00",
      "item": [ {
        "linkId": "Tx221799",
        "text": "STRING:injury,illnessorlabourestablishedinEntryFlow",
        "answer": [ {
          "valueString": "\"present\""
        } ]
      } ]
    }
  }, {
    "fullUrl": "urn:uuid:2533813c-c5ec-428a-8d73-63d39eba3f82",
    "resource": {
      "resourceType": "Questionnaire",
      "id": "2533813c-c5ec-428a-8d73-63d39eba3f82",
      "identifier": [ {
        "value": "59263"
      } ],
      "version": "2021-04-06T11:29:26.887Z",
      "status": "active",
      "experimental": false,
      "date": "2021-04-06T11:29:26+00:00",
      "publisher": "User ID: 'HADFIELDR' User name: 'Ryan Hadfield' User skill set: 'T3'",
      "lastReviewDate": "2021-04-06",
      "contact": [ {
        "telecom": [ {
          "system": "phone",
          "value": "07777 888888"
        } ]
      } ],
      "subjectType": [ "Patient" ],
      "item": [ {
        "linkId": "59263",
        "prefix": "0",
        "text": "STRING:injury,illnessorlabourestablishedinEntryFlow",
        "type": "choice",
        "required": true,
        "repeats": false,
        "option": [ {
          "valueString": "\"present\", Selected: true"
        } ]
      } ]
    }
  }, {
    "fullUrl": "urn:uuid:a1c244c2-4dab-4f87-8fd7-4ca7bcb9346f",
    "resource": {
      "resourceType": "QuestionnaireResponse",
      "id": "a1c244c2-4dab-4f87-8fd7-4ca7bcb9346f",
      "identifier": {
        "value": "59263"
      },
      "questionnaire": {
        "reference": "urn:uuid:f5f8e368-5cd7-4f5b-be2d-f99e75c4d0c8"
      },
      "status": "completed",
      "subject": {
        "reference": "urn:uuid:aabd7936-28a0-4a40-b6ae-7c699d318846"
      },
      "context": {
        "reference": "urn:uuid:88dc2508-3a3e-420c-a31c-8610e1656a00"
      },
      "authored": "2021-04-06T11:29:26+00:00",
      "item": [ {
        "linkId": "Tx224120",
        "text": "Have you been bleeding RED BLOOD very heavily IN THE LAST 2 HOURS?",
        "answer": [ {
          "valueString": "no"
        } ]
      } ]
    }
  }, {
    "fullUrl": "urn:uuid:f5f8e368-5cd7-4f5b-be2d-f99e75c4d0c8",
    "resource": {
      "resourceType": "Questionnaire",
      "id": "f5f8e368-5cd7-4f5b-be2d-f99e75c4d0c8",
      "identifier": [ {
        "value": "59263"
      } ],
      "version": "2021-04-06T11:29:26.887Z",
      "status": "active",
      "experimental": false,
      "date": "2021-04-06T11:29:26+00:00",
      "publisher": "User ID: 'HADFIELDR' User name: 'Ryan Hadfield' User skill set: 'T3'",
      "lastReviewDate": "2021-04-06",
      "contact": [ {
        "telecom": [ {
          "system": "phone",
          "value": "07777 888888"
        } ]
      } ],
      "subjectType": [ "Patient" ],
      "item": [ {
        "linkId": "59263",
        "prefix": "10100",
        "text": "Have you been bleeding RED BLOOD very heavily IN THE LAST 2 HOURS?",
        "type": "choice",
        "required": true,
        "repeats": false,
        "option": [ {
          "valueString": "yes, Selected: false"
        }, {
          "valueString": "not sure, Selected: false"
        }, {
          "valueString": "no, Selected: true"
        } ]
      } ]
    }
  }, {
    "fullUrl": "urn:uuid:4f484c16-f2fd-4d1a-8afd-11413df4a1cb",
    "resource": {
      "resourceType": "QuestionnaireResponse",
      "id": "4f484c16-f2fd-4d1a-8afd-11413df4a1cb",
      "identifier": {
        "value": "59263"
      },
      "questionnaire": {
        "reference": "urn:uuid:cfe947e7-9913-4fde-a00e-06144eba7f8e"
      },
      "status": "completed",
      "subject": {
        "reference": "urn:uuid:aabd7936-28a0-4a40-b6ae-7c699d318846"
      },
      "context": {
        "reference": "urn:uuid:88dc2508-3a3e-420c-a31c-8610e1656a00"
      },
      "authored": "2021-04-06T11:29:26+00:00",
      "item": [ {
        "linkId": "Tx221343",
        "text": "SocialConcernsExcluded",
        "answer": [ {
          "valueString": "*"
        } ]
      } ]
    }
  }, {
    "fullUrl": "urn:uuid:cfe947e7-9913-4fde-a00e-06144eba7f8e",
    "resource": {
      "resourceType": "Questionnaire",
      "id": "cfe947e7-9913-4fde-a00e-06144eba7f8e",
      "identifier": [ {
        "value": "59263"
      } ],
      "version": "2021-04-06T11:29:26.887Z",
      "status": "active",
      "experimental": false,
      "date": "2021-04-06T11:29:26+00:00",
      "publisher": "User ID: 'HADFIELDR' User name: 'Ryan Hadfield' User skill set: 'T3'",
      "lastReviewDate": "2021-04-06",
      "contact": [ {
        "telecom": [ {
          "system": "phone",
          "value": "07777 888888"
        } ]
      } ],
      "subjectType": [ "Patient" ],
      "item": [ {
        "linkId": "59263",
        "prefix": "1100",
        "text": "SocialConcernsExcluded",
        "type": "choice",
        "required": true,
        "repeats": false,
        "option": [ {
          "valueString": "==\"present\", Selected: false"
        }, {
          "valueString": "*, Selected: true"
        } ]
      } ]
    }
  }, {
    "fullUrl": "urn:uuid:03c7692f-8761-4a13-8856-3326d9713385",
    "resource": {
      "resourceType": "QuestionnaireResponse",
      "id": "03c7692f-8761-4a13-8856-3326d9713385",
      "identifier": {
        "value": "59263"
      },
      "questionnaire": {
        "reference": "urn:uuid:18700f76-0fa5-4cba-a5da-a35d1a33aac6"
      },
      "status": "completed",
      "subject": {
        "reference": "urn:uuid:aabd7936-28a0-4a40-b6ae-7c699d318846"
      },
      "context": {
        "reference": "urn:uuid:88dc2508-3a3e-420c-a31c-8610e1656a00"
      },
      "authored": "2021-04-06T11:29:26+00:00",
      "item": [ {
        "linkId": "Tx130011",
        "text": "What is the main problem?"
      } ]
    }
  }, {
    "fullUrl": "urn:uuid:18700f76-0fa5-4cba-a5da-a35d1a33aac6",
    "resource": {
      "resourceType": "Questionnaire",
      "id": "18700f76-0fa5-4cba-a5da-a35d1a33aac6",
      "identifier": [ {
        "value": "59263"
      } ],
      "version": "2021-04-06T11:29:26.887Z",
      "status": "active",
      "experimental": false,
      "date": "2021-04-06T11:29:26+00:00",
      "publisher": "User ID: 'HADFIELDR' User name: 'Ryan Hadfield' User skill set: 'T3'",
      "lastReviewDate": "2021-04-06",
      "contact": [ {
        "telecom": [ {
          "system": "phone",
          "value": "07777 888888"
        } ]
      } ],
      "subjectType": [ "Patient" ],
      "item": [ {
        "linkId": "59263",
        "prefix": "2300",
        "text": "What is the main problem?",
        "type": "choice",
        "required": true,
        "repeats": false,
        "option": [ {
          "valueString": "the individual has been told to follow a particular course of action (specify), Selected: false"
        }, {
          "valueString": "the individual is an identified frequent caller, Selected: false"
        }, {
          "valueString": "injury (specify), Selected: false"
        }, {
          "valueString": "illness or other health problem (specify), Selected: false"
        }, {
          "valueString": "child protection/vulnerable adult concern, Selected: false"
        }, {
          "valueString": "social or domestic emergency, Selected: false"
        }, {
          "valueString": "the environment potentially poses an immediate threat to life (specify), Selected: false"
        } ]
      } ]
    }
  }, {
    "fullUrl": "urn:uuid:da609292-1a23-4a67-b4e8-65fc6284dfff",
    "resource": {
      "resourceType": "QuestionnaireResponse",
      "id": "da609292-1a23-4a67-b4e8-65fc6284dfff",
      "identifier": {
        "value": "59263"
      },
      "questionnaire": {
        "reference": "urn:uuid:bc219d33-fd3a-4ee6-a605-ab3ee4e6bd57"
      },
      "status": "completed",
      "subject": {
        "reference": "urn:uuid:aabd7936-28a0-4a40-b6ae-7c699d318846"
      },
      "context": {
        "reference": "urn:uuid:88dc2508-3a3e-420c-a31c-8610e1656a00"
      },
      "authored": "2021-04-06T11:29:26+00:00",
      "item": [ {
        "linkId": "Tx220074",
        "text": "What is the reason for the contact?",
        "answer": [ {
          "valueString": "more"
        } ]
      } ]
    }
  }, {
    "fullUrl": "urn:uuid:bc219d33-fd3a-4ee6-a605-ab3ee4e6bd57",
    "resource": {
      "resourceType": "Questionnaire",
      "id": "bc219d33-fd3a-4ee6-a605-ab3ee4e6bd57",
      "identifier": [ {
        "value": "59263"
      } ],
      "version": "2021-04-06T11:29:26.887Z",
      "status": "active",
      "experimental": false,
      "date": "2021-04-06T11:29:26+00:00",
      "publisher": "User ID: 'HADFIELDR' User name: 'Ryan Hadfield' User skill set: 'T3'",
      "lastReviewDate": "2021-04-06",
      "contact": [ {
        "telecom": [ {
          "system": "phone",
          "value": "07777 888888"
        } ]
      } ],
      "subjectType": [ "Patient" ],
      "item": [ {
        "linkId": "59263",
        "prefix": "5",
        "text": "What is the reason for the contact?",
        "type": "choice",
        "required": true,
        "repeats": false,
        "option": [ {
          "valueString": "an injury or other health problem, Selected: false"
        }, {
          "valueString": "labour or childbirth, Selected: false"
        }, {
          "valueString": "a need to access another healthcare service, Selected: false"
        }, {
          "valueString": "a healthcare professional requesting contact with another clinician, Selected: false"
        }, {
          "valueString": "a report of results or tests, Selected: false"
        }, {
          "valueString": "a possible failure of contraception, Selected: false"
        }, {
          "valueString": "more, Selected: true"
        } ]
      } ]
    }
  }, {
    "fullUrl": "urn:uuid:1cfcffe5-85c9-4fb8-be5e-a4164b779594",
    "resource": {
      "resourceType": "QuestionnaireResponse",
      "id": "1cfcffe5-85c9-4fb8-be5e-a4164b779594",
      "identifier": {
        "value": "59263"
      },
      "questionnaire": {
        "reference": "urn:uuid:b97285ba-0d59-4e69-96d1-f75363df35b7"
      },
      "status": "completed",
      "subject": {
        "reference": "urn:uuid:aabd7936-28a0-4a40-b6ae-7c699d318846"
      },
      "context": {
        "reference": "urn:uuid:88dc2508-3a3e-420c-a31c-8610e1656a00"
      },
      "authored": "2021-04-06T11:29:26+00:00",
      "item": [ {
        "linkId": "Tx221793",
        "text": "STRING:to'Social&information'-further'Callreason'menu",
        "answer": [ {
          "valueString": "\"present\""
        } ]
      } ]
    }
  }, {
    "fullUrl": "urn:uuid:b97285ba-0d59-4e69-96d1-f75363df35b7",
    "resource": {
      "resourceType": "Questionnaire",
      "id": "b97285ba-0d59-4e69-96d1-f75363df35b7",
      "identifier": [ {
        "value": "59263"
      } ],
      "version": "2021-04-06T11:29:26.887Z",
      "status": "active",
      "experimental": false,
      "date": "2021-04-06T11:29:26+00:00",
      "publisher": "User ID: 'HADFIELDR' User name: 'Ryan Hadfield' User skill set: 'T3'",
      "lastReviewDate": "2021-04-06",
      "contact": [ {
        "telecom": [ {
          "system": "phone",
          "value": "07777 888888"
        } ]
      } ],
      "subjectType": [ "Patient" ],
      "item": [ {
        "linkId": "59263",
        "prefix": "600",
        "text": "STRING:to'Social&information'-further'Callreason'menu",
        "type": "choice",
        "required": true,
        "repeats": false,
        "option": [ {
          "valueString": "\"present\", Selected: true"
        } ]
      } ]
    }
  }, {
    "fullUrl": "urn:uuid:27d888ad-8b70-4449-b64a-40b628f058cd",
    "resource": {
      "resourceType": "QuestionnaireResponse",
      "id": "27d888ad-8b70-4449-b64a-40b628f058cd",
      "identifier": {
        "value": "59263"
      },
      "questionnaire": {
        "reference": "urn:uuid:e60047bd-261c-455f-9196-aa1e0f30b497"
      },
      "status": "completed",
      "subject": {
        "reference": "urn:uuid:aabd7936-28a0-4a40-b6ae-7c699d318846"
      },
      "context": {
        "reference": "urn:uuid:88dc2508-3a3e-420c-a31c-8610e1656a00"
      },
      "authored": "2021-04-06T11:29:26+00:00"
    }
  }, {
    "fullUrl": "urn:uuid:e60047bd-261c-455f-9196-aa1e0f30b497",
    "resource": {
      "resourceType": "Questionnaire",
      "id": "e60047bd-261c-455f-9196-aa1e0f30b497",
      "identifier": [ {
        "value": "59263"
      } ],
      "version": "2021-04-06T11:29:26.887Z",
      "status": "active",
      "experimental": false,
      "date": "2021-04-06T11:29:26+00:00",
      "publisher": "User ID: 'HADFIELDR' User name: 'Ryan Hadfield' User skill set: 'T3'",
      "lastReviewDate": "2021-04-06",
      "contact": [ {
        "telecom": [ {
          "system": "phone",
          "value": "07777 888888"
        } ]
      } ],
      "subjectType": [ "Patient" ]
    }
  }, {
    "fullUrl": "urn:uuid:474b5638-725b-4da7-8250-cff0650d8e95",
    "resource": {
      "resourceType": "QuestionnaireResponse",
      "id": "474b5638-725b-4da7-8250-cff0650d8e95",
      "identifier": {
        "value": "59263"
      },
      "questionnaire": {
        "reference": "urn:uuid:9e379717-ce56-42d9-8707-85465d862832"
      },
      "status": "completed",
      "subject": {
        "reference": "urn:uuid:aabd7936-28a0-4a40-b6ae-7c699d318846"
      },
      "context": {
        "reference": "urn:uuid:88dc2508-3a3e-420c-a31c-8610e1656a00"
      },
      "authored": "2021-04-06T11:29:26+00:00",
      "item": [ {
        "linkId": "Tx221804",
        "text": "STRING:transfertofurthermenuquestionestablishedinEntryFlow",
        "answer": [ {
          "valueString": "\"present\""
        } ]
      } ]
    }
  }, {
    "fullUrl": "urn:uuid:9e379717-ce56-42d9-8707-85465d862832",
    "resource": {
      "resourceType": "Questionnaire",
      "id": "9e379717-ce56-42d9-8707-85465d862832",
      "identifier": [ {
        "value": "59263"
      } ],
      "version": "2021-04-06T11:29:26.887Z",
      "status": "active",
      "experimental": false,
      "date": "2021-04-06T11:29:26+00:00",
      "publisher": "User ID: 'HADFIELDR' User name: 'Ryan Hadfield' User skill set: 'T3'",
      "lastReviewDate": "2021-04-06",
      "contact": [ {
        "telecom": [ {
          "system": "phone",
          "value": "07777 888888"
        } ]
      } ],
      "subjectType": [ "Patient" ],
      "item": [ {
        "linkId": "59263",
        "prefix": "41",
        "text": "STRING:transfertofurthermenuquestionestablishedinEntryFlow",
        "type": "choice",
        "required": true,
        "repeats": false,
        "option": [ {
          "valueString": "\"present\", Selected: true"
        } ]
      } ]
    }
  }, {
    "fullUrl": "urn:uuid:112c1730-0c0f-4ff6-a73f-9d6fe985d05b",
    "resource": {
      "resourceType": "QuestionnaireResponse",
      "id": "112c1730-0c0f-4ff6-a73f-9d6fe985d05b",
      "identifier": {
        "value": "59263"
      },
      "questionnaire": {
        "reference": "urn:uuid:601f9eb0-128e-4024-89f0-2708ef3fe2eb"
      },
      "status": "completed",
      "subject": {
        "reference": "urn:uuid:aabd7936-28a0-4a40-b6ae-7c699d318846"
      },
      "context": {
        "reference": "urn:uuid:88dc2508-3a3e-420c-a31c-8610e1656a00"
      },
      "authored": "2021-04-06T11:29:26+00:00",
      "item": [ {
        "linkId": "Tx224998",
        "text": "SYSTEM_COVIDLEVEL2",
        "answer": [ {
          "valueString": "==\"covidlevel2\""
        } ]
      } ]
    }
  }, {
    "fullUrl": "urn:uuid:601f9eb0-128e-4024-89f0-2708ef3fe2eb",
    "resource": {
      "resourceType": "Questionnaire",
      "id": "601f9eb0-128e-4024-89f0-2708ef3fe2eb",
      "identifier": [ {
        "value": "59263"
      } ],
      "version": "2021-04-06T11:29:26.887Z",
      "status": "active",
      "experimental": false,
      "date": "2021-04-06T11:29:26+00:00",
      "publisher": "User ID: 'HADFIELDR' User name: 'Ryan Hadfield' User skill set: 'T3'",
      "lastReviewDate": "2021-04-06",
      "contact": [ {
        "telecom": [ {
          "system": "phone",
          "value": "07777 888888"
        } ]
      } ],
      "subjectType": [ "Patient" ],
      "item": [ {
        "linkId": "59263",
        "prefix": "5900",
        "text": "SYSTEM_COVIDLEVEL2",
        "type": "choice",
        "required": true,
        "repeats": false,
        "option": [ {
          "valueString": "==\"covidlevel2\", Selected: true"
        }, {
          "valueString": "*, Selected: false"
        } ]
      } ]
    }
  }, {
    "fullUrl": "urn:uuid:f50d044f-710a-4c3b-8284-f60789d467ac",
    "resource": {
      "resourceType": "QuestionnaireResponse",
      "id": "f50d044f-710a-4c3b-8284-f60789d467ac",
      "identifier": {
        "value": "59263"
      },
      "questionnaire": {
        "reference": "urn:uuid:54a08849-f91e-4676-9266-bc15cb6a92df"
      },
      "status": "completed",
      "subject": {
        "reference": "urn:uuid:aabd7936-28a0-4a40-b6ae-7c699d318846"
      },
      "context": {
        "reference": "urn:uuid:88dc2508-3a3e-420c-a31c-8610e1656a00"
      },
      "authored": "2021-04-06T11:29:26+00:00",
      "item": [ {
        "linkId": "Tx225069",
        "text": "What is the reason for the contact?",
        "answer": [ {
          "valueString": "a prescription request"
        } ]
      } ]
    }
  }, {
    "fullUrl": "urn:uuid:54a08849-f91e-4676-9266-bc15cb6a92df",
    "resource": {
      "resourceType": "Questionnaire",
      "id": "54a08849-f91e-4676-9266-bc15cb6a92df",
      "identifier": [ {
        "value": "59263"
      } ],
      "version": "2021-04-06T11:29:26.887Z",
      "status": "active",
      "experimental": false,
      "date": "2021-04-06T11:29:26+00:00",
      "publisher": "User ID: 'HADFIELDR' User name: 'Ryan Hadfield' User skill set: 'T3'",
      "lastReviewDate": "2021-04-06",
      "contact": [ {
        "telecom": [ {
          "system": "phone",
          "value": "07777 888888"
        } ]
      } ],
      "subjectType": [ "Patient" ],
      "item": [ {
        "linkId": "59263",
        "prefix": "6000",
        "text": "What is the reason for the contact?",
        "type": "choice",
        "required": true,
        "repeats": false,
        "option": [ {
          "valueString": "a child protection/vulnerable adult concern (specify), Selected: false"
        }, {
          "valueString": "a social or domestic emergency, Selected: false"
        }, {
          "valueString": "a prescription request, Selected: true"
        }, {
          "valueString": "an appointment request, Selected: false"
        }, {
          "valueString": "a request for health or medication information, Selected: false"
        }, {
          "valueString": "public health alert information, Selected: false"
        } ]
      } ]
    }
  }, {
    "fullUrl": "urn:uuid:d9c98a2a-0023-4877-b2cf-10e85954bac2",
    "resource": {
      "resourceType": "QuestionnaireResponse",
      "id": "d9c98a2a-0023-4877-b2cf-10e85954bac2",
      "identifier": {
        "value": "59263"
      },
      "questionnaire": {
        "reference": "urn:uuid:82183b79-9b9d-4ee0-98fb-755920b3b4a1"
      },
      "status": "completed",
      "subject": {
        "reference": "urn:uuid:aabd7936-28a0-4a40-b6ae-7c699d318846"
      },
      "context": {
        "reference": "urn:uuid:88dc2508-3a3e-420c-a31c-8610e1656a00"
      },
      "authored": "2021-04-06T11:29:26+00:00",
      "item": [ {
        "linkId": "Tx220957",
        "text": "Is this contact about a new or worsening illness?",
        "answer": [ {
          "valueString": "no"
        } ]
      } ]
    }
  }, {
    "fullUrl": "urn:uuid:82183b79-9b9d-4ee0-98fb-755920b3b4a1",
    "resource": {
      "resourceType": "Questionnaire",
      "id": "82183b79-9b9d-4ee0-98fb-755920b3b4a1",
      "identifier": [ {
        "value": "59263"
      } ],
      "version": "2021-04-06T11:29:26.887Z",
      "status": "active",
      "experimental": false,
      "date": "2021-04-06T11:29:26+00:00",
      "publisher": "User ID: 'HADFIELDR' User name: 'Ryan Hadfield' User skill set: 'T3'",
      "lastReviewDate": "2021-04-06",
      "contact": [ {
        "telecom": [ {
          "system": "phone",
          "value": "07777 888888"
        } ]
      } ],
      "subjectType": [ "Patient" ],
      "item": [ {
        "linkId": "59263",
        "prefix": "1400",
        "text": "Is this contact about a new or worsening illness?",
        "type": "choice",
        "required": true,
        "repeats": false,
        "option": [ {
          "valueString": "yes, Selected: false"
        }, {
          "valueString": "not sure, Selected: false"
        }, {
          "valueString": "no, Selected: true"
        } ]
      } ]
    }
  }, {
    "fullUrl": "urn:uuid:f3858208-614d-4aa4-9094-74981fff6832",
    "resource": {
      "resourceType": "QuestionnaireResponse",
      "id": "f3858208-614d-4aa4-9094-74981fff6832",
      "identifier": {
        "value": "59263"
      },
      "questionnaire": {
        "reference": "urn:uuid:0690913f-b15b-4c71-b6e6-573db5ac293f"
      },
      "status": "completed",
      "subject": {
        "reference": "urn:uuid:aabd7936-28a0-4a40-b6ae-7c699d318846"
      },
      "context": {
        "reference": "urn:uuid:88dc2508-3a3e-420c-a31c-8610e1656a00"
      },
      "authored": "2021-04-06T11:29:26+00:00",
      "item": [ {
        "linkId": "Tx221352",
        "text": "Have you got enough medication to last until the surgery opens?",
        "answer": [ {
          "valueString": "no"
        } ]
      } ]
    }
  }, {
    "fullUrl": "urn:uuid:0690913f-b15b-4c71-b6e6-573db5ac293f",
    "resource": {
      "resourceType": "Questionnaire",
      "id": "0690913f-b15b-4c71-b6e6-573db5ac293f",
      "identifier": [ {
        "value": "59263"
      } ],
      "version": "2021-04-06T11:29:26.887Z",
      "status": "active",
      "experimental": false,
      "date": "2021-04-06T11:29:26+00:00",
      "publisher": "User ID: 'HADFIELDR' User name: 'Ryan Hadfield' User skill set: 'T3'",
      "lastReviewDate": "2021-04-06",
      "contact": [ {
        "telecom": [ {
          "system": "phone",
          "value": "07777 888888"
        } ]
      } ],
      "subjectType": [ "Patient" ],
      "item": [ {
        "linkId": "59263",
        "prefix": "1500",
        "text": "Have you got enough medication to last until the surgery opens?",
        "type": "choice",
        "required": true,
        "repeats": false,
        "option": [ {
          "valueString": "yes, Selected: false"
        }, {
          "valueString": "not sure, Selected: false"
        }, {
          "valueString": "no, Selected: true"
        } ]
      } ]
    }
  }, {
    "fullUrl": "urn:uuid:db8faa96-9c3f-427f-b16a-06ead7c2b709",
    "resource": {
      "resourceType": "QuestionnaireResponse",
      "id": "db8faa96-9c3f-427f-b16a-06ead7c2b709",
      "identifier": {
        "value": "59263"
      },
      "questionnaire": {
        "reference": "urn:uuid:56664f67-44db-41a9-9240-b981f1986a1b"
      },
      "status": "completed",
      "subject": {
        "reference": "urn:uuid:aabd7936-28a0-4a40-b6ae-7c699d318846"
      },
      "context": {
        "reference": "urn:uuid:88dc2508-3a3e-420c-a31c-8610e1656a00"
      },
      "authored": "2021-04-06T11:29:26+00:00"
    }
  }, {
    "fullUrl": "urn:uuid:56664f67-44db-41a9-9240-b981f1986a1b",
    "resource": {
      "resourceType": "Questionnaire",
      "id": "56664f67-44db-41a9-9240-b981f1986a1b",
      "identifier": [ {
        "value": "59263"
      } ],
      "version": "2021-04-06T11:29:26.887Z",
      "status": "active",
      "experimental": false,
      "date": "2021-04-06T11:29:26+00:00",
      "publisher": "User ID: 'HADFIELDR' User name: 'Ryan Hadfield' User skill set: 'T3'",
      "lastReviewDate": "2021-04-06",
      "contact": [ {
        "telecom": [ {
          "system": "phone",
          "value": "07777 888888"
        } ]
      } ],
      "subjectType": [ "Patient" ]
    }
  }, {
    "fullUrl": "urn:uuid:a0658f93-28fb-4f36-8185-3ef36ff9eddb",
    "resource": {
      "resourceType": "QuestionnaireResponse",
      "id": "a0658f93-28fb-4f36-8185-3ef36ff9eddb",
      "identifier": {
        "value": "59263"
      },
      "questionnaire": {
        "reference": "urn:uuid:4a59b6c0-6c13-4408-bea5-53f8e7475d4c"
      },
      "status": "completed",
      "subject": {
        "reference": "urn:uuid:aabd7936-28a0-4a40-b6ae-7c699d318846"
      },
      "context": {
        "reference": "urn:uuid:88dc2508-3a3e-420c-a31c-8610e1656a00"
      },
      "authored": "2021-04-06T11:29:26+00:00",
      "item": [ {
        "linkId": "Tx224231",
        "text": "FROM WHAT YOU HAVE HEARD IS A CONSULTATION WITH A PRESCRIBER NEEDED?",
        "answer": [ {
          "valueString": "no"
        } ]
      } ]
    }
  }, {
    "fullUrl": "urn:uuid:4a59b6c0-6c13-4408-bea5-53f8e7475d4c",
    "resource": {
      "resourceType": "Questionnaire",
      "id": "4a59b6c0-6c13-4408-bea5-53f8e7475d4c",
      "identifier": [ {
        "value": "59263"
      } ],
      "version": "2021-04-06T11:29:26.887Z",
      "status": "active",
      "experimental": false,
      "date": "2021-04-06T11:29:26+00:00",
      "publisher": "User ID: 'HADFIELDR' User name: 'Ryan Hadfield' User skill set: 'T3'",
      "lastReviewDate": "2021-04-06",
      "contact": [ {
        "telecom": [ {
          "system": "phone",
          "value": "07777 888888"
        } ]
      } ],
      "subjectType": [ "Patient" ],
      "item": [ {
        "linkId": "59263",
        "prefix": "0",
        "text": "FROM WHAT YOU HAVE HEARD IS A CONSULTATION WITH A PRESCRIBER NEEDED?",
        "type": "choice",
        "required": true,
        "repeats": false,
        "option": [ {
          "valueString": "yes, Selected: false"
        }, {
          "valueString": "not sure, Selected: false"
        }, {
          "valueString": "no, Selected: true"
        } ]
      } ]
    }
  }, {
    "fullUrl": "urn:uuid:b0fbbd2e-34b8-455e-b29e-5d88363bb983",
    "resource": {
      "resourceType": "QuestionnaireResponse",
      "id": "b0fbbd2e-34b8-455e-b29e-5d88363bb983",
      "identifier": {
        "value": "59263"
      },
      "questionnaire": {
        "reference": "urn:uuid:016ed5ef-c3db-4474-ba0f-7337a467ed05"
      },
      "status": "completed",
      "subject": {
        "reference": "urn:uuid:aabd7936-28a0-4a40-b6ae-7c699d318846"
      },
      "context": {
        "reference": "urn:uuid:88dc2508-3a3e-420c-a31c-8610e1656a00"
      },
      "authored": "2021-04-06T11:29:26+00:00",
      "item": [ {
        "linkId": "Tx222687",
        "text": "Have you got any of the medication available at the moment?",
        "answer": [ {
          "valueString": "no"
        } ]
      } ]
    }
  }, {
    "fullUrl": "urn:uuid:016ed5ef-c3db-4474-ba0f-7337a467ed05",
    "resource": {
      "resourceType": "Questionnaire",
      "id": "016ed5ef-c3db-4474-ba0f-7337a467ed05",
      "identifier": [ {
        "value": "59263"
      } ],
      "version": "2021-04-06T11:29:26.887Z",
      "status": "active",
      "experimental": false,
      "date": "2021-04-06T11:29:26+00:00",
      "publisher": "User ID: 'HADFIELDR' User name: 'Ryan Hadfield' User skill set: 'T3'",
      "lastReviewDate": "2021-04-06",
      "contact": [ {
        "telecom": [ {
          "system": "phone",
          "value": "07777 888888"
        } ]
      } ],
      "subjectType": [ "Patient" ],
      "item": [ {
        "linkId": "59263",
        "prefix": "200",
        "text": "Have you got any of the medication available at the moment?",
        "type": "choice",
        "required": true,
        "repeats": false,
        "option": [ {
          "valueString": "yes, Selected: false"
        }, {
          "valueString": "not sure, Selected: false"
        }, {
          "valueString": "no, Selected: true"
        } ]
      } ]
    }
  }, {
    "fullUrl": "urn:uuid:fb8fa375-8936-4c27-9e98-4429a01e7585",
    "resource": {
      "resourceType": "QuestionnaireResponse",
      "id": "fb8fa375-8936-4c27-9e98-4429a01e7585",
      "identifier": {
        "value": "59263"
      },
      "questionnaire": {
        "reference": "urn:uuid:6746930d-155d-4563-9607-eb5df155d06f"
      },
      "status": "completed",
      "subject": {
        "reference": "urn:uuid:aabd7936-28a0-4a40-b6ae-7c699d318846"
      },
      "context": {
        "reference": "urn:uuid:88dc2508-3a3e-420c-a31c-8610e1656a00"
      },
      "authored": "2021-04-06T11:29:26+00:00",
      "item": [ {
        "linkId": "Tx221367",
        "text": "When is the next dose due?",
        "answer": [ {
          "valueString": "within the next 12 hours"
        } ]
      } ]
    }
  }, {
    "fullUrl": "urn:uuid:6746930d-155d-4563-9607-eb5df155d06f",
    "resource": {
      "resourceType": "Questionnaire",
      "id": "6746930d-155d-4563-9607-eb5df155d06f",
      "identifier": [ {
        "value": "59263"
      } ],
      "version": "2021-04-06T11:29:26.887Z",
      "status": "active",
      "experimental": false,
      "date": "2021-04-06T11:29:26+00:00",
      "publisher": "User ID: 'HADFIELDR' User name: 'Ryan Hadfield' User skill set: 'T3'",
      "lastReviewDate": "2021-04-06",
      "contact": [ {
        "telecom": [ {
          "system": "phone",
          "value": "07777 888888"
        } ]
      } ],
      "subjectType": [ "Patient" ],
      "item": [ {
        "linkId": "59263",
        "prefix": "100",
        "text": "When is the next dose due?",
        "type": "choice",
        "required": true,
        "repeats": false,
        "option": [ {
          "valueString": "within the next 2 hours, Selected: false"
        }, {
          "valueString": "within the next 6 hours, Selected: false"
        }, {
          "valueString": "within the next 12 hours, Selected: true"
        }, {
          "valueString": "over 12 hours time, Selected: false"
        }, {
          "valueString": "not sure, Selected: false"
        } ]
      } ]
    }
  }, {
    "fullUrl": "urn:uuid:9c6febe5-2ed0-478b-9f76-0fff7ae59a9a",
    "resource": {
      "resourceType": "QuestionnaireResponse",
      "id": "9c6febe5-2ed0-478b-9f76-0fff7ae59a9a",
      "identifier": {
        "value": "59263"
      },
      "questionnaire": {
        "reference": "urn:uuid:de526f8c-0e81-4d73-a65d-f904379f088a"
      },
      "status": "completed",
      "subject": {
        "reference": "urn:uuid:aabd7936-28a0-4a40-b6ae-7c699d318846"
      },
      "context": {
        "reference": "urn:uuid:88dc2508-3a3e-420c-a31c-8610e1656a00"
      },
      "authored": "2021-04-06T11:29:26+00:00",
      "item": [ {
        "linkId": "Tx223441",
        "text": "STRING:SDPCRepeatPrescription",
        "answer": [ {
          "valueString": "\"PC repeat prescription\""
        } ]
      } ]
    }
  }, {
    "fullUrl": "urn:uuid:de526f8c-0e81-4d73-a65d-f904379f088a",
    "resource": {
      "resourceType": "Questionnaire",
      "id": "de526f8c-0e81-4d73-a65d-f904379f088a",
      "identifier": [ {
        "value": "59263"
      } ],
      "version": "2021-04-06T11:29:26.887Z",
      "status": "active",
      "experimental": false,
      "date": "2021-04-06T11:29:26+00:00",
      "publisher": "User ID: 'HADFIELDR' User name: 'Ryan Hadfield' User skill set: 'T3'",
      "lastReviewDate": "2021-04-06",
      "contact": [ {
        "telecom": [ {
          "system": "phone",
          "value": "07777 888888"
        } ]
      } ],
      "subjectType": [ "Patient" ],
      "item": [ {
        "linkId": "59263",
        "prefix": "1200",
        "text": "STRING:SDPCRepeatPrescription",
        "type": "choice",
        "required": true,
        "repeats": false,
        "option": [ {
          "valueString": "\"PC repeat prescription\", Selected: true"
        } ]
      } ]
    }
  }, {
    "fullUrl": "urn:uuid:2cbe4955-2d11-4b02-9ffd-8ba1974c151b",
    "resource": {
      "resourceType": "QuestionnaireResponse",
      "id": "2cbe4955-2d11-4b02-9ffd-8ba1974c151b",
      "identifier": {
        "value": "59263"
      },
      "questionnaire": {
        "reference": "urn:uuid:f39af7cc-abab-4a99-94c9-40c91f4d7819"
      },
      "status": "completed",
      "subject": {
        "reference": "urn:uuid:aabd7936-28a0-4a40-b6ae-7c699d318846"
      },
      "context": {
        "reference": "urn:uuid:88dc2508-3a3e-420c-a31c-8610e1656a00"
      },
      "authored": "2021-04-06T11:29:26+00:00"
    }
  }, {
    "fullUrl": "urn:uuid:f39af7cc-abab-4a99-94c9-40c91f4d7819",
    "resource": {
      "resourceType": "Questionnaire",
      "id": "f39af7cc-abab-4a99-94c9-40c91f4d7819",
      "identifier": [ {
        "value": "59263"
      } ],
      "version": "2021-04-06T11:29:26.887Z",
      "status": "active",
      "experimental": false,
      "date": "2021-04-06T11:29:26+00:00",
      "publisher": "User ID: 'HADFIELDR' User name: 'Ryan Hadfield' User skill set: 'T3'",
      "lastReviewDate": "2021-04-06",
      "contact": [ {
        "telecom": [ {
          "system": "phone",
          "value": "07777 888888"
        } ]
      } ],
      "subjectType": [ "Patient" ]
    }
  }, {
    "fullUrl": "urn:uuid:255178af-e281-4445-9e0c-e7bb449440e3",
    "resource": {
      "resourceType": "QuestionnaireResponse",
      "id": "255178af-e281-4445-9e0c-e7bb449440e3",
      "identifier": {
        "value": "59263"
      },
      "questionnaire": {
        "reference": "urn:uuid:1b09a93d-bce6-48ad-85d4-b7010afd56b3"
      },
      "status": "completed",
      "subject": {
        "reference": "urn:uuid:aabd7936-28a0-4a40-b6ae-7c699d318846"
      },
      "context": {
        "reference": "urn:uuid:88dc2508-3a3e-420c-a31c-8610e1656a00"
      },
      "authored": "2021-04-06T11:29:26+00:00",
      "item": [ {
        "linkId": "Tx220074",
        "text": "What is the reason for the contact?",
        "answer": [ {
          "valueString": "an injury or other health problem"
        } ]
      } ]
    }
  }, {
    "fullUrl": "urn:uuid:1b09a93d-bce6-48ad-85d4-b7010afd56b3",
    "resource": {
      "resourceType": "Questionnaire",
      "id": "1b09a93d-bce6-48ad-85d4-b7010afd56b3",
      "identifier": [ {
        "value": "59263"
      } ],
      "version": "2021-04-06T11:29:26.887Z",
      "status": "active",
      "experimental": false,
      "date": "2021-04-06T11:29:26+00:00",
      "publisher": "User ID: 'HADFIELDR' User name: 'Ryan Hadfield' User skill set: 'T3'",
      "lastReviewDate": "2021-04-06",
      "contact": [ {
        "telecom": [ {
          "system": "phone",
          "value": "07777 888888"
        } ]
      } ],
      "subjectType": [ "Patient" ],
      "item": [ {
        "linkId": "59263",
        "prefix": "5",
        "text": "What is the reason for the contact?",
        "type": "choice",
        "required": true,
        "repeats": false,
        "option": [ {
          "valueString": "an injury or other health problem, Selected: true"
        }, {
          "valueString": "labour or childbirth, Selected: false"
        }, {
          "valueString": "a need to access another healthcare service, Selected: false"
        }, {
          "valueString": "a healthcare professional requesting contact with another clinician, Selected: false"
        }, {
          "valueString": "a report of results or tests, Selected: false"
        }, {
          "valueString": "a possible failure of contraception, Selected: false"
        }, {
          "valueString": "more, Selected: false"
        } ]
      } ]
    }
  }, {
    "fullUrl": "urn:uuid:3a7e29fd-06de-47dc-a5a7-5ca60c1ee40d",
    "resource": {
      "resourceType": "QuestionnaireResponse",
      "id": "3a7e29fd-06de-47dc-a5a7-5ca60c1ee40d",
      "identifier": {
        "value": "59263"
      },
      "questionnaire": {
        "reference": "urn:uuid:96d3071a-29e1-4a33-8a4e-f3ffb997d9c7"
      },
      "status": "completed",
      "subject": {
        "reference": "urn:uuid:aabd7936-28a0-4a40-b6ae-7c699d318846"
      },
      "context": {
        "reference": "urn:uuid:88dc2508-3a3e-420c-a31c-8610e1656a00"
      },
      "authored": "2021-04-06T11:29:26+00:00",
      "item": [ {
        "linkId": "Tx221807",
        "text": "STRING:to'Immediatethreatstolife(SPA/OOHversion)'-'Majorbloodloss'stem",
        "answer": [ {
          "valueString": "\"present\""
        } ]
      } ]
    }
  }, {
    "fullUrl": "urn:uuid:96d3071a-29e1-4a33-8a4e-f3ffb997d9c7",
    "resource": {
      "resourceType": "Questionnaire",
      "id": "96d3071a-29e1-4a33-8a4e-f3ffb997d9c7",
      "identifier": [ {
        "value": "59263"
      } ],
      "version": "2021-04-06T11:29:26.887Z",
      "status": "active",
      "experimental": false,
      "date": "2021-04-06T11:29:26+00:00",
      "publisher": "User ID: 'HADFIELDR' User name: 'Ryan Hadfield' User skill set: 'T3'",
      "lastReviewDate": "2021-04-06",
      "contact": [ {
        "telecom": [ {
          "system": "phone",
          "value": "07777 888888"
        } ]
      } ],
      "subjectType": [ "Patient" ],
      "item": [ {
        "linkId": "59263",
        "prefix": "200",
        "text": "STRING:to'Immediatethreatstolife(SPA/OOHversion)'-'Majorbloodloss'stem",
        "type": "choice",
        "required": true,
        "repeats": false,
        "option": [ {
          "valueString": "\"present\", Selected: true"
        } ]
      } ]
    }
  }, {
    "fullUrl": "urn:uuid:89895b09-eb65-48b8-b307-fa081f80224a",
    "resource": {
      "resourceType": "QuestionnaireResponse",
      "id": "89895b09-eb65-48b8-b307-fa081f80224a",
      "identifier": {
        "value": "59263"
      },
      "questionnaire": {
        "reference": "urn:uuid:97e37d7e-330b-4011-a3d0-b9ea843f7b85"
      },
      "status": "completed",
      "subject": {
        "reference": "urn:uuid:aabd7936-28a0-4a40-b6ae-7c699d318846"
      },
      "context": {
        "reference": "urn:uuid:88dc2508-3a3e-420c-a31c-8610e1656a00"
      },
      "authored": "2021-04-06T11:29:26+00:00"
    }
  }, {
    "fullUrl": "urn:uuid:97e37d7e-330b-4011-a3d0-b9ea843f7b85",
    "resource": {
      "resourceType": "Questionnaire",
      "id": "97e37d7e-330b-4011-a3d0-b9ea843f7b85",
      "identifier": [ {
        "value": "59263"
      } ],
      "version": "2021-04-06T11:29:26.887Z",
      "status": "active",
      "experimental": false,
      "date": "2021-04-06T11:29:26+00:00",
      "publisher": "User ID: 'HADFIELDR' User name: 'Ryan Hadfield' User skill set: 'T3'",
      "lastReviewDate": "2021-04-06",
      "contact": [ {
        "telecom": [ {
          "system": "phone",
          "value": "07777 888888"
        } ]
      } ],
      "subjectType": [ "Patient" ]
    }
  }, {
    "fullUrl": "urn:uuid:3abc2cb7-04ce-4edd-9778-e6f80484e311",
    "resource": {
      "resourceType": "QuestionnaireResponse",
      "id": "3abc2cb7-04ce-4edd-9778-e6f80484e311",
      "identifier": {
        "value": "59263"
      },
      "questionnaire": {
        "reference": "urn:uuid:1d8e5675-2e7a-4007-86c3-f3cd6b175e61"
      },
      "status": "completed",
      "subject": {
        "reference": "urn:uuid:aabd7936-28a0-4a40-b6ae-7c699d318846"
      },
      "context": {
        "reference": "urn:uuid:88dc2508-3a3e-420c-a31c-8610e1656a00"
      },
      "authored": "2021-04-06T11:29:26+00:00",
      "item": [ {
        "linkId": "Tx221799",
        "text": "STRING:injury,illnessorlabourestablishedinEntryFlow",
        "answer": [ {
          "valueString": "\"present\""
        } ]
      } ]
    }
  }, {
    "fullUrl": "urn:uuid:1d8e5675-2e7a-4007-86c3-f3cd6b175e61",
    "resource": {
      "resourceType": "Questionnaire",
      "id": "1d8e5675-2e7a-4007-86c3-f3cd6b175e61",
      "identifier": [ {
        "value": "59263"
      } ],
      "version": "2021-04-06T11:29:26.887Z",
      "status": "active",
      "experimental": false,
      "date": "2021-04-06T11:29:26+00:00",
      "publisher": "User ID: 'HADFIELDR' User name: 'Ryan Hadfield' User skill set: 'T3'",
      "lastReviewDate": "2021-04-06",
      "contact": [ {
        "telecom": [ {
          "system": "phone",
          "value": "07777 888888"
        } ]
      } ],
      "subjectType": [ "Patient" ],
      "item": [ {
        "linkId": "59263",
        "prefix": "0",
        "text": "STRING:injury,illnessorlabourestablishedinEntryFlow",
        "type": "choice",
        "required": true,
        "repeats": false,
        "option": [ {
          "valueString": "\"present\", Selected: true"
        } ]
      } ]
    }
  }, {
    "fullUrl": "urn:uuid:a4869f40-9364-4305-9c6c-442bcfce8aa8",
    "resource": {
      "resourceType": "QuestionnaireResponse",
      "id": "a4869f40-9364-4305-9c6c-442bcfce8aa8",
      "identifier": {
        "value": "59263"
      },
      "questionnaire": {
        "reference": "urn:uuid:addbbc99-3047-4e16-ab08-5495eee6d722"
      },
      "status": "completed",
      "subject": {
        "reference": "urn:uuid:aabd7936-28a0-4a40-b6ae-7c699d318846"
      },
      "context": {
        "reference": "urn:uuid:88dc2508-3a3e-420c-a31c-8610e1656a00"
      },
      "authored": "2021-04-06T11:29:26+00:00",
      "item": [ {
        "linkId": "Tx224120",
        "text": "Have you been bleeding RED BLOOD very heavily IN THE LAST 2 HOURS?",
        "answer": [ {
          "valueString": "no"
        } ]
      } ]
    }
  }, {
    "fullUrl": "urn:uuid:addbbc99-3047-4e16-ab08-5495eee6d722",
    "resource": {
      "resourceType": "Questionnaire",
      "id": "addbbc99-3047-4e16-ab08-5495eee6d722",
      "identifier": [ {
        "value": "59263"
      } ],
      "version": "2021-04-06T11:29:26.887Z",
      "status": "active",
      "experimental": false,
      "date": "2021-04-06T11:29:26+00:00",
      "publisher": "User ID: 'HADFIELDR' User name: 'Ryan Hadfield' User skill set: 'T3'",
      "lastReviewDate": "2021-04-06",
      "contact": [ {
        "telecom": [ {
          "system": "phone",
          "value": "07777 888888"
        } ]
      } ],
      "subjectType": [ "Patient" ],
      "item": [ {
        "linkId": "59263",
        "prefix": "10100",
        "text": "Have you been bleeding RED BLOOD very heavily IN THE LAST 2 HOURS?",
        "type": "choice",
        "required": true,
        "repeats": false,
        "option": [ {
          "valueString": "yes, Selected: false"
        }, {
          "valueString": "not sure, Selected: false"
        }, {
          "valueString": "no, Selected: true"
        } ]
      } ]
    }
  }, {
    "fullUrl": "urn:uuid:43b230de-a677-468f-a2bd-1b7080b85f0c",
    "resource": {
      "resourceType": "QuestionnaireResponse",
      "id": "43b230de-a677-468f-a2bd-1b7080b85f0c",
      "identifier": {
        "value": "59263"
      },
      "questionnaire": {
        "reference": "urn:uuid:dd025dca-3a0d-4743-8374-d32c46015d6d"
      },
      "status": "completed",
      "subject": {
        "reference": "urn:uuid:aabd7936-28a0-4a40-b6ae-7c699d318846"
      },
      "context": {
        "reference": "urn:uuid:88dc2508-3a3e-420c-a31c-8610e1656a00"
      },
      "authored": "2021-04-06T11:29:26+00:00",
      "item": [ {
        "linkId": "Tx221343",
        "text": "SocialConcernsExcluded",
        "answer": [ {
          "valueString": "*"
        } ]
      } ]
    }
  }, {
    "fullUrl": "urn:uuid:dd025dca-3a0d-4743-8374-d32c46015d6d",
    "resource": {
      "resourceType": "Questionnaire",
      "id": "dd025dca-3a0d-4743-8374-d32c46015d6d",
      "identifier": [ {
        "value": "59263"
      } ],
      "version": "2021-04-06T11:29:26.887Z",
      "status": "active",
      "experimental": false,
      "date": "2021-04-06T11:29:26+00:00",
      "publisher": "User ID: 'HADFIELDR' User name: 'Ryan Hadfield' User skill set: 'T3'",
      "lastReviewDate": "2021-04-06",
      "contact": [ {
        "telecom": [ {
          "system": "phone",
          "value": "07777 888888"
        } ]
      } ],
      "subjectType": [ "Patient" ],
      "item": [ {
        "linkId": "59263",
        "prefix": "1100",
        "text": "SocialConcernsExcluded",
        "type": "choice",
        "required": true,
        "repeats": false,
        "option": [ {
          "valueString": "==\"present\", Selected: false"
        }, {
          "valueString": "*, Selected: true"
        } ]
      } ]
    }
  }, {
    "fullUrl": "urn:uuid:2579ff73-ddb9-4155-b9db-ef8b73a3f4c3",
    "resource": {
      "resourceType": "QuestionnaireResponse",
      "id": "2579ff73-ddb9-4155-b9db-ef8b73a3f4c3",
      "identifier": {
        "value": "59263"
      },
      "questionnaire": {
        "reference": "urn:uuid:d38a64d6-da72-4c73-b2f8-f5d7dd87ef13"
      },
      "status": "completed",
      "subject": {
        "reference": "urn:uuid:aabd7936-28a0-4a40-b6ae-7c699d318846"
      },
      "context": {
        "reference": "urn:uuid:88dc2508-3a3e-420c-a31c-8610e1656a00"
      },
      "authored": "2021-04-06T11:29:26+00:00",
      "item": [ {
        "linkId": "Tx130011",
        "text": "What is the main problem?"
      } ]
    }
  }, {
    "fullUrl": "urn:uuid:d38a64d6-da72-4c73-b2f8-f5d7dd87ef13",
    "resource": {
      "resourceType": "Questionnaire",
      "id": "d38a64d6-da72-4c73-b2f8-f5d7dd87ef13",
      "identifier": [ {
        "value": "59263"
      } ],
      "version": "2021-04-06T11:29:26.887Z",
      "status": "active",
      "experimental": false,
      "date": "2021-04-06T11:29:26+00:00",
      "publisher": "User ID: 'HADFIELDR' User name: 'Ryan Hadfield' User skill set: 'T3'",
      "lastReviewDate": "2021-04-06",
      "contact": [ {
        "telecom": [ {
          "system": "phone",
          "value": "07777 888888"
        } ]
      } ],
      "subjectType": [ "Patient" ],
      "item": [ {
        "linkId": "59263",
        "prefix": "2300",
        "text": "What is the main problem?",
        "type": "choice",
        "required": true,
        "repeats": false,
        "option": [ {
          "valueString": "the individual has been told to follow a particular course of action (specify), Selected: false"
        }, {
          "valueString": "the individual is an identified frequent caller, Selected: false"
        }, {
          "valueString": "injury (specify), Selected: false"
        }, {
          "valueString": "illness or other health problem (specify), Selected: false"
        }, {
          "valueString": "child protection/vulnerable adult concern, Selected: false"
        }, {
          "valueString": "social or domestic emergency, Selected: false"
        }, {
          "valueString": "the environment potentially poses an immediate threat to life (specify), Selected: false"
        } ]
      } ]
    }
  }, {
    "fullUrl": "urn:uuid:9868e821-fb5d-477e-b645-32b4b45385b9",
    "resource": {
      "resourceType": "QuestionnaireResponse",
      "id": "9868e821-fb5d-477e-b645-32b4b45385b9",
      "identifier": {
        "value": "59263"
      },
      "questionnaire": {
        "reference": "urn:uuid:b944af2e-b86d-4043-91e3-ab31e3d75f63"
      },
      "status": "completed",
      "subject": {
        "reference": "urn:uuid:aabd7936-28a0-4a40-b6ae-7c699d318846"
      },
      "context": {
        "reference": "urn:uuid:88dc2508-3a3e-420c-a31c-8610e1656a00"
      },
      "authored": "2021-04-06T11:29:26+00:00",
      "item": [ {
        "linkId": "Tx220074",
        "text": "What is the reason for the contact?",
        "answer": [ {
          "valueString": "more"
        } ]
      } ]
    }
  }, {
    "fullUrl": "urn:uuid:b944af2e-b86d-4043-91e3-ab31e3d75f63",
    "resource": {
      "resourceType": "Questionnaire",
      "id": "b944af2e-b86d-4043-91e3-ab31e3d75f63",
      "identifier": [ {
        "value": "59263"
      } ],
      "version": "2021-04-06T11:29:26.887Z",
      "status": "active",
      "experimental": false,
      "date": "2021-04-06T11:29:26+00:00",
      "publisher": "User ID: 'HADFIELDR' User name: 'Ryan Hadfield' User skill set: 'T3'",
      "lastReviewDate": "2021-04-06",
      "contact": [ {
        "telecom": [ {
          "system": "phone",
          "value": "07777 888888"
        } ]
      } ],
      "subjectType": [ "Patient" ],
      "item": [ {
        "linkId": "59263",
        "prefix": "5",
        "text": "What is the reason for the contact?",
        "type": "choice",
        "required": true,
        "repeats": false,
        "option": [ {
          "valueString": "an injury or other health problem, Selected: false"
        }, {
          "valueString": "labour or childbirth, Selected: false"
        }, {
          "valueString": "a need to access another healthcare service, Selected: false"
        }, {
          "valueString": "a healthcare professional requesting contact with another clinician, Selected: false"
        }, {
          "valueString": "a report of results or tests, Selected: false"
        }, {
          "valueString": "a possible failure of contraception, Selected: false"
        }, {
          "valueString": "more, Selected: true"
        } ]
      } ]
    }
  }, {
    "fullUrl": "urn:uuid:f2dd3936-271c-4ec0-a75c-e7de94745586",
    "resource": {
      "resourceType": "QuestionnaireResponse",
      "id": "f2dd3936-271c-4ec0-a75c-e7de94745586",
      "identifier": {
        "value": "59263"
      },
      "questionnaire": {
        "reference": "urn:uuid:39cc4cae-1aaa-43ed-893a-6c4c7373cfbc"
      },
      "status": "completed",
      "subject": {
        "reference": "urn:uuid:aabd7936-28a0-4a40-b6ae-7c699d318846"
      },
      "context": {
        "reference": "urn:uuid:88dc2508-3a3e-420c-a31c-8610e1656a00"
      },
      "authored": "2021-04-06T11:29:26+00:00",
      "item": [ {
        "linkId": "Tx221793",
        "text": "STRING:to'Social&information'-further'Callreason'menu",
        "answer": [ {
          "valueString": "\"present\""
        } ]
      } ]
    }
  }, {
    "fullUrl": "urn:uuid:39cc4cae-1aaa-43ed-893a-6c4c7373cfbc",
    "resource": {
      "resourceType": "Questionnaire",
      "id": "39cc4cae-1aaa-43ed-893a-6c4c7373cfbc",
      "identifier": [ {
        "value": "59263"
      } ],
      "version": "2021-04-06T11:29:26.887Z",
      "status": "active",
      "experimental": false,
      "date": "2021-04-06T11:29:26+00:00",
      "publisher": "User ID: 'HADFIELDR' User name: 'Ryan Hadfield' User skill set: 'T3'",
      "lastReviewDate": "2021-04-06",
      "contact": [ {
        "telecom": [ {
          "system": "phone",
          "value": "07777 888888"
        } ]
      } ],
      "subjectType": [ "Patient" ],
      "item": [ {
        "linkId": "59263",
        "prefix": "600",
        "text": "STRING:to'Social&information'-further'Callreason'menu",
        "type": "choice",
        "required": true,
        "repeats": false,
        "option": [ {
          "valueString": "\"present\", Selected: true"
        } ]
      } ]
    }
  }, {
    "fullUrl": "urn:uuid:4e22a478-7ad7-4941-966c-5ab8596945ee",
    "resource": {
      "resourceType": "QuestionnaireResponse",
      "id": "4e22a478-7ad7-4941-966c-5ab8596945ee",
      "identifier": {
        "value": "59263"
      },
      "questionnaire": {
        "reference": "urn:uuid:2bde69db-2d0f-4926-bd0c-b49c1311b8f0"
      },
      "status": "completed",
      "subject": {
        "reference": "urn:uuid:aabd7936-28a0-4a40-b6ae-7c699d318846"
      },
      "context": {
        "reference": "urn:uuid:88dc2508-3a3e-420c-a31c-8610e1656a00"
      },
      "authored": "2021-04-06T11:29:26+00:00"
    }
  }, {
    "fullUrl": "urn:uuid:2bde69db-2d0f-4926-bd0c-b49c1311b8f0",
    "resource": {
      "resourceType": "Questionnaire",
      "id": "2bde69db-2d0f-4926-bd0c-b49c1311b8f0",
      "identifier": [ {
        "value": "59263"
      } ],
      "version": "2021-04-06T11:29:26.887Z",
      "status": "active",
      "experimental": false,
      "date": "2021-04-06T11:29:26+00:00",
      "publisher": "User ID: 'HADFIELDR' User name: 'Ryan Hadfield' User skill set: 'T3'",
      "lastReviewDate": "2021-04-06",
      "contact": [ {
        "telecom": [ {
          "system": "phone",
          "value": "07777 888888"
        } ]
      } ],
      "subjectType": [ "Patient" ]
    }
  }, {
    "fullUrl": "urn:uuid:563189d7-c7d9-454a-8383-72f124440083",
    "resource": {
      "resourceType": "QuestionnaireResponse",
      "id": "563189d7-c7d9-454a-8383-72f124440083",
      "identifier": {
        "value": "59263"
      },
      "questionnaire": {
        "reference": "urn:uuid:fc3d45fb-1c96-452b-ba92-c2bbea935f9c"
      },
      "status": "completed",
      "subject": {
        "reference": "urn:uuid:aabd7936-28a0-4a40-b6ae-7c699d318846"
      },
      "context": {
        "reference": "urn:uuid:88dc2508-3a3e-420c-a31c-8610e1656a00"
      },
      "authored": "2021-04-06T11:29:26+00:00",
      "item": [ {
        "linkId": "Tx221804",
        "text": "STRING:transfertofurthermenuquestionestablishedinEntryFlow",
        "answer": [ {
          "valueString": "\"present\""
        } ]
      } ]
    }
  }, {
    "fullUrl": "urn:uuid:fc3d45fb-1c96-452b-ba92-c2bbea935f9c",
    "resource": {
      "resourceType": "Questionnaire",
      "id": "fc3d45fb-1c96-452b-ba92-c2bbea935f9c",
      "identifier": [ {
        "value": "59263"
      } ],
      "version": "2021-04-06T11:29:26.887Z",
      "status": "active",
      "experimental": false,
      "date": "2021-04-06T11:29:26+00:00",
      "publisher": "User ID: 'HADFIELDR' User name: 'Ryan Hadfield' User skill set: 'T3'",
      "lastReviewDate": "2021-04-06",
      "contact": [ {
        "telecom": [ {
          "system": "phone",
          "value": "07777 888888"
        } ]
      } ],
      "subjectType": [ "Patient" ],
      "item": [ {
        "linkId": "59263",
        "prefix": "41",
        "text": "STRING:transfertofurthermenuquestionestablishedinEntryFlow",
        "type": "choice",
        "required": true,
        "repeats": false,
        "option": [ {
          "valueString": "\"present\", Selected: true"
        } ]
      } ]
    }
  }, {
    "fullUrl": "urn:uuid:5f4b8e65-28d0-4e98-a155-5abdca1bb074",
    "resource": {
      "resourceType": "QuestionnaireResponse",
      "id": "5f4b8e65-28d0-4e98-a155-5abdca1bb074",
      "identifier": {
        "value": "59263"
      },
      "questionnaire": {
        "reference": "urn:uuid:81032962-c5a2-4ba8-a6a6-5f451a7c90a4"
      },
      "status": "completed",
      "subject": {
        "reference": "urn:uuid:aabd7936-28a0-4a40-b6ae-7c699d318846"
      },
      "context": {
        "reference": "urn:uuid:88dc2508-3a3e-420c-a31c-8610e1656a00"
      },
      "authored": "2021-04-06T11:29:26+00:00",
      "item": [ {
        "linkId": "Tx224998",
        "text": "SYSTEM_COVIDLEVEL2",
        "answer": [ {
          "valueString": "==\"covidlevel2\""
        } ]
      } ]
    }
  }, {
    "fullUrl": "urn:uuid:81032962-c5a2-4ba8-a6a6-5f451a7c90a4",
    "resource": {
      "resourceType": "Questionnaire",
      "id": "81032962-c5a2-4ba8-a6a6-5f451a7c90a4",
      "identifier": [ {
        "value": "59263"
      } ],
      "version": "2021-04-06T11:29:26.887Z",
      "status": "active",
      "experimental": false,
      "date": "2021-04-06T11:29:26+00:00",
      "publisher": "User ID: 'HADFIELDR' User name: 'Ryan Hadfield' User skill set: 'T3'",
      "lastReviewDate": "2021-04-06",
      "contact": [ {
        "telecom": [ {
          "system": "phone",
          "value": "07777 888888"
        } ]
      } ],
      "subjectType": [ "Patient" ],
      "item": [ {
        "linkId": "59263",
        "prefix": "5900",
        "text": "SYSTEM_COVIDLEVEL2",
        "type": "choice",
        "required": true,
        "repeats": false,
        "option": [ {
          "valueString": "==\"covidlevel2\", Selected: true"
        }, {
          "valueString": "*, Selected: false"
        } ]
      } ]
    }
  }, {
    "fullUrl": "urn:uuid:44c59010-d443-469e-b720-794ab023fa00",
    "resource": {
      "resourceType": "QuestionnaireResponse",
      "id": "44c59010-d443-469e-b720-794ab023fa00",
      "identifier": {
        "value": "59263"
      },
      "questionnaire": {
        "reference": "urn:uuid:eedb2889-2c3e-4285-bb48-8f5a6e81459c"
      },
      "status": "completed",
      "subject": {
        "reference": "urn:uuid:aabd7936-28a0-4a40-b6ae-7c699d318846"
      },
      "context": {
        "reference": "urn:uuid:88dc2508-3a3e-420c-a31c-8610e1656a00"
      },
      "authored": "2021-04-06T11:29:26+00:00",
      "item": [ {
        "linkId": "Tx225069",
        "text": "What is the reason for the contact?",
        "answer": [ {
          "valueString": "a prescription request"
        } ]
      } ]
    }
  }, {
    "fullUrl": "urn:uuid:eedb2889-2c3e-4285-bb48-8f5a6e81459c",
    "resource": {
      "resourceType": "Questionnaire",
      "id": "eedb2889-2c3e-4285-bb48-8f5a6e81459c",
      "identifier": [ {
        "value": "59263"
      } ],
      "version": "2021-04-06T11:29:26.887Z",
      "status": "active",
      "experimental": false,
      "date": "2021-04-06T11:29:26+00:00",
      "publisher": "User ID: 'HADFIELDR' User name: 'Ryan Hadfield' User skill set: 'T3'",
      "lastReviewDate": "2021-04-06",
      "contact": [ {
        "telecom": [ {
          "system": "phone",
          "value": "07777 888888"
        } ]
      } ],
      "subjectType": [ "Patient" ],
      "item": [ {
        "linkId": "59263",
        "prefix": "6000",
        "text": "What is the reason for the contact?",
        "type": "choice",
        "required": true,
        "repeats": false,
        "option": [ {
          "valueString": "a child protection/vulnerable adult concern (specify), Selected: false"
        }, {
          "valueString": "a social or domestic emergency, Selected: false"
        }, {
          "valueString": "a prescription request, Selected: true"
        }, {
          "valueString": "an appointment request, Selected: false"
        }, {
          "valueString": "a request for health or medication information, Selected: false"
        }, {
          "valueString": "public health alert information, Selected: false"
        } ]
      } ]
    }
  }, {
    "fullUrl": "urn:uuid:77d8bd7a-15bd-494b-9698-943ce32bd29b",
    "resource": {
      "resourceType": "QuestionnaireResponse",
      "id": "77d8bd7a-15bd-494b-9698-943ce32bd29b",
      "identifier": {
        "value": "59263"
      },
      "questionnaire": {
        "reference": "urn:uuid:da934833-13e4-4294-8387-afe98e111518"
      },
      "status": "completed",
      "subject": {
        "reference": "urn:uuid:aabd7936-28a0-4a40-b6ae-7c699d318846"
      },
      "context": {
        "reference": "urn:uuid:88dc2508-3a3e-420c-a31c-8610e1656a00"
      },
      "authored": "2021-04-06T11:29:26+00:00",
      "item": [ {
        "linkId": "Tx220957",
        "text": "Is this contact about a new or worsening illness?",
        "answer": [ {
          "valueString": "no"
        } ]
      } ]
    }
  }, {
    "fullUrl": "urn:uuid:da934833-13e4-4294-8387-afe98e111518",
    "resource": {
      "resourceType": "Questionnaire",
      "id": "da934833-13e4-4294-8387-afe98e111518",
      "identifier": [ {
        "value": "59263"
      } ],
      "version": "2021-04-06T11:29:26.887Z",
      "status": "active",
      "experimental": false,
      "date": "2021-04-06T11:29:26+00:00",
      "publisher": "User ID: 'HADFIELDR' User name: 'Ryan Hadfield' User skill set: 'T3'",
      "lastReviewDate": "2021-04-06",
      "contact": [ {
        "telecom": [ {
          "system": "phone",
          "value": "07777 888888"
        } ]
      } ],
      "subjectType": [ "Patient" ],
      "item": [ {
        "linkId": "59263",
        "prefix": "1400",
        "text": "Is this contact about a new or worsening illness?",
        "type": "choice",
        "required": true,
        "repeats": false,
        "option": [ {
          "valueString": "yes, Selected: false"
        }, {
          "valueString": "not sure, Selected: false"
        }, {
          "valueString": "no, Selected: true"
        } ]
      } ]
    }
  }, {
    "fullUrl": "urn:uuid:095cf0bc-17f2-46e8-8554-9962d0e31f19",
    "resource": {
      "resourceType": "QuestionnaireResponse",
      "id": "095cf0bc-17f2-46e8-8554-9962d0e31f19",
      "identifier": {
        "value": "59263"
      },
      "questionnaire": {
        "reference": "urn:uuid:6231bc31-72be-44f7-b024-771999ebc886"
      },
      "status": "completed",
      "subject": {
        "reference": "urn:uuid:aabd7936-28a0-4a40-b6ae-7c699d318846"
      },
      "context": {
        "reference": "urn:uuid:88dc2508-3a3e-420c-a31c-8610e1656a00"
      },
      "authored": "2021-04-06T11:29:26+00:00",
      "item": [ {
        "linkId": "Tx221352",
        "text": "Have you got enough medication to last until the surgery opens?",
        "answer": [ {
          "valueString": "no"
        } ]
      } ]
    }
  }, {
    "fullUrl": "urn:uuid:6231bc31-72be-44f7-b024-771999ebc886",
    "resource": {
      "resourceType": "Questionnaire",
      "id": "6231bc31-72be-44f7-b024-771999ebc886",
      "identifier": [ {
        "value": "59263"
      } ],
      "version": "2021-04-06T11:29:26.887Z",
      "status": "active",
      "experimental": false,
      "date": "2021-04-06T11:29:26+00:00",
      "publisher": "User ID: 'HADFIELDR' User name: 'Ryan Hadfield' User skill set: 'T3'",
      "lastReviewDate": "2021-04-06",
      "contact": [ {
        "telecom": [ {
          "system": "phone",
          "value": "07777 888888"
        } ]
      } ],
      "subjectType": [ "Patient" ],
      "item": [ {
        "linkId": "59263",
        "prefix": "1500",
        "text": "Have you got enough medication to last until the surgery opens?",
        "type": "choice",
        "required": true,
        "repeats": false,
        "option": [ {
          "valueString": "yes, Selected: false"
        }, {
          "valueString": "not sure, Selected: false"
        }, {
          "valueString": "no, Selected: true"
        } ]
      } ]
    }
  }, {
    "fullUrl": "urn:uuid:62590ee2-b7d6-49b5-94a7-beed15c91060",
    "resource": {
      "resourceType": "QuestionnaireResponse",
      "id": "62590ee2-b7d6-49b5-94a7-beed15c91060",
      "identifier": {
        "value": "59263"
      },
      "questionnaire": {
        "reference": "urn:uuid:9dfe58ea-941d-4cc9-8f01-3a38b5ce30f5"
      },
      "status": "completed",
      "subject": {
        "reference": "urn:uuid:aabd7936-28a0-4a40-b6ae-7c699d318846"
      },
      "context": {
        "reference": "urn:uuid:88dc2508-3a3e-420c-a31c-8610e1656a00"
      },
      "authored": "2021-04-06T11:29:26+00:00"
    }
  }, {
    "fullUrl": "urn:uuid:9dfe58ea-941d-4cc9-8f01-3a38b5ce30f5",
    "resource": {
      "resourceType": "Questionnaire",
      "id": "9dfe58ea-941d-4cc9-8f01-3a38b5ce30f5",
      "identifier": [ {
        "value": "59263"
      } ],
      "version": "2021-04-06T11:29:26.887Z",
      "status": "active",
      "experimental": false,
      "date": "2021-04-06T11:29:26+00:00",
      "publisher": "User ID: 'HADFIELDR' User name: 'Ryan Hadfield' User skill set: 'T3'",
      "lastReviewDate": "2021-04-06",
      "contact": [ {
        "telecom": [ {
          "system": "phone",
          "value": "07777 888888"
        } ]
      } ],
      "subjectType": [ "Patient" ]
    }
  }, {
    "fullUrl": "urn:uuid:71f85174-6625-4843-81eb-b1ebdb2d8b5e",
    "resource": {
      "resourceType": "QuestionnaireResponse",
      "id": "71f85174-6625-4843-81eb-b1ebdb2d8b5e",
      "identifier": {
        "value": "59263"
      },
      "questionnaire": {
        "reference": "urn:uuid:6cd0afec-c6f3-4f72-8c88-54c411d734af"
      },
      "status": "completed",
      "subject": {
        "reference": "urn:uuid:aabd7936-28a0-4a40-b6ae-7c699d318846"
      },
      "context": {
        "reference": "urn:uuid:88dc2508-3a3e-420c-a31c-8610e1656a00"
      },
      "authored": "2021-04-06T11:29:26+00:00",
      "item": [ {
        "linkId": "Tx224231",
        "text": "FROM WHAT YOU HAVE HEARD IS A CONSULTATION WITH A PRESCRIBER NEEDED?",
        "answer": [ {
          "valueString": "no"
        } ]
      } ]
    }
  }, {
    "fullUrl": "urn:uuid:6cd0afec-c6f3-4f72-8c88-54c411d734af",
    "resource": {
      "resourceType": "Questionnaire",
      "id": "6cd0afec-c6f3-4f72-8c88-54c411d734af",
      "identifier": [ {
        "value": "59263"
      } ],
      "version": "2021-04-06T11:29:26.887Z",
      "status": "active",
      "experimental": false,
      "date": "2021-04-06T11:29:26+00:00",
      "publisher": "User ID: 'HADFIELDR' User name: 'Ryan Hadfield' User skill set: 'T3'",
      "lastReviewDate": "2021-04-06",
      "contact": [ {
        "telecom": [ {
          "system": "phone",
          "value": "07777 888888"
        } ]
      } ],
      "subjectType": [ "Patient" ],
      "item": [ {
        "linkId": "59263",
        "prefix": "0",
        "text": "FROM WHAT YOU HAVE HEARD IS A CONSULTATION WITH A PRESCRIBER NEEDED?",
        "type": "choice",
        "required": true,
        "repeats": false,
        "option": [ {
          "valueString": "yes, Selected: false"
        }, {
          "valueString": "not sure, Selected: false"
        }, {
          "valueString": "no, Selected: true"
        } ]
      } ]
    }
  }, {
    "fullUrl": "urn:uuid:2592176f-7892-41b0-a419-0bc936375535",
    "resource": {
      "resourceType": "QuestionnaireResponse",
      "id": "2592176f-7892-41b0-a419-0bc936375535",
      "identifier": {
        "value": "59263"
      },
      "questionnaire": {
        "reference": "urn:uuid:34788678-0b18-4595-a35d-14f64962a1fc"
      },
      "status": "completed",
      "subject": {
        "reference": "urn:uuid:aabd7936-28a0-4a40-b6ae-7c699d318846"
      },
      "context": {
        "reference": "urn:uuid:88dc2508-3a3e-420c-a31c-8610e1656a00"
      },
      "authored": "2021-04-06T11:29:26+00:00",
      "item": [ {
        "linkId": "Tx222687",
        "text": "Have you got any of the medication available at the moment?",
        "answer": [ {
          "valueString": "no"
        } ]
      } ]
    }
  }, {
    "fullUrl": "urn:uuid:34788678-0b18-4595-a35d-14f64962a1fc",
    "resource": {
      "resourceType": "Questionnaire",
      "id": "34788678-0b18-4595-a35d-14f64962a1fc",
      "identifier": [ {
        "value": "59263"
      } ],
      "version": "2021-04-06T11:29:26.887Z",
      "status": "active",
      "experimental": false,
      "date": "2021-04-06T11:29:26+00:00",
      "publisher": "User ID: 'HADFIELDR' User name: 'Ryan Hadfield' User skill set: 'T3'",
      "lastReviewDate": "2021-04-06",
      "contact": [ {
        "telecom": [ {
          "system": "phone",
          "value": "07777 888888"
        } ]
      } ],
      "subjectType": [ "Patient" ],
      "item": [ {
        "linkId": "59263",
        "prefix": "200",
        "text": "Have you got any of the medication available at the moment?",
        "type": "choice",
        "required": true,
        "repeats": false,
        "option": [ {
          "valueString": "yes, Selected: false"
        }, {
          "valueString": "not sure, Selected: false"
        }, {
          "valueString": "no, Selected: true"
        } ]
      } ]
    }
  }, {
    "fullUrl": "urn:uuid:51a86bf3-403f-4937-bf26-500f18e7d796",
    "resource": {
      "resourceType": "QuestionnaireResponse",
      "id": "51a86bf3-403f-4937-bf26-500f18e7d796",
      "identifier": {
        "value": "59263"
      },
      "questionnaire": {
        "reference": "urn:uuid:c5ef538d-d348-4fe8-988b-c30216741720"
      },
      "status": "completed",
      "subject": {
        "reference": "urn:uuid:aabd7936-28a0-4a40-b6ae-7c699d318846"
      },
      "context": {
        "reference": "urn:uuid:88dc2508-3a3e-420c-a31c-8610e1656a00"
      },
      "authored": "2021-04-06T11:29:26+00:00",
      "item": [ {
        "linkId": "Tx221367",
        "text": "When is the next dose due?",
        "answer": [ {
          "valueString": "within the next 12 hours"
        } ]
      } ]
    }
  }, {
    "fullUrl": "urn:uuid:c5ef538d-d348-4fe8-988b-c30216741720",
    "resource": {
      "resourceType": "Questionnaire",
      "id": "c5ef538d-d348-4fe8-988b-c30216741720",
      "identifier": [ {
        "value": "59263"
      } ],
      "version": "2021-04-06T11:29:26.887Z",
      "status": "active",
      "experimental": false,
      "date": "2021-04-06T11:29:26+00:00",
      "publisher": "User ID: 'HADFIELDR' User name: 'Ryan Hadfield' User skill set: 'T3'",
      "lastReviewDate": "2021-04-06",
      "contact": [ {
        "telecom": [ {
          "system": "phone",
          "value": "07777 888888"
        } ]
      } ],
      "subjectType": [ "Patient" ],
      "item": [ {
        "linkId": "59263",
        "prefix": "100",
        "text": "When is the next dose due?",
        "type": "choice",
        "required": true,
        "repeats": false,
        "option": [ {
          "valueString": "within the next 2 hours, Selected: false"
        }, {
          "valueString": "within the next 6 hours, Selected: false"
        }, {
          "valueString": "within the next 12 hours, Selected: true"
        }, {
          "valueString": "over 12 hours time, Selected: false"
        }, {
          "valueString": "not sure, Selected: false"
        } ]
      } ]
    }
  }, {
    "fullUrl": "urn:uuid:d392790e-4071-407e-91b2-a62e5453693b",
    "resource": {
      "resourceType": "QuestionnaireResponse",
      "id": "d392790e-4071-407e-91b2-a62e5453693b",
      "identifier": {
        "value": "59263"
      },
      "questionnaire": {
        "reference": "urn:uuid:10c3e6ea-59f4-408e-a111-4ac661a9a597"
      },
      "status": "completed",
      "subject": {
        "reference": "urn:uuid:aabd7936-28a0-4a40-b6ae-7c699d318846"
      },
      "context": {
        "reference": "urn:uuid:88dc2508-3a3e-420c-a31c-8610e1656a00"
      },
      "authored": "2021-04-06T11:29:26+00:00",
      "item": [ {
        "linkId": "Tx223441",
        "text": "STRING:SDPCRepeatPrescription",
        "answer": [ {
          "valueString": "\"PC repeat prescription\""
        } ]
      } ]
    }
  }, {
    "fullUrl": "urn:uuid:10c3e6ea-59f4-408e-a111-4ac661a9a597",
    "resource": {
      "resourceType": "Questionnaire",
      "id": "10c3e6ea-59f4-408e-a111-4ac661a9a597",
      "identifier": [ {
        "value": "59263"
      } ],
      "version": "2021-04-06T11:29:26.887Z",
      "status": "active",
      "experimental": false,
      "date": "2021-04-06T11:29:26+00:00",
      "publisher": "User ID: 'HADFIELDR' User name: 'Ryan Hadfield' User skill set: 'T3'",
      "lastReviewDate": "2021-04-06",
      "contact": [ {
        "telecom": [ {
          "system": "phone",
          "value": "07777 888888"
        } ]
      } ],
      "subjectType": [ "Patient" ],
      "item": [ {
        "linkId": "59263",
        "prefix": "1200",
        "text": "STRING:SDPCRepeatPrescription",
        "type": "choice",
        "required": true,
        "repeats": false,
        "option": [ {
          "valueString": "\"PC repeat prescription\", Selected: true"
        } ]
      } ]
    }
  }, {
    "fullUrl": "urn:uuid:1c62fa50-c673-4e4d-8b26-19dc79e8168e",
    "resource": {
      "resourceType": "QuestionnaireResponse",
      "id": "1c62fa50-c673-4e4d-8b26-19dc79e8168e",
      "identifier": {
        "value": "59263"
      },
      "questionnaire": {
        "reference": "urn:uuid:d16a1a75-f086-49a7-b557-0bcfc01a7122"
      },
      "status": "completed",
      "subject": {
        "reference": "urn:uuid:aabd7936-28a0-4a40-b6ae-7c699d318846"
      },
      "context": {
        "reference": "urn:uuid:88dc2508-3a3e-420c-a31c-8610e1656a00"
      },
      "authored": "2021-04-06T11:29:26+00:00"
    }
  }, {
    "fullUrl": "urn:uuid:d16a1a75-f086-49a7-b557-0bcfc01a7122",
    "resource": {
      "resourceType": "Questionnaire",
      "id": "d16a1a75-f086-49a7-b557-0bcfc01a7122",
      "identifier": [ {
        "value": "59263"
      } ],
      "version": "2021-04-06T11:29:26.887Z",
      "status": "active",
      "experimental": false,
      "date": "2021-04-06T11:29:26+00:00",
      "publisher": "User ID: 'HADFIELDR' User name: 'Ryan Hadfield' User skill set: 'T3'",
      "lastReviewDate": "2021-04-06",
      "contact": [ {
        "telecom": [ {
          "system": "phone",
          "value": "07777 888888"
        } ]
      } ],
      "subjectType": [ "Patient" ]
    }
  }, {
    "fullUrl": "urn:uuid:cacc6748-a337-4f7e-87b9-abe5343df374",
    "resource": {
      "resourceType": "QuestionnaireResponse",
      "id": "cacc6748-a337-4f7e-87b9-abe5343df374",
      "identifier": {
        "value": "59263"
      },
      "questionnaire": {
        "reference": "urn:uuid:6fc0c2f9-ac29-463f-adfa-ee0848b675eb"
      },
      "status": "completed",
      "subject": {
        "reference": "urn:uuid:aabd7936-28a0-4a40-b6ae-7c699d318846"
      },
      "context": {
        "reference": "urn:uuid:88dc2508-3a3e-420c-a31c-8610e1656a00"
      },
      "authored": "2021-04-06T11:29:26+00:00"
    }
  }, {
    "fullUrl": "urn:uuid:6fc0c2f9-ac29-463f-adfa-ee0848b675eb",
    "resource": {
      "resourceType": "Questionnaire",
      "id": "6fc0c2f9-ac29-463f-adfa-ee0848b675eb",
      "identifier": [ {
        "value": "59263"
      } ],
      "version": "2021-04-06T11:29:26.887Z",
      "status": "active",
      "experimental": false,
      "date": "2021-04-06T11:29:26+00:00",
      "publisher": "User ID: 'HADFIELDR' User name: 'Ryan Hadfield' User skill set: 'T3'",
      "lastReviewDate": "2021-04-06",
      "contact": [ {
        "telecom": [ {
          "system": "phone",
          "value": "07777 888888"
        } ]
      } ],
      "subjectType": [ "Patient" ]
    }
  }, {
    "fullUrl": "urn:uuid:ae805120-44fb-4d51-bcfb-2055a050d1e0",
    "resource": {
      "resourceType": "Observation",
      "id": "ae805120-44fb-4d51-bcfb-2055a050d1e0",
      "status": "final",
      "code": {
        "coding": [ {
          "system": "http://snomed.info/sct",
          "code": "33962009",
          "display": "Presenting complaint"
        } ]
      },
      "subject": {
        "reference": "urn:uuid:aabd7936-28a0-4a40-b6ae-7c699d318846"
      },
      "context": {
        "reference": "urn:uuid:88dc2508-3a3e-420c-a31c-8610e1656a00"
      },
      "valueString": "test"
    }
  }, {
    "fullUrl": "urn:uuid:71bd5ef3-ffd8-4627-9a5a-9a81886a455c",
    "resource": {
      "resourceType": "PractitionerRole",
      "id": "71bd5ef3-ffd8-4627-9a5a-9a81886a455c",
      "practitioner": {
        "reference": "urn:uuid:02bd0b9d-8e51-4acb-98ca-5b4081ab6931"
      },
      "organization": {
        "reference": "urn:uuid:86d2652c-a631-4005-b048-6fdc65643829"
      },
      "code": [ {
        "coding": [ {
          "system": "2.16.840.1.113883.2.1.3.2.4.17.339",
          "code": "DOCTOR",
          "display": "Doctor"
        } ]
      } ]
    }
  }, {
    "fullUrl": "urn:uuid:86d2652c-a631-4005-b048-6fdc65643829",
    "resource": {
      "resourceType": "Organization",
      "id": "86d2652c-a631-4005-b048-6fdc65643829",
      "identifier": [ {
        "value": "RYE"
      } ],
      "name": "1.SCAS Administrator (SCAS111)"
    }
  }, {
    "fullUrl": "urn:uuid:9385caec-e7f7-4b0b-88ef-1745f1f49f85",
    "resource": {
      "resourceType": "PractitionerRole",
      "id": "9385caec-e7f7-4b0b-88ef-1745f1f49f85",
      "practitioner": {
        "reference": "urn:uuid:bc643710-97f7-4d26-a3d9-225867daa8f3"
      },
      "organization": {
        "reference": "urn:uuid:e57a563e-3731-4479-bfd8-d62cb7729134"
      },
      "code": [ {
        "coding": [ {
          "system": "2.16.840.1.113883.2.1.3.2.4.17.196",
          "code": "R0010",
          "display": "Medical Director"
        } ]
      } ]
    }
  }, {
    "fullUrl": "urn:uuid:e57a563e-3731-4479-bfd8-d62cb7729134",
    "resource": {
      "resourceType": "Organization",
      "id": "e57a563e-3731-4479-bfd8-d62cb7729134",
      "identifier": [ {
        "value": "RYE"
      } ],
      "name": "SCAS111"
    }
  }, {
    "fullUrl": "urn:uuid:ab52465e-1697-43c2-b1e9-e972ae774352",
    "resource": {
      "resourceType": "RelatedPerson",
      "id": "ab52465e-1697-43c2-b1e9-e972ae774352",
      "patient": {
        "reference": "urn:uuid:aabd7936-28a0-4a40-b6ae-7c699d318846"
      },
      "relationship": {
        "coding": [ {
          "system": "http://hl7.org/fhir/v2/0131",
          "code": "C",
          "display": "Emergency Contact"
        } ]
      },
      "telecom": [ {
        "system": "phone",
        "value": "tel:000000000000"
      } ]
    }
  }, {
    "fullUrl": "urn:uuid:d7815eb3-46dd-461c-b285-21d607e81e1d",
    "resource": {
      "resourceType": "Device",
      "id": "d7815eb3-46dd-461c-b285-21d607e81e1d",
      "model": "111 Adaptor",
      "version": "0.9.0"
    }
  }, {
    "fullUrl": "urn:uuid:1301586c-ff7d-4dca-928d-9abd2f516c5d",
    "resource": {
      "resourceType": "List",
      "id": "1301586c-ff7d-4dca-928d-9abd2f516c5d",
      "status": "current",
      "mode": "working",
      "title": "111 Report List",
      "code": {
        "coding": [ {
          "system": "http://snomed.info/sct",
          "code": "225390008",
          "display": "Triage"
        } ]
      },
      "subject": {
        "reference": "urn:uuid:aabd7936-28a0-4a40-b6ae-7c699d318846"
      },
      "encounter": {
        "reference": "urn:uuid:88dc2508-3a3e-420c-a31c-8610e1656a00"
      },
      "date": "2021-09-29T10:03:06+00:00",
      "source": {
        "reference": "urn:uuid:d7815eb3-46dd-461c-b285-21d607e81e1d"
      },
      "orderedBy": {
        "coding": [ {
          "system": "http://hl7.org/fhir/list-order",
          "code": "event-date",
          "display": "Sorted by Event Date"
        } ]
      },
      "entry": [ {
        "item": {
          "reference": "urn:uuid:e57a563e-3731-4479-bfd8-d62cb7729134"
        }
      }, {
        "item": {
          "reference": "urn:uuid:bc643710-97f7-4d26-a3d9-225867daa8f3"
        }
      }, {
        "item": {
          "reference": "urn:uuid:df778022-23c4-4a83-861f-c031f5977f4f"
        }
      }, {
        "item": {
          "reference": "urn:uuid:ae805120-44fb-4d51-bcfb-2055a050d1e0"
        }
      }, {
        "item": {
          "reference": "urn:uuid:2b867f05-8a77-43ef-9320-5aa8e1e44e8e"
        }
      }, {
        "item": {
          "reference": "urn:uuid:ab52465e-1697-43c2-b1e9-e972ae774352"
        }
      }, {
        "item": {
          "reference": "urn:uuid:7a65882b-8b2a-48df-a98e-e6bc74323674"
        }
      }, {
        "item": {
          "reference": "urn:uuid:438035b8-c1e5-4909-b75f-d0fdfe611846"
        }
      }, {
        "item": {
          "reference": "urn:uuid:86d2652c-a631-4005-b048-6fdc65643829"
        }
      }, {
        "item": {
          "reference": "urn:uuid:02bd0b9d-8e51-4acb-98ca-5b4081ab6931"
        }
      }, {
        "item": {
          "reference": "urn:uuid:2bde69db-2d0f-4926-bd0c-b49c1311b8f0"
        }
      }, {
        "item": {
          "reference": "urn:uuid:16785590-db95-4ca3-acf8-8471fc1026cb"
        }
      }, {
        "item": {
          "reference": "urn:uuid:be214d61-b47e-454b-8ce7-ec63c2b0cb88"
        }
      }, {
        "item": {
          "reference": "urn:uuid:d392790e-4071-407e-91b2-a62e5453693b"
        }
      }, {
        "item": {
          "reference": "urn:uuid:faa90f21-630a-47a4-8b97-9b52646e7096"
        }
      }, {
        "item": {
          "reference": "urn:uuid:1cfcffe5-85c9-4fb8-be5e-a4164b779594"
        }
      }, {
        "item": {
          "reference": "urn:uuid:4a59b6c0-6c13-4408-bea5-53f8e7475d4c"
        }
      }, {
        "item": {
          "reference": "urn:uuid:34788678-0b18-4595-a35d-14f64962a1fc"
        }
      }, {
        "item": {
          "reference": "urn:uuid:55e9d535-b45b-42fc-8359-48e688c1ebd6"
        }
      }, {
        "item": {
          "reference": "urn:uuid:3eb47c17-827a-4298-bb68-bed7c7776c37"
        }
      }, {
        "item": {
          "reference": "urn:uuid:46eebdb4-0a75-45de-aaac-9edd2ed222d4"
        }
      }, {
        "item": {
          "reference": "urn:uuid:2ded902a-154a-4b7b-a333-6e01f6bd03ce"
        }
      }, {
        "item": {
          "reference": "urn:uuid:b8da1040-7077-4190-8c27-6405365a9212"
        }
      }, {
        "item": {
          "reference": "urn:uuid:e29ff3db-52b7-4200-b9f9-9a6929480cb3"
        }
      }, {
        "item": {
          "reference": "urn:uuid:da609292-1a23-4a67-b4e8-65fc6284dfff"
        }
      }, {
        "item": {
          "reference": "urn:uuid:addbbc99-3047-4e16-ab08-5495eee6d722"
        }
      }, {
        "item": {
          "reference": "urn:uuid:c5ef538d-d348-4fe8-988b-c30216741720"
        }
      }, {
        "item": {
          "reference": "urn:uuid:9dfe58ea-941d-4cc9-8f01-3a38b5ce30f5"
        }
      }, {
        "item": {
          "reference": "urn:uuid:f2dd3936-271c-4ec0-a75c-e7de94745586"
        }
      }, {
        "item": {
          "reference": "urn:uuid:81032962-c5a2-4ba8-a6a6-5f451a7c90a4"
        }
      }, {
        "item": {
          "reference": "urn:uuid:43b230de-a677-468f-a2bd-1b7080b85f0c"
        }
      }, {
        "item": {
          "reference": "urn:uuid:255178af-e281-4445-9e0c-e7bb449440e3"
        }
      }, {
        "item": {
          "reference": "urn:uuid:08378543-5fb9-423d-b744-a496880fd6a8"
        }
      }, {
        "item": {
          "reference": "urn:uuid:a0548e5b-db0d-4242-a2e8-46f131f551aa"
        }
      }, {
        "item": {
          "reference": "urn:uuid:4e22a478-7ad7-4941-966c-5ab8596945ee"
        }
      }, {
        "item": {
          "reference": "urn:uuid:1b09a93d-bce6-48ad-85d4-b7010afd56b3"
        }
      }, {
        "item": {
          "reference": "urn:uuid:112c1730-0c0f-4ff6-a73f-9d6fe985d05b"
        }
      }, {
        "item": {
          "reference": "urn:uuid:da934833-13e4-4294-8387-afe98e111518"
        }
      }, {
        "item": {
          "reference": "urn:uuid:53a632b1-ecaf-4d51-89d9-e7556f5a52d2"
        }
      }, {
        "item": {
          "reference": "urn:uuid:27187d9d-051d-4079-ac12-6347a3a72958"
        }
      }, {
        "item": {
          "reference": "urn:uuid:03c7692f-8761-4a13-8856-3326d9713385"
        }
      }, {
        "item": {
          "reference": "urn:uuid:d38a64d6-da72-4c73-b2f8-f5d7dd87ef13"
        }
      }, {
        "item": {
          "reference": "urn:uuid:dd025dca-3a0d-4743-8374-d32c46015d6d"
        }
      }, {
        "item": {
          "reference": "urn:uuid:5f4b8e65-28d0-4e98-a155-5abdca1bb074"
        }
      }, {
        "item": {
          "reference": "urn:uuid:6231bc31-72be-44f7-b024-771999ebc886"
        }
      }, {
        "item": {
          "reference": "urn:uuid:1fd70291-eda2-4ae4-ab5a-69e734b5e2cb"
        }
      }, {
        "item": {
          "reference": "urn:uuid:137f3351-c7da-45b6-9139-c3e39e6978de"
        }
      }, {
        "item": {
          "reference": "urn:uuid:82183b79-9b9d-4ee0-98fb-755920b3b4a1"
        }
      }, {
        "item": {
          "reference": "urn:uuid:f39af7cc-abab-4a99-94c9-40c91f4d7819"
        }
      }, {
        "item": {
          "reference": "urn:uuid:e60047bd-261c-455f-9196-aa1e0f30b497"
        }
      }, {
        "item": {
          "reference": "urn:uuid:fb8fa375-8936-4c27-9e98-4429a01e7585"
        }
      }, {
        "item": {
          "reference": "urn:uuid:d16a1a75-f086-49a7-b557-0bcfc01a7122"
        }
      }, {
        "item": {
          "reference": "urn:uuid:27d888ad-8b70-4449-b64a-40b628f058cd"
        }
      }, {
        "item": {
          "reference": "urn:uuid:2533813c-c5ec-428a-8d73-63d39eba3f82"
        }
      }, {
        "item": {
          "reference": "urn:uuid:016ed5ef-c3db-4474-ba0f-7337a467ed05"
        }
      }, {
        "item": {
          "reference": "urn:uuid:4afe38d4-deee-4cdc-b38e-0fc6af136180"
        }
      }, {
        "item": {
          "reference": "urn:uuid:b97285ba-0d59-4e69-96d1-f75363df35b7"
        }
      }, {
        "item": {
          "reference": "urn:uuid:a3055054-684c-4043-9670-7ae655202a41"
        }
      }, {
        "item": {
          "reference": "urn:uuid:29d4d9a2-c0a0-4bb3-9605-2e2c2f1bab92"
        }
      }, {
        "item": {
          "reference": "urn:uuid:1599048b-7d5f-4cd7-a21e-64ce6a4ac523"
        }
      }, {
        "item": {
          "reference": "urn:uuid:563189d7-c7d9-454a-8383-72f124440083"
        }
      }, {
        "item": {
          "reference": "urn:uuid:ee3cd987-5285-4b2d-8845-0a30fda1ad92"
        }
      }, {
        "item": {
          "reference": "urn:uuid:96d3071a-29e1-4a33-8a4e-f3ffb997d9c7"
        }
      }, {
        "item": {
          "reference": "urn:uuid:bc219d33-fd3a-4ee6-a605-ab3ee4e6bd57"
        }
      }, {
        "item": {
          "reference": "urn:uuid:a0658f93-28fb-4f36-8185-3ef36ff9eddb"
        }
      }, {
        "item": {
          "reference": "urn:uuid:755dd969-d647-49c4-8144-0b2287af540e"
        }
      }, {
        "item": {
          "reference": "urn:uuid:a4869f40-9364-4305-9c6c-442bcfce8aa8"
        }
      }, {
        "item": {
          "reference": "urn:uuid:474b5638-725b-4da7-8250-cff0650d8e95"
        }
      }, {
        "item": {
          "reference": "urn:uuid:62590ee2-b7d6-49b5-94a7-beed15c91060"
        }
      }, {
        "item": {
          "reference": "urn:uuid:703646d1-fe01-4870-aa94-4830d3050680"
        }
      }, {
        "item": {
          "reference": "urn:uuid:e32a93b3-a1e0-4f5f-8aba-cecf5e39cb4c"
        }
      }, {
        "item": {
          "reference": "urn:uuid:0690913f-b15b-4c71-b6e6-573db5ac293f"
        }
      }, {
        "item": {
          "reference": "urn:uuid:10c3e6ea-59f4-408e-a111-4ac661a9a597"
        }
      }, {
        "item": {
          "reference": "urn:uuid:3abc2cb7-04ce-4edd-9778-e6f80484e311"
        }
      }, {
        "item": {
          "reference": "urn:uuid:c9d6e489-0c02-45fb-bf02-86afa603b62e"
        }
      }, {
        "item": {
          "reference": "urn:uuid:cacc6748-a337-4f7e-87b9-abe5343df374"
        }
      }, {
        "item": {
          "reference": "urn:uuid:78ccd485-61c7-4f88-b33f-638da081ac55"
        }
      }, {
        "item": {
          "reference": "urn:uuid:39cc4cae-1aaa-43ed-893a-6c4c7373cfbc"
        }
      }, {
        "item": {
          "reference": "urn:uuid:f50d044f-710a-4c3b-8284-f60789d467ac"
        }
      }, {
        "item": {
          "reference": "urn:uuid:cab9a183-5289-4625-af20-c61bb0980b41"
        }
      }, {
        "item": {
          "reference": "urn:uuid:2a67b1fa-4388-47f6-8c97-fbe4b6d4b083"
        }
      }, {
        "item": {
          "reference": "urn:uuid:095cf0bc-17f2-46e8-8554-9962d0e31f19"
        }
      }, {
        "item": {
          "reference": "urn:uuid:738cb3a9-187b-4ad1-946a-429579e02e61"
        }
      }, {
        "item": {
          "reference": "urn:uuid:97e37d7e-330b-4011-a3d0-b9ea843f7b85"
        }
      }, {
        "item": {
          "reference": "urn:uuid:6fc0c2f9-ac29-463f-adfa-ee0848b675eb"
        }
      }, {
        "item": {
          "reference": "urn:uuid:bb0fa41c-26fd-430b-807b-c25da5db9a95"
        }
      }, {
        "item": {
          "reference": "urn:uuid:2cbe4955-2d11-4b02-9ffd-8ba1974c151b"
        }
      }, {
        "item": {
          "reference": "urn:uuid:de526f8c-0e81-4d73-a65d-f904379f088a"
        }
      }, {
        "item": {
          "reference": "urn:uuid:b0fbbd2e-34b8-455e-b29e-5d88363bb983"
        }
      }, {
        "item": {
          "reference": "urn:uuid:71f85174-6625-4843-81eb-b1ebdb2d8b5e"
        }
      }, {
        "item": {
          "reference": "urn:uuid:80c5748f-a51a-49a2-bffb-c8fa80664ae6"
        }
      }, {
        "item": {
          "reference": "urn:uuid:eedb2889-2c3e-4285-bb48-8f5a6e81459c"
        }
      }, {
        "item": {
          "reference": "urn:uuid:54a08849-f91e-4676-9266-bc15cb6a92df"
        }
      }, {
        "item": {
          "reference": "urn:uuid:1d8e5675-2e7a-4007-86c3-f3cd6b175e61"
        }
      }, {
        "item": {
          "reference": "urn:uuid:2592176f-7892-41b0-a419-0bc936375535"
        }
      }, {
        "item": {
          "reference": "urn:uuid:6cd0afec-c6f3-4f72-8c88-54c411d734af"
        }
      }, {
        "item": {
          "reference": "urn:uuid:d9c98a2a-0023-4877-b2cf-10e85954bac2"
        }
      }, {
        "item": {
          "reference": "urn:uuid:9e379717-ce56-42d9-8707-85465d862832"
        }
      }, {
        "item": {
          "reference": "urn:uuid:50b80093-b2f9-413a-b131-cd90b6339671"
        }
      }, {
        "item": {
          "reference": "urn:uuid:18700f76-0fa5-4cba-a5da-a35d1a33aac6"
        }
      }, {
        "item": {
          "reference": "urn:uuid:cfe947e7-9913-4fde-a00e-06144eba7f8e"
        }
      }, {
        "item": {
          "reference": "urn:uuid:51a86bf3-403f-4937-bf26-500f18e7d796"
        }
      }, {
        "item": {
          "reference": "urn:uuid:601f9eb0-128e-4024-89f0-2708ef3fe2eb"
        }
      }, {
        "item": {
          "reference": "urn:uuid:a1c244c2-4dab-4f87-8fd7-4ca7bcb9346f"
        }
      }, {
        "item": {
          "reference": "urn:uuid:55c4e10d-4129-4a28-a0db-9c32355bd880"
        }
      }, {
        "item": {
          "reference": "urn:uuid:3a7e29fd-06de-47dc-a5a7-5ca60c1ee40d"
        }
      }, {
        "item": {
          "reference": "urn:uuid:4f484c16-f2fd-4d1a-8afd-11413df4a1cb"
        }
      }, {
        "item": {
          "reference": "urn:uuid:e11b4951-12c0-41c8-8e76-9d05af6b04df"
        }
      }, {
        "item": {
          "reference": "urn:uuid:4a137145-d8eb-4a43-9d00-62add43f6897"
        }
      }, {
        "item": {
          "reference": "urn:uuid:f3858208-614d-4aa4-9094-74981fff6832"
        }
      }, {
        "item": {
          "reference": "urn:uuid:c5ea276d-9b7d-4aca-9f85-096dd1672b03"
        }
      }, {
        "item": {
          "reference": "urn:uuid:9868e821-fb5d-477e-b645-32b4b45385b9"
        }
      }, {
        "item": {
          "reference": "urn:uuid:56664f67-44db-41a9-9240-b981f1986a1b"
        }
      }, {
        "item": {
          "reference": "urn:uuid:e6a7f8ed-5294-4a8a-9700-306f25866d4d"
        }
      }, {
        "item": {
          "reference": "urn:uuid:f5f8e368-5cd7-4f5b-be2d-f99e75c4d0c8"
        }
      }, {
        "item": {
          "reference": "urn:uuid:b944af2e-b86d-4043-91e3-ab31e3d75f63"
        }
      }, {
        "item": {
          "reference": "urn:uuid:89895b09-eb65-48b8-b307-fa081f80224a"
        }
      }, {
        "item": {
          "reference": "urn:uuid:fc3d45fb-1c96-452b-ba92-c2bbea935f9c"
        }
      }, {
        "item": {
          "reference": "urn:uuid:192b5e7c-b21f-49bd-a6c5-8c9d57a2d6d1"
        }
      }, {
        "item": {
          "reference": "urn:uuid:9c6febe5-2ed0-478b-9f76-0fff7ae59a9a"
        }
      }, {
        "item": {
          "reference": "urn:uuid:b8badbd7-2d41-4c26-99a3-de2814c01a3c"
        }
      }, {
        "item": {
          "reference": "urn:uuid:20346a69-3759-4afe-9b51-4cd53cf4c959"
        }
      }, {
        "item": {
          "reference": "urn:uuid:7bf98abb-6d04-4128-855f-8fcda3ae171c"
        }
      }, {
        "item": {
          "reference": "urn:uuid:1c62fa50-c673-4e4d-8b26-19dc79e8168e"
        }
      }, {
        "item": {
          "reference": "urn:uuid:ccfa84dd-8d01-4839-a329-7f1443aee6eb"
        }
      }, {
        "item": {
          "reference": "urn:uuid:2579ff73-ddb9-4155-b9db-ef8b73a3f4c3"
        }
      }, {
        "item": {
          "reference": "urn:uuid:db8faa96-9c3f-427f-b16a-06ead7c2b709"
        }
      }, {
        "item": {
          "reference": "urn:uuid:6485327e-760a-4a5a-955a-b79be4192591"
        }
      }, {
        "item": {
          "reference": "urn:uuid:6746930d-155d-4563-9607-eb5df155d06f"
        }
      }, {
        "item": {
          "reference": "urn:uuid:f4abeec8-6083-403f-9b4b-e3936dab6645"
        }
      }, {
        "item": {
          "reference": "urn:uuid:44c59010-d443-469e-b720-794ab023fa00"
        }
      }, {
        "item": {
          "reference": "urn:uuid:77d8bd7a-15bd-494b-9698-943ce32bd29b"
        }
      }, {
        "item": {
          "reference": "urn:uuid:2496fadc-0631-4ae6-ae1d-bd16f7ea8a95"
        }
      } ]
    }
  } ]
}