{
  "resourceType": "Bundle",
  "identifier": {
    "type": {
      "text": "ClinicalDocument VersionNumber"
    },
    "value": "1"
  },
  "type": "message",
  "entry": [ {
    "fullUrl": "urn:uuid:2F182787-CA39-46F8-9B1C-8E77F3050067",
    "resource": {
      "resourceType": "MessageHeader",
      "id": "2F182787-CA39-46F8-9B1C-8E77F3050067",
      "event": {
        "system": "https://fhir.nhs.uk/STU3/CodeSystem/EventType-1",
        "code": "referral-1",
        "display": "Referral"
      },
      "destination": [ {
        "endpoint": "urn:nhs-uk:addressing:ods:FDH68RPX:DOSServiceID:2000038407"
      } ],
      "timestamp": "2021-04-06T11:29:27.000+00:00",
      "source": {
        "name": "NHS 111 Adaptor",
        "endpoint": "http://localhost:8080/report"
      },
      "reason": {
        "coding": [ {
          "system": "urn:nhs-itk:ns:201005:interaction",
          "code": "urn:nhs-itk:interaction:primaryOutofHourRecipientNHS111CDADocument-v2-0"
        } ]
      }
    },
    "response": {
      "status": "success",
      "lastModified": "2022-05-05T12:27:57.624+00:00"
    }
  }, {
    "fullUrl": "urn:uuid:0d688b3d-9190-4d41-8770-9829e29617f4",
    "resource": {
      "resourceType": "Encounter",
      "id": "0d688b3d-9190-4d41-8770-9829e29617f4",
      "identifier": [ {
        "system": "2.16.840.1.113883.2.1.3.2.4.18.34",
        "value": "CAC4BF79-AF64-47E2-8162-53438279E2F9"
      }, {
        "system": "2.16.840.1.113883.2.1.3.2.4.18.35",
        "value": "59263"
      }, {
        "system": "2.16.840.1.113883.2.1.3.2.4.18.49",
        "value": "CAC4BF79-AF64-47E2-8162-53438279E2F9"
      } ],
      "status": "finished",
      "type": [ {
        "text": "111 Encounter Referral"
      } ],
      "subject": {
        "reference": "urn:uuid:bac4a0ed-5b3d-4349-ba90-7fcdf49dc512"
      },
      "participant": [ {
        "type": [ {
          "coding": [ {
            "system": "http://hl7.org/fhir/ValueSet/encounter-participant-type",
            "code": "PPRF",
            "display": "Author"
          } ]
        } ],
        "individual": {
          "reference": "urn:uuid:fbafbb2f-7a0e-4c59-833d-5c40cc1f9bc1"
        }
      }, {
        "type": [ {
          "text": "Informant"
        } ],
        "individual": {
          "reference": "urn:uuid:36fb44bf-75db-4225-99c4-61259d10fa9f"
        }
      }, {
        "type": [ {
          "coding": [ {
            "system": "http://hl7.org/fhir/ValueSet/encounter-participant-type",
            "code": "ATND",
            "display": "Responsible Party"
          } ]
        } ],
        "individual": {
          "reference": "urn:uuid:e01eb1c8-ed77-4377-91bd-66a0ae8800e0"
        }
      } ],
      "period": {
        "start": "2021-04-06T11:21:50+00:00",
        "end": "2021-04-06T11:29:25+00:00"
      },
      "location": [ {
        "location": {
          "reference": "urn:uuid:d3557ee9-9d01-418a-a52c-f753ae520f8f"
        },
        "status": "completed"
      } ],
      "serviceProvider": {
        "reference": "urn:uuid:b8b44a5a-4926-41f0-b630-e019620d0b36"
      }
    }
  }, {
    "fullUrl": "urn:uuid:b8b44a5a-4926-41f0-b630-e019620d0b36",
    "resource": {
      "resourceType": "Organization",
      "id": "b8b44a5a-4926-41f0-b630-e019620d0b36",
      "active": true,
      "type": [ {
        "text": "CST"
      } ],
      "name": "SCAS111"
    }
  }, {
    "fullUrl": "urn:uuid:fbafbb2f-7a0e-4c59-833d-5c40cc1f9bc1",
    "resource": {
      "resourceType": "Practitioner",
      "id": "fbafbb2f-7a0e-4c59-833d-5c40cc1f9bc1",
      "active": true,
      "name": [ {
        "use": "official",
        "family": "Hadfield",
        "given": [ "Ryan" ]
      } ]
    }
  }, {
    "fullUrl": "urn:uuid:36fb44bf-75db-4225-99c4-61259d10fa9f",
    "resource": {
      "resourceType": "RelatedPerson",
      "id": "36fb44bf-75db-4225-99c4-61259d10fa9f",
      "active": true,
      "patient": {
        "reference": "urn:uuid:bac4a0ed-5b3d-4349-ba90-7fcdf49dc512"
      },
      "relationship": {
        "coding": [ {
          "system": "2.16.840.1.113883.2.1.3.2.4.16.45",
          "code": "99",
          "display": "Not specified"
        } ]
      },
      "name": [ {
        "text": "Test Caller (Carer - Home)"
      } ],
      "telecom": [ {
        "system": "phone",
        "value": "tel:07777888888",
        "use": "home"
      } ],
      "gender": "unknown"
    }
  }, {
    "fullUrl": "urn:uuid:e01eb1c8-ed77-4377-91bd-66a0ae8800e0",
    "resource": {
      "resourceType": "Practitioner",
      "id": "e01eb1c8-ed77-4377-91bd-66a0ae8800e0",
      "active": true,
      "name": [ {
        "use": "official",
        "family": "Black",
        "given": [ "John" ]
      } ]
    }
  }, {
    "fullUrl": "urn:uuid:d3557ee9-9d01-418a-a52c-f753ae520f8f",
    "resource": {
      "resourceType": "Location",
      "id": "d3557ee9-9d01-418a-a52c-f753ae520f8f",
      "name": "Incident Location",
      "address": {
        "type": "physical",
        "line": [ "12A", "Otter Close", "Bishopstoke", "Eastleigh", "Hampshire" ],
        "postalCode": "SO50 8NF"
      }
    }
  }, {
    "fullUrl": "urn:uuid:bac4a0ed-5b3d-4349-ba90-7fcdf49dc512",
    "resource": {
      "resourceType": "Patient",
      "id": "bac4a0ed-5b3d-4349-ba90-7fcdf49dc512",
      "identifier": [ {
        "extension": [ {
          "url": "https://fhir.hl7.org.uk/STU3/StructureDefinition/Extension-CareConnect-NHSNumberVerificationStatus-1",
          "valueCodeableConcept": {
            "coding": [ {
              "system": "https://fhir.hl7.org.uk/STU3/StructureDefinition/Extension-CareConnect-NHSNumberVerificationStatus-1",
              "code": "02"
            } ]
          }
        } ],
        "system": "https://fhir.nhs.uk/Id/nhs-number",
        "value": "0000000000"
      } ],
      "active": true,
      "name": [ {
        "use": "official",
        "family": "Testone",
        "given": [ "Test" ]
      } ],
      "telecom": [ {
        "system": "phone",
        "value": "tel:000000000000",
        "use": "home"
      }, {
        "system": "phone",
        "value": "tel:01111111111",
        "use": "mobile"
      }, {
        "system": "phone",
        "value": "tel:000000000000"
      } ],
      "gender": "female",
      "birthDate": "1980-01-01",
      "address": [ {
        "use": "home",
        "line": [ "Southern House", "Sparrowgrove", "Otterbourne", "Winchester", "Hampshire" ],
        "postalCode": "SO21 2RU"
      }, {
        "type": "physical",
        "line": [ "12A", "Otter Close", "Bishopstoke", "Eastleigh", "Hampshire" ],
        "postalCode": "SO50 8NF"
      } ]
    }
  }, {
    "fullUrl": "urn:uuid:5a84b702-d970-454d-bced-f73e2134012b",
    "resource": {
      "resourceType": "HealthcareService",
      "id": "5a84b702-d970-454d-bced-f73e2134012b",
      "active": true,
      "providedBy": {
        "reference": "urn:uuid:788a93cd-7282-4456-bb6b-36c958d64785"
      },
      "location": [ {
        "reference": "urn:uuid:b855ee63-059a-47b4-ab7b-8a33ce111d9c"
      } ],
      "name": "Lloyds Pharmacy, Stokewood Close, Fair Oak, Eastleigh"
    }
  }, {
    "fullUrl": "urn:uuid:b855ee63-059a-47b4-ab7b-8a33ce111d9c",
    "resource": {
      "resourceType": "Location",
      "id": "b855ee63-059a-47b4-ab7b-8a33ce111d9c",
      "managingOrganization": {
        "reference": "urn:uuid:788a93cd-7282-4456-bb6b-36c958d64785"
      }
    }
  }, {
    "fullUrl": "urn:uuid:788a93cd-7282-4456-bb6b-36c958d64785",
    "resource": {
      "resourceType": "Organization",
      "id": "788a93cd-7282-4456-bb6b-36c958d64785",
      "identifier": [ {
        "value": "FDH68RPX"
      } ],
      "type": [ {
        "coding": [ {
          "code": "PRCP",
          "display": "Lloyds Pharmacy, Stokewood Close, Fair Oak, Eastleigh"
        } ]
      } ],
      "name": "Lloyds Pharmacy, Stokewood Close, Fair Oak, Eastleigh"
    }
  }, {
    "fullUrl": "urn:uuid:6a8d088e-37e0-414b-8ad8-d8835e29a0fd",
    "resource": {
      "resourceType": "ReferralRequest",
      "id": "6a8d088e-37e0-414b-8ad8-d8835e29a0fd",
      "status": "active",
      "intent": "plan",
      "priority": "routine",
      "subject": {
        "reference": "urn:uuid:bac4a0ed-5b3d-4349-ba90-7fcdf49dc512"
      },
      "context": {
        "reference": "urn:uuid:0d688b3d-9190-4d41-8770-9829e29617f4"
      },
      "occurrencePeriod": {
        "start": "2021-04-06T11:29:27+00:00"
      },
      "authoredOn": "2021-04-06T11:29:25+00:00",
      "requester": {
        "agent": {
          "reference": "urn:uuid:7c45bedc-b814-4ffe-92fe-9c00407767f9"
        },
        "onBehalfOf": {
          "reference": "urn:uuid:b8b44a5a-4926-41f0-b630-e019620d0b36"
        }
      },
      "recipient": [ {
        "reference": "urn:uuid:5a84b702-d970-454d-bced-f73e2134012b"
      } ],
      "reasonReference": [ {
        "reference": "urn:uuid:345103b0-b79c-463f-b1d8-b5ac39e51744"
      } ],
      "supportingInfo": [ {
        "reference": "urn:uuid:4d7b8eff-6088-4b6b-a17f-107234975315"
      } ]
    }
  }, {
    "fullUrl": "urn:uuid:4d7b8eff-6088-4b6b-a17f-107234975315",
    "resource": {
      "resourceType": "ProcedureRequest",
      "id": "4d7b8eff-6088-4b6b-a17f-107234975315",
      "status": "active",
      "intent": "plan",
      "priority": "routine",
      "doNotPerform": false,
      "code": {
        "coding": [ {
          "system": "2.16.840.1.113883.2.1.3.2.4.17.325",
          "code": "Dx86",
          "display": "Repeat Prescription required within 12 hours"
        } ]
      },
      "subject": {
        "reference": "urn:uuid:bac4a0ed-5b3d-4349-ba90-7fcdf49dc512"
      },
      "occurrencePeriod": {
        "start": "2021-04-06T11:29:27+00:00"
      },
      "reasonReference": [ {
        "reference": "urn:uuid:345103b0-b79c-463f-b1d8-b5ac39e51744"
      } ]
    }
  }, {
    "fullUrl": "urn:uuid:3bd1e948-9c5e-400c-b546-416f6596a06c",
    "resource": {
      "resourceType": "Composition",
      "id": "3bd1e948-9c5e-400c-b546-416f6596a06c",
      "identifier": {
        "use": "usual",
        "value": "B66502CD-A9B4-4F3E-83EB-981F572C2C91"
      },
      "status": "final",
      "type": {
        "coding": [ {
          "system": "http://snomed.info/sct",
          "code": "371531000",
          "display": "Report of clinical encounter (record artifact)"
        } ]
      },
      "subject": {
        "reference": "urn:uuid:bac4a0ed-5b3d-4349-ba90-7fcdf49dc512"
      },
      "encounter": {
        "reference": "urn:uuid:0d688b3d-9190-4d41-8770-9829e29617f4"
      },
      "date": "2021-04-06T11:29:27+00:00",
      "author": [ {
        "reference": "urn:uuid:fbafbb2f-7a0e-4c59-833d-5c40cc1f9bc1"
      } ],
      "title": "111 Report",
      "confidentiality": "N",
      "section": [ {
        "section": [ {
          "title": "Patient's Reported Condition",
          "text": {
            "status": "generated",
            "div": "<div xmlns=\"http://www.w3.org/1999/xhtml\">&lt;content&gt;test&lt;/content&gt;\n                                                    &lt;br/&gt;</div>"
          }
        }, {
          "title": "Pathways Disposition",
          "text": {
            "status": "generated",
            "div": "<div xmlns=\"http://www.w3.org/1999/xhtml\">Repeat Prescription required within 12 hours (Dx86)                                         &lt;br/&gt;\n                                                    &lt;br/&gt;                                         Selected service: Lloyds Pharmacy, Stokewood Close, Fair Oak, Eastle&lt;br/&gt;</div>"
          }
        }, {
          "title": "Consultation Summary",
          "text": {
            "status": "generated",
            "div": "<div xmlns=\"http://www.w3.org/1999/xhtml\">Prescription request&lt;br/&gt;Not enough medication until surgery opens&lt;br/&gt;No medication available&lt;br/&gt;Next dose due within next 12 hours&lt;br/&gt;</div>"
          }
        }, {
          "title": "Pathways Assessment",
          "text": {
            "status": "generated",
            "div": "<div xmlns=\"http://www.w3.org/1999/xhtml\">Reason for call menu - continued to next list.&lt;br/&gt;A prescription request was the main reason for the contact.&lt;br/&gt;The main reason for the contact was not a new or worsening illness.&lt;br/&gt;The individual did not have enough medication to last until the surgery next opened.&lt;br/&gt;The medication was suitable for repeat prescribing without further consultation.&lt;br/&gt;The individual had no medication available.&lt;br/&gt;The next dose was due within 12 hours.&lt;br/&gt;Instructions given were: The individual needs a repeat prescription.&lt;br/&gt;Directory of Services referral: Lloyds Pharmacy, Stokewood Close, Fair Oak, Eastleigh&lt;br/&gt;</div>"
          }
        }, {
          "title": "Advice Given",
          "text": {
            "status": "generated",
            "div": "<div xmlns=\"http://www.w3.org/1999/xhtml\">IF THE RECOMMENDED TIMEFRAME FALLS OUTSIDE OPENING HOURS: I will arrange for a clinician to speak to the individual.&lt;br/&gt;\n                                                    &lt;br/&gt;</div>"
          }
        }, {
          "title": "Information And Advice Given"
        }, {
          "title": "Disposition",
          "text": {
            "status": "generated",
            "div": "<div xmlns=\"http://www.w3.org/1999/xhtml\">&lt;content&gt;Repeat Prescription required within 12 hours&lt;br/&gt;\n                                                    &lt;/content&gt;\n                                                    &lt;br/&gt;\n                                                    &lt;br/&gt;</div>"
          }
        } ]
      }, {
        "title": "CarePlan",
        "entry": [ {
          "reference": "urn:uuid:80a16d45-ba97-401e-8012-3903fe817eb1"
        } ]
      }, {
        "title": "ReferralRequest",
        "entry": [ {
          "reference": "urn:uuid:6a8d088e-37e0-414b-8ad8-d8835e29a0fd"
        } ]
      }, {
        "title": "QuestionnaireResponse",
        "entry": [ {
          "reference": "urn:uuid:d0e49e7b-c7fe-4a01-841a-7a91cda4eaac"
        } ]
      }, {
        "title": "QuestionnaireResponse",
        "entry": [ {
          "reference": "urn:uuid:e0fda8b8-381a-4870-8606-b7bf940dd360"
        } ]
      }, {
        "title": "QuestionnaireResponse",
        "entry": [ {
          "reference": "urn:uuid:a6a4a975-3185-452d-bfcc-3f1ba6292baa"
        } ]
      }, {
        "title": "QuestionnaireResponse",
        "entry": [ {
          "reference": "urn:uuid:a52735a5-5c13-4d23-b7b0-7eccdc711ef0"
        } ]
      }, {
        "title": "QuestionnaireResponse",
        "entry": [ {
          "reference": "urn:uuid:7a21de61-d469-4f63-b667-576615cfe7e8"
        } ]
      }, {
        "title": "QuestionnaireResponse",
        "entry": [ {
          "reference": "urn:uuid:bbdee695-ba8d-4c4a-87fc-c7608a3a4e03"
        } ]
      }, {
        "title": "QuestionnaireResponse",
        "entry": [ {
          "reference": "urn:uuid:06fa1f22-7589-493e-95ff-06855d16e050"
        } ]
      }, {
        "title": "QuestionnaireResponse",
        "entry": [ {
          "reference": "urn:uuid:7eba9e7b-c247-4111-82c2-1add1ab1fab1"
        } ]
      }, {
        "title": "QuestionnaireResponse",
        "entry": [ {
          "reference": "urn:uuid:cee59e0a-5ed8-4ecc-be5c-c6f834bddfc0"
        } ]
      }, {
        "title": "QuestionnaireResponse",
        "entry": [ {
          "reference": "urn:uuid:78675c25-2706-436c-a356-94cf8dc336f9"
        } ]
      }, {
        "title": "QuestionnaireResponse",
        "entry": [ {
          "reference": "urn:uuid:a20ef035-f41d-4b9f-aadb-69b042e4ad66"
        } ]
      }, {
        "title": "QuestionnaireResponse",
        "entry": [ {
          "reference": "urn:uuid:ea8ebe4f-83ab-405f-a8ec-3945108692db"
        } ]
      }, {
        "title": "QuestionnaireResponse",
        "entry": [ {
          "reference": "urn:uuid:962fc7ca-2524-4d5f-8d87-fb472992c446"
        } ]
      }, {
        "title": "QuestionnaireResponse",
        "entry": [ {
          "reference": "urn:uuid:98ba429d-e11b-48b2-aff2-502604a62c14"
        } ]
      }, {
        "title": "QuestionnaireResponse",
        "entry": [ {
          "reference": "urn:uuid:4ad6da83-760b-4dc5-ae9a-637bf68cf4f3"
        } ]
      }, {
        "title": "QuestionnaireResponse",
        "entry": [ {
          "reference": "urn:uuid:d5311e37-7e82-45c8-8f6d-5d146fbf8388"
        } ]
      }, {
        "title": "QuestionnaireResponse",
        "entry": [ {
          "reference": "urn:uuid:75807203-3bfd-4b93-8474-40d9bfc8ea04"
        } ]
      }, {
        "title": "QuestionnaireResponse",
        "entry": [ {
          "reference": "urn:uuid:a1d19bb5-b6e4-454b-85e0-0aa5d0963931"
        } ]
      }, {
        "title": "QuestionnaireResponse",
        "entry": [ {
          "reference": "urn:uuid:5692f9a8-eaf7-49ee-a75a-47332d52ff00"
        } ]
      }, {
        "title": "QuestionnaireResponse",
        "entry": [ {
          "reference": "urn:uuid:a5e246af-66ad-4f74-988e-b6448e3288e9"
        } ]
      }, {
        "title": "QuestionnaireResponse",
        "entry": [ {
          "reference": "urn:uuid:3d5191f3-532b-4905-ac53-6fd80d849c7f"
        } ]
      }, {
        "title": "QuestionnaireResponse",
        "entry": [ {
          "reference": "urn:uuid:ae63f19f-f967-4784-9801-8ba1a524a827"
        } ]
      }, {
        "title": "QuestionnaireResponse",
        "entry": [ {
          "reference": "urn:uuid:57be3b3e-5720-48bc-a915-aa71ae91a26a"
        } ]
      }, {
        "title": "QuestionnaireResponse",
        "entry": [ {
          "reference": "urn:uuid:c240626f-33e5-47be-b5f9-59ec1c726dc3"
        } ]
      }, {
        "title": "QuestionnaireResponse",
        "entry": [ {
          "reference": "urn:uuid:b56337c1-9a47-4c45-a321-c35ecea27c29"
        } ]
      }, {
        "title": "QuestionnaireResponse",
        "entry": [ {
          "reference": "urn:uuid:b526cf7d-841a-4c0d-ae77-05548d28504e"
        } ]
      }, {
        "title": "QuestionnaireResponse",
        "entry": [ {
          "reference": "urn:uuid:6cb6875f-bc4e-472c-8541-937c12b53e42"
        } ]
      }, {
        "title": "QuestionnaireResponse",
        "entry": [ {
          "reference": "urn:uuid:20fe5f8c-c408-4d1a-af53-ba669dab970e"
        } ]
      }, {
        "title": "QuestionnaireResponse",
        "entry": [ {
          "reference": "urn:uuid:2b490787-65a4-4916-8511-e326e9feaef3"
        } ]
      }, {
        "title": "QuestionnaireResponse",
        "entry": [ {
          "reference": "urn:uuid:f317458a-d8c7-4e28-b363-64ffaa801d18"
        } ]
      }, {
        "title": "QuestionnaireResponse",
        "entry": [ {
          "reference": "urn:uuid:9d83118e-f8fb-4f68-bf1f-1db98701029f"
        } ]
      }, {
        "title": "QuestionnaireResponse",
        "entry": [ {
          "reference": "urn:uuid:e96e58f0-4142-4489-af59-e56d087cff52"
        } ]
      }, {
        "title": "QuestionnaireResponse",
        "entry": [ {
          "reference": "urn:uuid:44694dae-5ed8-4de7-8488-60e42341821e"
        } ]
      }, {
        "title": "QuestionnaireResponse",
        "entry": [ {
          "reference": "urn:uuid:eca129e2-cc8d-4820-929b-9adc143d3aad"
        } ]
      }, {
        "title": "QuestionnaireResponse",
        "entry": [ {
          "reference": "urn:uuid:85b2ee2b-f505-4371-b89d-e16ce766d019"
        } ]
      }, {
        "title": "QuestionnaireResponse",
        "entry": [ {
          "reference": "urn:uuid:27c900c0-3033-4bdf-964b-e355db00e401"
        } ]
      }, {
        "title": "QuestionnaireResponse",
        "entry": [ {
          "reference": "urn:uuid:50bffb6c-dfa7-4a5e-8b2e-d11943926ea6"
        } ]
      }, {
        "title": "QuestionnaireResponse",
        "entry": [ {
          "reference": "urn:uuid:27fa0e7d-697a-4ee4-91c1-3019b0407345"
        } ]
      }, {
        "title": "QuestionnaireResponse",
        "entry": [ {
          "reference": "urn:uuid:50d067e6-49ee-49e3-8879-72ffc9a9b36c"
        } ]
      }, {
        "title": "QuestionnaireResponse",
        "entry": [ {
          "reference": "urn:uuid:39ab9a3b-384f-4bbd-9003-cbc99e32f795"
        } ]
      }, {
        "title": "QuestionnaireResponse",
        "entry": [ {
          "reference": "urn:uuid:296e59d5-bd41-4d5b-be3b-e64be1f16592"
        } ]
      }, {
        "title": "QuestionnaireResponse",
        "entry": [ {
          "reference": "urn:uuid:ab0987e4-fe0c-42b1-8e00-d87a512345c5"
        } ]
      }, {
        "title": "QuestionnaireResponse",
        "entry": [ {
          "reference": "urn:uuid:fe3f8e66-6b6d-4aa0-b3a1-2cff14ff2a5d"
        } ]
      }, {
        "title": "QuestionnaireResponse",
        "entry": [ {
          "reference": "urn:uuid:6e3aa872-fcae-4662-8d15-197bc32cad6a"
        } ]
      }, {
        "title": "QuestionnaireResponse",
        "entry": [ {
          "reference": "urn:uuid:a6fb99f5-8215-4443-bf09-60acef0d62fc"
        } ]
      }, {
        "title": "QuestionnaireResponse",
        "entry": [ {
          "reference": "urn:uuid:1484fef3-0682-45df-ba55-6028907741ab"
        } ]
      }, {
        "title": "QuestionnaireResponse",
        "entry": [ {
          "reference": "urn:uuid:f033847e-5a9c-402d-83ae-39dd9b4dfb89"
        } ]
      }, {
        "title": "QuestionnaireResponse",
        "entry": [ {
          "reference": "urn:uuid:bc5b011b-e6d8-419a-a02c-9852622006b2"
        } ]
      }, {
        "title": "QuestionnaireResponse",
        "entry": [ {
          "reference": "urn:uuid:33f68ec1-2a8c-43dd-b6a2-4fec48f2f54f"
        } ]
      }, {
        "title": "QuestionnaireResponse",
        "entry": [ {
          "reference": "urn:uuid:e09eca02-173b-427a-aaf9-b29eab29a7fd"
        } ]
      }, {
        "title": "QuestionnaireResponse",
        "entry": [ {
          "reference": "urn:uuid:2c414295-1866-4c38-adee-b00e28214d62"
        } ]
      }, {
        "title": "QuestionnaireResponse",
        "entry": [ {
          "reference": "urn:uuid:8e0b15b6-c4cd-471c-9316-9242c0d2d09d"
        } ]
      }, {
        "title": "QuestionnaireResponse",
        "entry": [ {
          "reference": "urn:uuid:c1b2917f-cbb2-4179-91d8-bdf65b9c5e27"
        } ]
      }, {
        "title": "QuestionnaireResponse",
        "entry": [ {
          "reference": "urn:uuid:dba56b65-f133-4c64-adbc-a2905b63a2c8"
        } ]
      }, {
        "title": "QuestionnaireResponse",
        "entry": [ {
          "reference": "urn:uuid:82271ca3-4d11-4ce6-819e-6b84e5862829"
        } ]
      }, {
        "title": "QuestionnaireResponse",
        "entry": [ {
          "reference": "urn:uuid:402b4675-98c1-4f37-bb8c-f80484f7735c"
        } ]
      }, {
        "title": "QuestionnaireResponse",
        "entry": [ {
          "reference": "urn:uuid:dcff5c8d-d6c2-440b-9ad4-bf41acb57c2b"
        } ]
      }, {
        "title": "QuestionnaireResponse",
        "entry": [ {
          "reference": "urn:uuid:ff105f1d-d26b-4d84-abac-ab120fd75ad8"
        } ]
      }, {
        "title": "QuestionnaireResponse",
        "entry": [ {
          "reference": "urn:uuid:5a534430-d8fb-4f4b-92f2-54b3ff5cdf0f"
        } ]
      }, {
        "title": "QuestionnaireResponse",
        "entry": [ {
          "reference": "urn:uuid:f1aaaf15-dc1c-4194-ab08-fe0f4516c359"
        } ]
      }, {
        "title": "QuestionnaireResponse",
        "entry": [ {
          "reference": "urn:uuid:57e75d20-0dfa-40d2-9749-94519f8bd2e7"
        } ]
      } ]
    }
  }, {
    "fullUrl": "urn:uuid:80a16d45-ba97-401e-8012-3903fe817eb1",
    "resource": {
      "resourceType": "CarePlan",
      "id": "80a16d45-ba97-401e-8012-3903fe817eb1",
      "status": "completed",
      "intent": "plan",
      "title": "Information And Advice Given",
      "subject": {
        "reference": "urn:uuid:bac4a0ed-5b3d-4349-ba90-7fcdf49dc512"
      },
      "context": {
        "reference": "urn:uuid:0d688b3d-9190-4d41-8770-9829e29617f4"
      },
      "period": {
        "start": "2021-04-06T11:21:50+00:00",
        "end": "2021-04-06T11:29:25+00:00"
      },
      "addresses": [ {
        "reference": "urn:uuid:345103b0-b79c-463f-b1d8-b5ac39e51744"
      } ]
    }
  }, {
    "fullUrl": "urn:uuid:f7c1e72f-8b81-4acc-887b-1625ff4b25a6",
    "resource": {
      "resourceType": "Consent",
      "id": "f7c1e72f-8b81-4acc-887b-1625ff4b25a6",
      "identifier": {
        "use": "usual",
        "value": "B66502CD-A9B4-4F3E-83EB-981F572C2C91"
      },
      "status": "active",
      "patient": {
        "reference": "urn:uuid:bac4a0ed-5b3d-4349-ba90-7fcdf49dc512"
      },
      "period": {
        "start": "2021-04-06T11:21:50+00:00",
        "end": "2021-04-06T11:29:25+00:00"
      },
      "consentingParty": [ {
        "reference": "urn:uuid:bac4a0ed-5b3d-4349-ba90-7fcdf49dc512"
      } ],
      "action": [ {
        "coding": [ {
          "system": "http://snomed.info/sct",
          "code": "425691002",
          "display": "Consent given for electronic record sharing"
        } ],
        "text": "Consent given for electronic record sharing"
      } ],
      "organization": [ {
        "reference": "urn:uuid:b8b44a5a-4926-41f0-b630-e019620d0b36"
      } ],
      "policyRule": "http://hl7.org/fhir/ConsentPolicy/opt-out",
      "data": [ {
        "meaning": "related",
        "reference": {
          "reference": "urn:uuid:0d688b3d-9190-4d41-8770-9829e29617f4"
        }
      } ]
    }
  }, {
    "fullUrl": "urn:uuid:345103b0-b79c-463f-b1d8-b5ac39e51744",
    "resource": {
      "resourceType": "Condition",
      "id": "345103b0-b79c-463f-b1d8-b5ac39e51744",
      "clinicalStatus": "active",
      "verificationStatus": "unknown",
      "subject": {
        "reference": "urn:uuid:bac4a0ed-5b3d-4349-ba90-7fcdf49dc512"
      },
      "context": {
        "reference": "urn:uuid:0d688b3d-9190-4d41-8770-9829e29617f4"
      },
      "evidence": [ {
        "detail": [ {
          "reference": "urn:uuid:d0e49e7b-c7fe-4a01-841a-7a91cda4eaac"
        } ]
      }, {
        "detail": [ {
          "reference": "urn:uuid:e0fda8b8-381a-4870-8606-b7bf940dd360"
        } ]
      }, {
        "detail": [ {
          "reference": "urn:uuid:a6a4a975-3185-452d-bfcc-3f1ba6292baa"
        } ]
      }, {
        "detail": [ {
          "reference": "urn:uuid:a52735a5-5c13-4d23-b7b0-7eccdc711ef0"
        } ]
      }, {
        "detail": [ {
          "reference": "urn:uuid:7a21de61-d469-4f63-b667-576615cfe7e8"
        } ]
      }, {
        "detail": [ {
          "reference": "urn:uuid:bbdee695-ba8d-4c4a-87fc-c7608a3a4e03"
        } ]
      }, {
        "detail": [ {
          "reference": "urn:uuid:06fa1f22-7589-493e-95ff-06855d16e050"
        } ]
      }, {
        "detail": [ {
          "reference": "urn:uuid:7eba9e7b-c247-4111-82c2-1add1ab1fab1"
        } ]
      }, {
        "detail": [ {
          "reference": "urn:uuid:cee59e0a-5ed8-4ecc-be5c-c6f834bddfc0"
        } ]
      }, {
        "detail": [ {
          "reference": "urn:uuid:78675c25-2706-436c-a356-94cf8dc336f9"
        } ]
      }, {
        "detail": [ {
          "reference": "urn:uuid:a20ef035-f41d-4b9f-aadb-69b042e4ad66"
        } ]
      }, {
        "detail": [ {
          "reference": "urn:uuid:ea8ebe4f-83ab-405f-a8ec-3945108692db"
        } ]
      }, {
        "detail": [ {
          "reference": "urn:uuid:962fc7ca-2524-4d5f-8d87-fb472992c446"
        } ]
      }, {
        "detail": [ {
          "reference": "urn:uuid:98ba429d-e11b-48b2-aff2-502604a62c14"
        } ]
      }, {
        "detail": [ {
          "reference": "urn:uuid:4ad6da83-760b-4dc5-ae9a-637bf68cf4f3"
        } ]
      }, {
        "detail": [ {
          "reference": "urn:uuid:d5311e37-7e82-45c8-8f6d-5d146fbf8388"
        } ]
      }, {
        "detail": [ {
          "reference": "urn:uuid:75807203-3bfd-4b93-8474-40d9bfc8ea04"
        } ]
      }, {
        "detail": [ {
          "reference": "urn:uuid:a1d19bb5-b6e4-454b-85e0-0aa5d0963931"
        } ]
      }, {
        "detail": [ {
          "reference": "urn:uuid:5692f9a8-eaf7-49ee-a75a-47332d52ff00"
        } ]
      }, {
        "detail": [ {
          "reference": "urn:uuid:a5e246af-66ad-4f74-988e-b6448e3288e9"
        } ]
      }, {
        "detail": [ {
          "reference": "urn:uuid:3d5191f3-532b-4905-ac53-6fd80d849c7f"
        } ]
      }, {
        "detail": [ {
          "reference": "urn:uuid:ae63f19f-f967-4784-9801-8ba1a524a827"
        } ]
      }, {
        "detail": [ {
          "reference": "urn:uuid:57be3b3e-5720-48bc-a915-aa71ae91a26a"
        } ]
      }, {
        "detail": [ {
          "reference": "urn:uuid:c240626f-33e5-47be-b5f9-59ec1c726dc3"
        } ]
      }, {
        "detail": [ {
          "reference": "urn:uuid:b56337c1-9a47-4c45-a321-c35ecea27c29"
        } ]
      }, {
        "detail": [ {
          "reference": "urn:uuid:b526cf7d-841a-4c0d-ae77-05548d28504e"
        } ]
      }, {
        "detail": [ {
          "reference": "urn:uuid:6cb6875f-bc4e-472c-8541-937c12b53e42"
        } ]
      }, {
        "detail": [ {
          "reference": "urn:uuid:20fe5f8c-c408-4d1a-af53-ba669dab970e"
        } ]
      }, {
        "detail": [ {
          "reference": "urn:uuid:2b490787-65a4-4916-8511-e326e9feaef3"
        } ]
      }, {
        "detail": [ {
          "reference": "urn:uuid:f317458a-d8c7-4e28-b363-64ffaa801d18"
        } ]
      }, {
        "detail": [ {
          "reference": "urn:uuid:9d83118e-f8fb-4f68-bf1f-1db98701029f"
        } ]
      }, {
        "detail": [ {
          "reference": "urn:uuid:e96e58f0-4142-4489-af59-e56d087cff52"
        } ]
      }, {
        "detail": [ {
          "reference": "urn:uuid:44694dae-5ed8-4de7-8488-60e42341821e"
        } ]
      }, {
        "detail": [ {
          "reference": "urn:uuid:eca129e2-cc8d-4820-929b-9adc143d3aad"
        } ]
      }, {
        "detail": [ {
          "reference": "urn:uuid:85b2ee2b-f505-4371-b89d-e16ce766d019"
        } ]
      }, {
        "detail": [ {
          "reference": "urn:uuid:27c900c0-3033-4bdf-964b-e355db00e401"
        } ]
      }, {
        "detail": [ {
          "reference": "urn:uuid:50bffb6c-dfa7-4a5e-8b2e-d11943926ea6"
        } ]
      }, {
        "detail": [ {
          "reference": "urn:uuid:27fa0e7d-697a-4ee4-91c1-3019b0407345"
        } ]
      }, {
        "detail": [ {
          "reference": "urn:uuid:50d067e6-49ee-49e3-8879-72ffc9a9b36c"
        } ]
      }, {
        "detail": [ {
          "reference": "urn:uuid:39ab9a3b-384f-4bbd-9003-cbc99e32f795"
        } ]
      }, {
        "detail": [ {
          "reference": "urn:uuid:296e59d5-bd41-4d5b-be3b-e64be1f16592"
        } ]
      }, {
        "detail": [ {
          "reference": "urn:uuid:ab0987e4-fe0c-42b1-8e00-d87a512345c5"
        } ]
      }, {
        "detail": [ {
          "reference": "urn:uuid:fe3f8e66-6b6d-4aa0-b3a1-2cff14ff2a5d"
        } ]
      }, {
        "detail": [ {
          "reference": "urn:uuid:6e3aa872-fcae-4662-8d15-197bc32cad6a"
        } ]
      }, {
        "detail": [ {
          "reference": "urn:uuid:a6fb99f5-8215-4443-bf09-60acef0d62fc"
        } ]
      }, {
        "detail": [ {
          "reference": "urn:uuid:1484fef3-0682-45df-ba55-6028907741ab"
        } ]
      }, {
        "detail": [ {
          "reference": "urn:uuid:f033847e-5a9c-402d-83ae-39dd9b4dfb89"
        } ]
      }, {
        "detail": [ {
          "reference": "urn:uuid:bc5b011b-e6d8-419a-a02c-9852622006b2"
        } ]
      }, {
        "detail": [ {
          "reference": "urn:uuid:33f68ec1-2a8c-43dd-b6a2-4fec48f2f54f"
        } ]
      }, {
        "detail": [ {
          "reference": "urn:uuid:e09eca02-173b-427a-aaf9-b29eab29a7fd"
        } ]
      }, {
        "detail": [ {
          "reference": "urn:uuid:2c414295-1866-4c38-adee-b00e28214d62"
        } ]
      }, {
        "detail": [ {
          "reference": "urn:uuid:8e0b15b6-c4cd-471c-9316-9242c0d2d09d"
        } ]
      }, {
        "detail": [ {
          "reference": "urn:uuid:c1b2917f-cbb2-4179-91d8-bdf65b9c5e27"
        } ]
      }, {
        "detail": [ {
          "reference": "urn:uuid:dba56b65-f133-4c64-adbc-a2905b63a2c8"
        } ]
      }, {
        "detail": [ {
          "reference": "urn:uuid:82271ca3-4d11-4ce6-819e-6b84e5862829"
        } ]
      }, {
        "detail": [ {
          "reference": "urn:uuid:402b4675-98c1-4f37-bb8c-f80484f7735c"
        } ]
      }, {
        "detail": [ {
          "reference": "urn:uuid:dcff5c8d-d6c2-440b-9ad4-bf41acb57c2b"
        } ]
      }, {
        "detail": [ {
          "reference": "urn:uuid:ff105f1d-d26b-4d84-abac-ab120fd75ad8"
        } ]
      }, {
        "detail": [ {
          "reference": "urn:uuid:5a534430-d8fb-4f4b-92f2-54b3ff5cdf0f"
        } ]
      }, {
        "detail": [ {
          "reference": "urn:uuid:f1aaaf15-dc1c-4194-ab08-fe0f4516c359"
        } ]
      }, {
        "detail": [ {
          "reference": "urn:uuid:57e75d20-0dfa-40d2-9749-94519f8bd2e7"
        } ]
      } ]
    }
  }, {
    "fullUrl": "urn:uuid:d0e49e7b-c7fe-4a01-841a-7a91cda4eaac",
    "resource": {
      "resourceType": "QuestionnaireResponse",
      "id": "d0e49e7b-c7fe-4a01-841a-7a91cda4eaac",
      "identifier": {
        "value": "59263"
      },
      "questionnaire": {
        "reference": "urn:uuid:739ba913-d3c8-4cc6-bcb9-1089a05307d7"
      },
      "status": "completed",
      "subject": {
        "reference": "urn:uuid:bac4a0ed-5b3d-4349-ba90-7fcdf49dc512"
      },
      "context": {
        "reference": "urn:uuid:0d688b3d-9190-4d41-8770-9829e29617f4"
      },
      "authored": "2021-04-06T11:29:26+00:00",
      "item": [ {
        "linkId": "Tx220074",
        "text": "What is the reason for the contact?",
        "answer": [ {
          "valueString": "an injury or other health problem"
        } ]
      } ]
    }
  }, {
    "fullUrl": "urn:uuid:739ba913-d3c8-4cc6-bcb9-1089a05307d7",
    "resource": {
      "resourceType": "Questionnaire",
      "id": "739ba913-d3c8-4cc6-bcb9-1089a05307d7",
      "identifier": [ {
        "value": "59263"
      } ],
      "version": "2021-04-06T11:29:26.887Z",
      "status": "active",
      "experimental": false,
      "date": "2021-04-06T11:29:26+00:00",
      "publisher": "User ID: 'HADFIELDR' User name: 'Ryan Hadfield' User skill set: 'T3'",
      "lastReviewDate": "2021-04-06",
      "contact": [ {
        "telecom": [ {
          "system": "phone",
          "value": "07777 888888"
        } ]
      } ],
      "subjectType": [ "Patient" ],
      "item": [ {
        "linkId": "59263",
        "prefix": "5",
        "text": "What is the reason for the contact?",
        "type": "choice",
        "required": true,
        "repeats": false,
        "option": [ {
          "valueString": "an injury or other health problem, Selected: true"
        }, {
          "valueString": "labour or childbirth, Selected: false"
        }, {
          "valueString": "a need to access another healthcare service, Selected: false"
        }, {
          "valueString": "a healthcare professional requesting contact with another clinician, Selected: false"
        }, {
          "valueString": "a report of results or tests, Selected: false"
        }, {
          "valueString": "a possible failure of contraception, Selected: false"
        }, {
          "valueString": "more, Selected: false"
        } ]
      } ]
    }
  }, {
    "fullUrl": "urn:uuid:e0fda8b8-381a-4870-8606-b7bf940dd360",
    "resource": {
      "resourceType": "QuestionnaireResponse",
      "id": "e0fda8b8-381a-4870-8606-b7bf940dd360",
      "identifier": {
        "value": "59263"
      },
      "questionnaire": {
        "reference": "urn:uuid:fbde9cd5-9c4b-4958-ba0c-af7848d57c85"
      },
      "status": "completed",
      "subject": {
        "reference": "urn:uuid:bac4a0ed-5b3d-4349-ba90-7fcdf49dc512"
      },
      "context": {
        "reference": "urn:uuid:0d688b3d-9190-4d41-8770-9829e29617f4"
      },
      "authored": "2021-04-06T11:29:26+00:00",
      "item": [ {
        "linkId": "Tx221807",
        "text": "STRING:to'Immediatethreatstolife(SPA/OOHversion)'-'Majorbloodloss'stem",
        "answer": [ {
          "valueString": "\"present\""
        } ]
      } ]
    }
  }, {
    "fullUrl": "urn:uuid:fbde9cd5-9c4b-4958-ba0c-af7848d57c85",
    "resource": {
      "resourceType": "Questionnaire",
      "id": "fbde9cd5-9c4b-4958-ba0c-af7848d57c85",
      "identifier": [ {
        "value": "59263"
      } ],
      "version": "2021-04-06T11:29:26.887Z",
      "status": "active",
      "experimental": false,
      "date": "2021-04-06T11:29:26+00:00",
      "publisher": "User ID: 'HADFIELDR' User name: 'Ryan Hadfield' User skill set: 'T3'",
      "lastReviewDate": "2021-04-06",
      "contact": [ {
        "telecom": [ {
          "system": "phone",
          "value": "07777 888888"
        } ]
      } ],
      "subjectType": [ "Patient" ],
      "item": [ {
        "linkId": "59263",
        "prefix": "200",
        "text": "STRING:to'Immediatethreatstolife(SPA/OOHversion)'-'Majorbloodloss'stem",
        "type": "choice",
        "required": true,
        "repeats": false,
        "option": [ {
          "valueString": "\"present\", Selected: true"
        } ]
      } ]
    }
  }, {
    "fullUrl": "urn:uuid:a6a4a975-3185-452d-bfcc-3f1ba6292baa",
    "resource": {
      "resourceType": "QuestionnaireResponse",
      "id": "a6a4a975-3185-452d-bfcc-3f1ba6292baa",
      "identifier": {
        "value": "59263"
      },
      "questionnaire": {
        "reference": "urn:uuid:c2199564-cd4b-4507-a212-f35cfd3eae04"
      },
      "status": "completed",
      "subject": {
        "reference": "urn:uuid:bac4a0ed-5b3d-4349-ba90-7fcdf49dc512"
      },
      "context": {
        "reference": "urn:uuid:0d688b3d-9190-4d41-8770-9829e29617f4"
      },
      "authored": "2021-04-06T11:29:26+00:00"
    }
  }, {
    "fullUrl": "urn:uuid:c2199564-cd4b-4507-a212-f35cfd3eae04",
    "resource": {
      "resourceType": "Questionnaire",
      "id": "c2199564-cd4b-4507-a212-f35cfd3eae04",
      "identifier": [ {
        "value": "59263"
      } ],
      "version": "2021-04-06T11:29:26.887Z",
      "status": "active",
      "experimental": false,
      "date": "2021-04-06T11:29:26+00:00",
      "publisher": "User ID: 'HADFIELDR' User name: 'Ryan Hadfield' User skill set: 'T3'",
      "lastReviewDate": "2021-04-06",
      "contact": [ {
        "telecom": [ {
          "system": "phone",
          "value": "07777 888888"
        } ]
      } ],
      "subjectType": [ "Patient" ]
    }
  }, {
    "fullUrl": "urn:uuid:a52735a5-5c13-4d23-b7b0-7eccdc711ef0",
    "resource": {
      "resourceType": "QuestionnaireResponse",
      "id": "a52735a5-5c13-4d23-b7b0-7eccdc711ef0",
      "identifier": {
        "value": "59263"
      },
      "questionnaire": {
        "reference": "urn:uuid:78a4b3b4-ec79-40c3-82bb-0eb07b82629b"
      },
      "status": "completed",
      "subject": {
        "reference": "urn:uuid:bac4a0ed-5b3d-4349-ba90-7fcdf49dc512"
      },
      "context": {
        "reference": "urn:uuid:0d688b3d-9190-4d41-8770-9829e29617f4"
      },
      "authored": "2021-04-06T11:29:26+00:00",
      "item": [ {
        "linkId": "Tx221799",
        "text": "STRING:injury,illnessorlabourestablishedinEntryFlow",
        "answer": [ {
          "valueString": "\"present\""
        } ]
      } ]
    }
  }, {
    "fullUrl": "urn:uuid:78a4b3b4-ec79-40c3-82bb-0eb07b82629b",
    "resource": {
      "resourceType": "Questionnaire",
      "id": "78a4b3b4-ec79-40c3-82bb-0eb07b82629b",
      "identifier": [ {
        "value": "59263"
      } ],
      "version": "2021-04-06T11:29:26.887Z",
      "status": "active",
      "experimental": false,
      "date": "2021-04-06T11:29:26+00:00",
      "publisher": "User ID: 'HADFIELDR' User name: 'Ryan Hadfield' User skill set: 'T3'",
      "lastReviewDate": "2021-04-06",
      "contact": [ {
        "telecom": [ {
          "system": "phone",
          "value": "07777 888888"
        } ]
      } ],
      "subjectType": [ "Patient" ],
      "item": [ {
        "linkId": "59263",
        "prefix": "0",
        "text": "STRING:injury,illnessorlabourestablishedinEntryFlow",
        "type": "choice",
        "required": true,
        "repeats": false,
        "option": [ {
          "valueString": "\"present\", Selected: true"
        } ]
      } ]
    }
  }, {
    "fullUrl": "urn:uuid:7a21de61-d469-4f63-b667-576615cfe7e8",
    "resource": {
      "resourceType": "QuestionnaireResponse",
      "id": "7a21de61-d469-4f63-b667-576615cfe7e8",
      "identifier": {
        "value": "59263"
      },
      "questionnaire": {
        "reference": "urn:uuid:a6ab8f4a-aba9-4caa-b929-a75845427512"
      },
      "status": "completed",
      "subject": {
        "reference": "urn:uuid:bac4a0ed-5b3d-4349-ba90-7fcdf49dc512"
      },
      "context": {
        "reference": "urn:uuid:0d688b3d-9190-4d41-8770-9829e29617f4"
      },
      "authored": "2021-04-06T11:29:26+00:00",
      "item": [ {
        "linkId": "Tx224120",
        "text": "Have you been bleeding RED BLOOD very heavily IN THE LAST 2 HOURS?"
      } ]
    }
  }, {
    "fullUrl": "urn:uuid:a6ab8f4a-aba9-4caa-b929-a75845427512",
    "resource": {
      "resourceType": "Questionnaire",
      "id": "a6ab8f4a-aba9-4caa-b929-a75845427512",
      "identifier": [ {
        "value": "59263"
      } ],
      "version": "2021-04-06T11:29:26.887Z",
      "status": "active",
      "experimental": false,
      "date": "2021-04-06T11:29:26+00:00",
      "publisher": "User ID: 'HADFIELDR' User name: 'Ryan Hadfield' User skill set: 'T3'",
      "lastReviewDate": "2021-04-06",
      "contact": [ {
        "telecom": [ {
          "system": "phone",
          "value": "07777 888888"
        } ]
      } ],
      "subjectType": [ "Patient" ],
      "item": [ {
        "linkId": "59263",
        "prefix": "10100",
        "text": "Have you been bleeding RED BLOOD very heavily IN THE LAST 2 HOURS?",
        "type": "choice",
        "required": true,
        "repeats": false,
        "option": [ {
          "valueString": "yes, Selected: false"
        }, {
          "valueString": "not sure, Selected: false"
        }, {
          "valueString": "no, Selected: false"
        } ]
      } ]
    }
  }, {
    "fullUrl": "urn:uuid:bbdee695-ba8d-4c4a-87fc-c7608a3a4e03",
    "resource": {
      "resourceType": "QuestionnaireResponse",
      "id": "bbdee695-ba8d-4c4a-87fc-c7608a3a4e03",
      "identifier": {
        "value": "59263"
      },
      "questionnaire": {
        "reference": "urn:uuid:37209e6a-4f53-4782-828f-3665182265b6"
      },
      "status": "completed",
      "subject": {
        "reference": "urn:uuid:bac4a0ed-5b3d-4349-ba90-7fcdf49dc512"
      },
      "context": {
        "reference": "urn:uuid:0d688b3d-9190-4d41-8770-9829e29617f4"
      },
      "authored": "2021-04-06T11:29:26+00:00",
      "item": [ {
        "linkId": "Tx220074",
        "text": "What is the reason for the contact?",
        "answer": [ {
          "valueString": "more"
        } ]
      } ]
    }
  }, {
    "fullUrl": "urn:uuid:37209e6a-4f53-4782-828f-3665182265b6",
    "resource": {
      "resourceType": "Questionnaire",
      "id": "37209e6a-4f53-4782-828f-3665182265b6",
      "identifier": [ {
        "value": "59263"
      } ],
      "version": "2021-04-06T11:29:26.887Z",
      "status": "active",
      "experimental": false,
      "date": "2021-04-06T11:29:26+00:00",
      "publisher": "User ID: 'HADFIELDR' User name: 'Ryan Hadfield' User skill set: 'T3'",
      "lastReviewDate": "2021-04-06",
      "contact": [ {
        "telecom": [ {
          "system": "phone",
          "value": "07777 888888"
        } ]
      } ],
      "subjectType": [ "Patient" ],
      "item": [ {
        "linkId": "59263",
        "prefix": "5",
        "text": "What is the reason for the contact?",
        "type": "choice",
        "required": true,
        "repeats": false,
        "option": [ {
          "valueString": "an injury or other health problem, Selected: false"
        }, {
          "valueString": "labour or childbirth, Selected: false"
        }, {
          "valueString": "a need to access another healthcare service, Selected: false"
        }, {
          "valueString": "a healthcare professional requesting contact with another clinician, Selected: false"
        }, {
          "valueString": "a report of results or tests, Selected: false"
        }, {
          "valueString": "a possible failure of contraception, Selected: false"
        }, {
          "valueString": "more, Selected: true"
        } ]
      } ]
    }
  }, {
    "fullUrl": "urn:uuid:06fa1f22-7589-493e-95ff-06855d16e050",
    "resource": {
      "resourceType": "QuestionnaireResponse",
      "id": "06fa1f22-7589-493e-95ff-06855d16e050",
      "identifier": {
        "value": "59263"
      },
      "questionnaire": {
        "reference": "urn:uuid:a6f7389e-5f25-4864-a7a1-264157b404e4"
      },
      "status": "completed",
      "subject": {
        "reference": "urn:uuid:bac4a0ed-5b3d-4349-ba90-7fcdf49dc512"
      },
      "context": {
        "reference": "urn:uuid:0d688b3d-9190-4d41-8770-9829e29617f4"
      },
      "authored": "2021-04-06T11:29:26+00:00",
      "item": [ {
        "linkId": "Tx221793",
        "text": "STRING:to'Social&information'-further'Callreason'menu",
        "answer": [ {
          "valueString": "\"present\""
        } ]
      } ]
    }
  }, {
    "fullUrl": "urn:uuid:a6f7389e-5f25-4864-a7a1-264157b404e4",
    "resource": {
      "resourceType": "Questionnaire",
      "id": "a6f7389e-5f25-4864-a7a1-264157b404e4",
      "identifier": [ {
        "value": "59263"
      } ],
      "version": "2021-04-06T11:29:26.887Z",
      "status": "active",
      "experimental": false,
      "date": "2021-04-06T11:29:26+00:00",
      "publisher": "User ID: 'HADFIELDR' User name: 'Ryan Hadfield' User skill set: 'T3'",
      "lastReviewDate": "2021-04-06",
      "contact": [ {
        "telecom": [ {
          "system": "phone",
          "value": "07777 888888"
        } ]
      } ],
      "subjectType": [ "Patient" ],
      "item": [ {
        "linkId": "59263",
        "prefix": "600",
        "text": "STRING:to'Social&information'-further'Callreason'menu",
        "type": "choice",
        "required": true,
        "repeats": false,
        "option": [ {
          "valueString": "\"present\", Selected: true"
        } ]
      } ]
    }
  }, {
    "fullUrl": "urn:uuid:7eba9e7b-c247-4111-82c2-1add1ab1fab1",
    "resource": {
      "resourceType": "QuestionnaireResponse",
      "id": "7eba9e7b-c247-4111-82c2-1add1ab1fab1",
      "identifier": {
        "value": "59263"
      },
      "questionnaire": {
        "reference": "urn:uuid:2e8ee0ee-631a-4d35-ac12-e3ef0c803c64"
      },
      "status": "completed",
      "subject": {
        "reference": "urn:uuid:bac4a0ed-5b3d-4349-ba90-7fcdf49dc512"
      },
      "context": {
        "reference": "urn:uuid:0d688b3d-9190-4d41-8770-9829e29617f4"
      },
      "authored": "2021-04-06T11:29:26+00:00"
    }
  }, {
    "fullUrl": "urn:uuid:2e8ee0ee-631a-4d35-ac12-e3ef0c803c64",
    "resource": {
      "resourceType": "Questionnaire",
      "id": "2e8ee0ee-631a-4d35-ac12-e3ef0c803c64",
      "identifier": [ {
        "value": "59263"
      } ],
      "version": "2021-04-06T11:29:26.887Z",
      "status": "active",
      "experimental": false,
      "date": "2021-04-06T11:29:26+00:00",
      "publisher": "User ID: 'HADFIELDR' User name: 'Ryan Hadfield' User skill set: 'T3'",
      "lastReviewDate": "2021-04-06",
      "contact": [ {
        "telecom": [ {
          "system": "phone",
          "value": "07777 888888"
        } ]
      } ],
      "subjectType": [ "Patient" ]
    }
  }, {
    "fullUrl": "urn:uuid:cee59e0a-5ed8-4ecc-be5c-c6f834bddfc0",
    "resource": {
      "resourceType": "QuestionnaireResponse",
      "id": "cee59e0a-5ed8-4ecc-be5c-c6f834bddfc0",
      "identifier": {
        "value": "59263"
      },
      "questionnaire": {
        "reference": "urn:uuid:4c5d873a-4a8c-4338-9bc7-efa04cb296ec"
      },
      "status": "completed",
      "subject": {
        "reference": "urn:uuid:bac4a0ed-5b3d-4349-ba90-7fcdf49dc512"
      },
      "context": {
        "reference": "urn:uuid:0d688b3d-9190-4d41-8770-9829e29617f4"
      },
      "authored": "2021-04-06T11:29:26+00:00",
      "item": [ {
        "linkId": "Tx221804",
        "text": "STRING:transfertofurthermenuquestionestablishedinEntryFlow",
        "answer": [ {
          "valueString": "\"present\""
        } ]
      } ]
    }
  }, {
    "fullUrl": "urn:uuid:4c5d873a-4a8c-4338-9bc7-efa04cb296ec",
    "resource": {
      "resourceType": "Questionnaire",
      "id": "4c5d873a-4a8c-4338-9bc7-efa04cb296ec",
      "identifier": [ {
        "value": "59263"
      } ],
      "version": "2021-04-06T11:29:26.887Z",
      "status": "active",
      "experimental": false,
      "date": "2021-04-06T11:29:26+00:00",
      "publisher": "User ID: 'HADFIELDR' User name: 'Ryan Hadfield' User skill set: 'T3'",
      "lastReviewDate": "2021-04-06",
      "contact": [ {
        "telecom": [ {
          "system": "phone",
          "value": "07777 888888"
        } ]
      } ],
      "subjectType": [ "Patient" ],
      "item": [ {
        "linkId": "59263",
        "prefix": "41",
        "text": "STRING:transfertofurthermenuquestionestablishedinEntryFlow",
        "type": "choice",
        "required": true,
        "repeats": false,
        "option": [ {
          "valueString": "\"present\", Selected: true"
        } ]
      } ]
    }
  }, {
    "fullUrl": "urn:uuid:78675c25-2706-436c-a356-94cf8dc336f9",
    "resource": {
      "resourceType": "QuestionnaireResponse",
      "id": "78675c25-2706-436c-a356-94cf8dc336f9",
      "identifier": {
        "value": "59263"
      },
      "questionnaire": {
        "reference": "urn:uuid:3e207a72-7625-4dea-8737-341082ad7867"
      },
      "status": "completed",
      "subject": {
        "reference": "urn:uuid:bac4a0ed-5b3d-4349-ba90-7fcdf49dc512"
      },
      "context": {
        "reference": "urn:uuid:0d688b3d-9190-4d41-8770-9829e29617f4"
      },
      "authored": "2021-04-06T11:29:26+00:00",
      "item": [ {
        "linkId": "Tx224998",
        "text": "SYSTEM_COVIDLEVEL2",
        "answer": [ {
          "valueString": "==\"covidlevel2\""
        } ]
      } ]
    }
  }, {
    "fullUrl": "urn:uuid:3e207a72-7625-4dea-8737-341082ad7867",
    "resource": {
      "resourceType": "Questionnaire",
      "id": "3e207a72-7625-4dea-8737-341082ad7867",
      "identifier": [ {
        "value": "59263"
      } ],
      "version": "2021-04-06T11:29:26.887Z",
      "status": "active",
      "experimental": false,
      "date": "2021-04-06T11:29:26+00:00",
      "publisher": "User ID: 'HADFIELDR' User name: 'Ryan Hadfield' User skill set: 'T3'",
      "lastReviewDate": "2021-04-06",
      "contact": [ {
        "telecom": [ {
          "system": "phone",
          "value": "07777 888888"
        } ]
      } ],
      "subjectType": [ "Patient" ],
      "item": [ {
        "linkId": "59263",
        "prefix": "5900",
        "text": "SYSTEM_COVIDLEVEL2",
        "type": "choice",
        "required": true,
        "repeats": false,
        "option": [ {
          "valueString": "==\"covidlevel2\", Selected: true"
        }, {
          "valueString": "*, Selected: false"
        } ]
      } ]
    }
  }, {
    "fullUrl": "urn:uuid:a20ef035-f41d-4b9f-aadb-69b042e4ad66",
    "resource": {
      "resourceType": "QuestionnaireResponse",
      "id": "a20ef035-f41d-4b9f-aadb-69b042e4ad66",
      "identifier": {
        "value": "59263"
      },
      "questionnaire": {
        "reference": "urn:uuid:9a537e7c-58a5-4cd3-8ed1-20d1f32a1894"
      },
      "status": "completed",
      "subject": {
        "reference": "urn:uuid:bac4a0ed-5b3d-4349-ba90-7fcdf49dc512"
      },
      "context": {
        "reference": "urn:uuid:0d688b3d-9190-4d41-8770-9829e29617f4"
      },
      "authored": "2021-04-06T11:29:26+00:00",
      "item": [ {
        "linkId": "Tx225069",
        "text": "What is the reason for the contact?",
        "answer": [ {
          "valueString": "a prescription request"
        } ]
      } ]
    }
  }, {
    "fullUrl": "urn:uuid:9a537e7c-58a5-4cd3-8ed1-20d1f32a1894",
    "resource": {
      "resourceType": "Questionnaire",
      "id": "9a537e7c-58a5-4cd3-8ed1-20d1f32a1894",
      "identifier": [ {
        "value": "59263"
      } ],
      "version": "2021-04-06T11:29:26.887Z",
      "status": "active",
      "experimental": false,
      "date": "2021-04-06T11:29:26+00:00",
      "publisher": "User ID: 'HADFIELDR' User name: 'Ryan Hadfield' User skill set: 'T3'",
      "lastReviewDate": "2021-04-06",
      "contact": [ {
        "telecom": [ {
          "system": "phone",
          "value": "07777 888888"
        } ]
      } ],
      "subjectType": [ "Patient" ],
      "item": [ {
        "linkId": "59263",
        "prefix": "6000",
        "text": "What is the reason for the contact?",
        "type": "choice",
        "required": true,
        "repeats": false,
        "option": [ {
          "valueString": "a child protection/vulnerable adult concern (specify), Selected: false"
        }, {
          "valueString": "a social or domestic emergency, Selected: false"
        }, {
          "valueString": "a prescription request, Selected: true"
        }, {
          "valueString": "an appointment request, Selected: false"
        }, {
          "valueString": "a request for health or medication information, Selected: false"
        }, {
          "valueString": "public health alert information, Selected: false"
        } ]
      } ]
    }
  }, {
    "fullUrl": "urn:uuid:ea8ebe4f-83ab-405f-a8ec-3945108692db",
    "resource": {
      "resourceType": "QuestionnaireResponse",
      "id": "ea8ebe4f-83ab-405f-a8ec-3945108692db",
      "identifier": {
        "value": "59263"
      },
      "questionnaire": {
        "reference": "urn:uuid:57e4762e-3bfd-46e6-9847-97072fa893cc"
      },
      "status": "completed",
      "subject": {
        "reference": "urn:uuid:bac4a0ed-5b3d-4349-ba90-7fcdf49dc512"
      },
      "context": {
        "reference": "urn:uuid:0d688b3d-9190-4d41-8770-9829e29617f4"
      },
      "authored": "2021-04-06T11:29:26+00:00",
      "item": [ {
        "linkId": "Tx220957",
        "text": "Is this contact about a new or worsening illness?",
        "answer": [ {
          "valueString": "no"
        } ]
      } ]
    }
  }, {
    "fullUrl": "urn:uuid:57e4762e-3bfd-46e6-9847-97072fa893cc",
    "resource": {
      "resourceType": "Questionnaire",
      "id": "57e4762e-3bfd-46e6-9847-97072fa893cc",
      "identifier": [ {
        "value": "59263"
      } ],
      "version": "2021-04-06T11:29:26.887Z",
      "status": "active",
      "experimental": false,
      "date": "2021-04-06T11:29:26+00:00",
      "publisher": "User ID: 'HADFIELDR' User name: 'Ryan Hadfield' User skill set: 'T3'",
      "lastReviewDate": "2021-04-06",
      "contact": [ {
        "telecom": [ {
          "system": "phone",
          "value": "07777 888888"
        } ]
      } ],
      "subjectType": [ "Patient" ],
      "item": [ {
        "linkId": "59263",
        "prefix": "1400",
        "text": "Is this contact about a new or worsening illness?",
        "type": "choice",
        "required": true,
        "repeats": false,
        "option": [ {
          "valueString": "yes, Selected: false"
        }, {
          "valueString": "not sure, Selected: false"
        }, {
          "valueString": "no, Selected: true"
        } ]
      } ]
    }
  }, {
    "fullUrl": "urn:uuid:962fc7ca-2524-4d5f-8d87-fb472992c446",
    "resource": {
      "resourceType": "QuestionnaireResponse",
      "id": "962fc7ca-2524-4d5f-8d87-fb472992c446",
      "identifier": {
        "value": "59263"
      },
      "questionnaire": {
        "reference": "urn:uuid:8d05617e-d769-41cf-aa73-b5bf50477ea2"
      },
      "status": "completed",
      "subject": {
        "reference": "urn:uuid:bac4a0ed-5b3d-4349-ba90-7fcdf49dc512"
      },
      "context": {
        "reference": "urn:uuid:0d688b3d-9190-4d41-8770-9829e29617f4"
      },
      "authored": "2021-04-06T11:29:26+00:00",
      "item": [ {
        "linkId": "Tx221352",
        "text": "Have you got enough medication to last until the surgery opens?",
        "answer": [ {
          "valueString": "no"
        } ]
      } ]
    }
  }, {
    "fullUrl": "urn:uuid:8d05617e-d769-41cf-aa73-b5bf50477ea2",
    "resource": {
      "resourceType": "Questionnaire",
      "id": "8d05617e-d769-41cf-aa73-b5bf50477ea2",
      "identifier": [ {
        "value": "59263"
      } ],
      "version": "2021-04-06T11:29:26.887Z",
      "status": "active",
      "experimental": false,
      "date": "2021-04-06T11:29:26+00:00",
      "publisher": "User ID: 'HADFIELDR' User name: 'Ryan Hadfield' User skill set: 'T3'",
      "lastReviewDate": "2021-04-06",
      "contact": [ {
        "telecom": [ {
          "system": "phone",
          "value": "07777 888888"
        } ]
      } ],
      "subjectType": [ "Patient" ],
      "item": [ {
        "linkId": "59263",
        "prefix": "1500",
        "text": "Have you got enough medication to last until the surgery opens?",
        "type": "choice",
        "required": true,
        "repeats": false,
        "option": [ {
          "valueString": "yes, Selected: false"
        }, {
          "valueString": "not sure, Selected: false"
        }, {
          "valueString": "no, Selected: true"
        } ]
      } ]
    }
  }, {
    "fullUrl": "urn:uuid:98ba429d-e11b-48b2-aff2-502604a62c14",
    "resource": {
      "resourceType": "QuestionnaireResponse",
      "id": "98ba429d-e11b-48b2-aff2-502604a62c14",
      "identifier": {
        "value": "59263"
      },
      "questionnaire": {
        "reference": "urn:uuid:1bb32038-62e2-4b93-b023-c0461f874027"
      },
      "status": "completed",
      "subject": {
        "reference": "urn:uuid:bac4a0ed-5b3d-4349-ba90-7fcdf49dc512"
      },
      "context": {
        "reference": "urn:uuid:0d688b3d-9190-4d41-8770-9829e29617f4"
      },
      "authored": "2021-04-06T11:29:26+00:00"
    }
  }, {
    "fullUrl": "urn:uuid:1bb32038-62e2-4b93-b023-c0461f874027",
    "resource": {
      "resourceType": "Questionnaire",
      "id": "1bb32038-62e2-4b93-b023-c0461f874027",
      "identifier": [ {
        "value": "59263"
      } ],
      "version": "2021-04-06T11:29:26.887Z",
      "status": "active",
      "experimental": false,
      "date": "2021-04-06T11:29:26+00:00",
      "publisher": "User ID: 'HADFIELDR' User name: 'Ryan Hadfield' User skill set: 'T3'",
      "lastReviewDate": "2021-04-06",
      "contact": [ {
        "telecom": [ {
          "system": "phone",
          "value": "07777 888888"
        } ]
      } ],
      "subjectType": [ "Patient" ]
    }
  }, {
    "fullUrl": "urn:uuid:4ad6da83-760b-4dc5-ae9a-637bf68cf4f3",
    "resource": {
      "resourceType": "QuestionnaireResponse",
      "id": "4ad6da83-760b-4dc5-ae9a-637bf68cf4f3",
      "identifier": {
        "value": "59263"
      },
      "questionnaire": {
        "reference": "urn:uuid:b7285114-ef1a-48be-a0eb-13137a12f9c2"
      },
      "status": "completed",
      "subject": {
        "reference": "urn:uuid:bac4a0ed-5b3d-4349-ba90-7fcdf49dc512"
      },
      "context": {
        "reference": "urn:uuid:0d688b3d-9190-4d41-8770-9829e29617f4"
      },
      "authored": "2021-04-06T11:29:26+00:00",
      "item": [ {
        "linkId": "Tx224231",
        "text": "FROM WHAT YOU HAVE HEARD IS A CONSULTATION WITH A PRESCRIBER NEEDED?",
        "answer": [ {
          "valueString": "yes"
        } ]
      } ]
    }
  }, {
    "fullUrl": "urn:uuid:b7285114-ef1a-48be-a0eb-13137a12f9c2",
    "resource": {
      "resourceType": "Questionnaire",
      "id": "b7285114-ef1a-48be-a0eb-13137a12f9c2",
      "identifier": [ {
        "value": "59263"
      } ],
      "version": "2021-04-06T11:29:26.887Z",
      "status": "active",
      "experimental": false,
      "date": "2021-04-06T11:29:26+00:00",
      "publisher": "User ID: 'HADFIELDR' User name: 'Ryan Hadfield' User skill set: 'T3'",
      "lastReviewDate": "2021-04-06",
      "contact": [ {
        "telecom": [ {
          "system": "phone",
          "value": "07777 888888"
        } ]
      } ],
      "subjectType": [ "Patient" ],
      "item": [ {
        "linkId": "59263",
        "prefix": "0",
        "text": "FROM WHAT YOU HAVE HEARD IS A CONSULTATION WITH A PRESCRIBER NEEDED?",
        "type": "choice",
        "required": true,
        "repeats": false,
        "option": [ {
          "valueString": "yes, Selected: true"
        }, {
          "valueString": "not sure, Selected: false"
        }, {
          "valueString": "no, Selected: false"
        } ]
      } ]
    }
  }, {
    "fullUrl": "urn:uuid:d5311e37-7e82-45c8-8f6d-5d146fbf8388",
    "resource": {
      "resourceType": "QuestionnaireResponse",
      "id": "d5311e37-7e82-45c8-8f6d-5d146fbf8388",
      "identifier": {
        "value": "59263"
      },
      "questionnaire": {
        "reference": "urn:uuid:7153287b-6fd5-4200-b2a5-edf0565abf9f"
      },
      "status": "completed",
      "subject": {
        "reference": "urn:uuid:bac4a0ed-5b3d-4349-ba90-7fcdf49dc512"
      },
      "context": {
        "reference": "urn:uuid:0d688b3d-9190-4d41-8770-9829e29617f4"
      },
      "authored": "2021-04-06T11:29:26+00:00",
      "item": [ {
        "linkId": "Tx221367",
        "text": "When is the next dose due?",
        "answer": [ {
          "valueString": "within the next 12 hours"
        } ]
      } ]
    }
  }, {
    "fullUrl": "urn:uuid:7153287b-6fd5-4200-b2a5-edf0565abf9f",
    "resource": {
      "resourceType": "Questionnaire",
      "id": "7153287b-6fd5-4200-b2a5-edf0565abf9f",
      "identifier": [ {
        "value": "59263"
      } ],
      "version": "2021-04-06T11:29:26.887Z",
      "status": "active",
      "experimental": false,
      "date": "2021-04-06T11:29:26+00:00",
      "publisher": "User ID: 'HADFIELDR' User name: 'Ryan Hadfield' User skill set: 'T3'",
      "lastReviewDate": "2021-04-06",
      "contact": [ {
        "telecom": [ {
          "system": "phone",
          "value": "07777 888888"
        } ]
      } ],
      "subjectType": [ "Patient" ],
      "item": [ {
        "linkId": "59263",
        "prefix": "2900",
        "text": "When is the next dose due?",
        "type": "choice",
        "required": true,
        "repeats": false,
        "option": [ {
          "valueString": "within the next 2 hours, Selected: false"
        }, {
          "valueString": "within the next 6 hours, Selected: false"
        }, {
          "valueString": "within the next 12 hours, Selected: true"
        }, {
          "valueString": "over 12 hours time, Selected: false"
        }, {
          "valueString": "not sure, Selected: false"
        } ]
      } ]
    }
  }, {
    "fullUrl": "urn:uuid:75807203-3bfd-4b93-8474-40d9bfc8ea04",
    "resource": {
      "resourceType": "QuestionnaireResponse",
      "id": "75807203-3bfd-4b93-8474-40d9bfc8ea04",
      "identifier": {
        "value": "59263"
      },
      "questionnaire": {
        "reference": "urn:uuid:ea937767-2f95-43ab-a66d-e8a6e89d0976"
      },
      "status": "completed",
      "subject": {
        "reference": "urn:uuid:bac4a0ed-5b3d-4349-ba90-7fcdf49dc512"
      },
      "context": {
        "reference": "urn:uuid:0d688b3d-9190-4d41-8770-9829e29617f4"
      },
      "authored": "2021-04-06T11:29:26+00:00",
      "item": [ {
        "linkId": "Tx221449",
        "text": "STRING:SDPCFullPrimaryCareassessmentandprescribingcapability",
        "answer": [ {
          "valueString": "\"PC full Primary Care assessment and prescribing capability\""
        } ]
      } ]
    }
  }, {
    "fullUrl": "urn:uuid:ea937767-2f95-43ab-a66d-e8a6e89d0976",
    "resource": {
      "resourceType": "Questionnaire",
      "id": "ea937767-2f95-43ab-a66d-e8a6e89d0976",
      "identifier": [ {
        "value": "59263"
      } ],
      "version": "2021-04-06T11:29:26.887Z",
      "status": "active",
      "experimental": false,
      "date": "2021-04-06T11:29:26+00:00",
      "publisher": "User ID: 'HADFIELDR' User name: 'Ryan Hadfield' User skill set: 'T3'",
      "lastReviewDate": "2021-04-06",
      "contact": [ {
        "telecom": [ {
          "system": "phone",
          "value": "07777 888888"
        } ]
      } ],
      "subjectType": [ "Patient" ],
      "item": [ {
        "linkId": "59263",
        "prefix": "3000",
        "text": "STRING:SDPCFullPrimaryCareassessmentandprescribingcapability",
        "type": "choice",
        "required": true,
        "repeats": false,
        "option": [ {
          "valueString": "\"PC full Primary Care assessment and prescribing capability\", Selected: true"
        } ]
      } ]
    }
  }, {
    "fullUrl": "urn:uuid:a1d19bb5-b6e4-454b-85e0-0aa5d0963931",
    "resource": {
      "resourceType": "QuestionnaireResponse",
      "id": "a1d19bb5-b6e4-454b-85e0-0aa5d0963931",
      "identifier": {
        "value": "59263"
      },
      "questionnaire": {
        "reference": "urn:uuid:6b5eccbd-4e2b-4dd9-bccf-3f03f4a38db4"
      },
      "status": "completed",
      "subject": {
        "reference": "urn:uuid:bac4a0ed-5b3d-4349-ba90-7fcdf49dc512"
      },
      "context": {
        "reference": "urn:uuid:0d688b3d-9190-4d41-8770-9829e29617f4"
      },
      "authored": "2021-04-06T11:29:26+00:00"
    }
  }, {
    "fullUrl": "urn:uuid:6b5eccbd-4e2b-4dd9-bccf-3f03f4a38db4",
    "resource": {
      "resourceType": "Questionnaire",
      "id": "6b5eccbd-4e2b-4dd9-bccf-3f03f4a38db4",
      "identifier": [ {
        "value": "59263"
      } ],
      "version": "2021-04-06T11:29:26.887Z",
      "status": "active",
      "experimental": false,
      "date": "2021-04-06T11:29:26+00:00",
      "publisher": "User ID: 'HADFIELDR' User name: 'Ryan Hadfield' User skill set: 'T3'",
      "lastReviewDate": "2021-04-06",
      "contact": [ {
        "telecom": [ {
          "system": "phone",
          "value": "07777 888888"
        } ]
      } ],
      "subjectType": [ "Patient" ]
    }
  }, {
    "fullUrl": "urn:uuid:5692f9a8-eaf7-49ee-a75a-47332d52ff00",
    "resource": {
      "resourceType": "QuestionnaireResponse",
      "id": "5692f9a8-eaf7-49ee-a75a-47332d52ff00",
      "identifier": {
        "value": "59263"
      },
      "questionnaire": {
        "reference": "urn:uuid:67ba3ea1-3075-46b3-8219-6486edf32208"
      },
      "status": "completed",
      "subject": {
        "reference": "urn:uuid:bac4a0ed-5b3d-4349-ba90-7fcdf49dc512"
      },
      "context": {
        "reference": "urn:uuid:0d688b3d-9190-4d41-8770-9829e29617f4"
      },
      "authored": "2021-04-06T11:29:26+00:00",
      "item": [ {
        "linkId": "Tx220074",
        "text": "What is the reason for the contact?",
        "answer": [ {
          "valueString": "an injury or other health problem"
        } ]
      } ]
    }
  }, {
    "fullUrl": "urn:uuid:67ba3ea1-3075-46b3-8219-6486edf32208",
    "resource": {
      "resourceType": "Questionnaire",
      "id": "67ba3ea1-3075-46b3-8219-6486edf32208",
      "identifier": [ {
        "value": "59263"
      } ],
      "version": "2021-04-06T11:29:26.887Z",
      "status": "active",
      "experimental": false,
      "date": "2021-04-06T11:29:26+00:00",
      "publisher": "User ID: 'HADFIELDR' User name: 'Ryan Hadfield' User skill set: 'T3'",
      "lastReviewDate": "2021-04-06",
      "contact": [ {
        "telecom": [ {
          "system": "phone",
          "value": "07777 888888"
        } ]
      } ],
      "subjectType": [ "Patient" ],
      "item": [ {
        "linkId": "59263",
        "prefix": "5",
        "text": "What is the reason for the contact?",
        "type": "choice",
        "required": true,
        "repeats": false,
        "option": [ {
          "valueString": "an injury or other health problem, Selected: true"
        }, {
          "valueString": "labour or childbirth, Selected: false"
        }, {
          "valueString": "a need to access another healthcare service, Selected: false"
        }, {
          "valueString": "a healthcare professional requesting contact with another clinician, Selected: false"
        }, {
          "valueString": "a report of results or tests, Selected: false"
        }, {
          "valueString": "a possible failure of contraception, Selected: false"
        }, {
          "valueString": "more, Selected: false"
        } ]
      } ]
    }
  }, {
    "fullUrl": "urn:uuid:a5e246af-66ad-4f74-988e-b6448e3288e9",
    "resource": {
      "resourceType": "QuestionnaireResponse",
      "id": "a5e246af-66ad-4f74-988e-b6448e3288e9",
      "identifier": {
        "value": "59263"
      },
      "questionnaire": {
        "reference": "urn:uuid:aa0e2888-f0f5-4957-ac45-b733fc00bdaf"
      },
      "status": "completed",
      "subject": {
        "reference": "urn:uuid:bac4a0ed-5b3d-4349-ba90-7fcdf49dc512"
      },
      "context": {
        "reference": "urn:uuid:0d688b3d-9190-4d41-8770-9829e29617f4"
      },
      "authored": "2021-04-06T11:29:26+00:00",
      "item": [ {
        "linkId": "Tx221807",
        "text": "STRING:to'Immediatethreatstolife(SPA/OOHversion)'-'Majorbloodloss'stem",
        "answer": [ {
          "valueString": "\"present\""
        } ]
      } ]
    }
  }, {
    "fullUrl": "urn:uuid:aa0e2888-f0f5-4957-ac45-b733fc00bdaf",
    "resource": {
      "resourceType": "Questionnaire",
      "id": "aa0e2888-f0f5-4957-ac45-b733fc00bdaf",
      "identifier": [ {
        "value": "59263"
      } ],
      "version": "2021-04-06T11:29:26.887Z",
      "status": "active",
      "experimental": false,
      "date": "2021-04-06T11:29:26+00:00",
      "publisher": "User ID: 'HADFIELDR' User name: 'Ryan Hadfield' User skill set: 'T3'",
      "lastReviewDate": "2021-04-06",
      "contact": [ {
        "telecom": [ {
          "system": "phone",
          "value": "07777 888888"
        } ]
      } ],
      "subjectType": [ "Patient" ],
      "item": [ {
        "linkId": "59263",
        "prefix": "200",
        "text": "STRING:to'Immediatethreatstolife(SPA/OOHversion)'-'Majorbloodloss'stem",
        "type": "choice",
        "required": true,
        "repeats": false,
        "option": [ {
          "valueString": "\"present\", Selected: true"
        } ]
      } ]
    }
  }, {
    "fullUrl": "urn:uuid:3d5191f3-532b-4905-ac53-6fd80d849c7f",
    "resource": {
      "resourceType": "QuestionnaireResponse",
      "id": "3d5191f3-532b-4905-ac53-6fd80d849c7f",
      "identifier": {
        "value": "59263"
      },
      "questionnaire": {
        "reference": "urn:uuid:f8c06d27-c856-4c4f-95e6-e9ca28e30ffa"
      },
      "status": "completed",
      "subject": {
        "reference": "urn:uuid:bac4a0ed-5b3d-4349-ba90-7fcdf49dc512"
      },
      "context": {
        "reference": "urn:uuid:0d688b3d-9190-4d41-8770-9829e29617f4"
      },
      "authored": "2021-04-06T11:29:26+00:00"
    }
  }, {
    "fullUrl": "urn:uuid:f8c06d27-c856-4c4f-95e6-e9ca28e30ffa",
    "resource": {
      "resourceType": "Questionnaire",
      "id": "f8c06d27-c856-4c4f-95e6-e9ca28e30ffa",
      "identifier": [ {
        "value": "59263"
      } ],
      "version": "2021-04-06T11:29:26.887Z",
      "status": "active",
      "experimental": false,
      "date": "2021-04-06T11:29:26+00:00",
      "publisher": "User ID: 'HADFIELDR' User name: 'Ryan Hadfield' User skill set: 'T3'",
      "lastReviewDate": "2021-04-06",
      "contact": [ {
        "telecom": [ {
          "system": "phone",
          "value": "07777 888888"
        } ]
      } ],
      "subjectType": [ "Patient" ]
    }
  }, {
    "fullUrl": "urn:uuid:ae63f19f-f967-4784-9801-8ba1a524a827",
    "resource": {
      "resourceType": "QuestionnaireResponse",
      "id": "ae63f19f-f967-4784-9801-8ba1a524a827",
      "identifier": {
        "value": "59263"
      },
      "questionnaire": {
        "reference": "urn:uuid:caead9fd-b8aa-4b55-a9b1-ab7726fda877"
      },
      "status": "completed",
      "subject": {
        "reference": "urn:uuid:bac4a0ed-5b3d-4349-ba90-7fcdf49dc512"
      },
      "context": {
        "reference": "urn:uuid:0d688b3d-9190-4d41-8770-9829e29617f4"
      },
      "authored": "2021-04-06T11:29:26+00:00",
      "item": [ {
        "linkId": "Tx221799",
        "text": "STRING:injury,illnessorlabourestablishedinEntryFlow",
        "answer": [ {
          "valueString": "\"present\""
        } ]
      } ]
    }
  }, {
    "fullUrl": "urn:uuid:caead9fd-b8aa-4b55-a9b1-ab7726fda877",
    "resource": {
      "resourceType": "Questionnaire",
      "id": "caead9fd-b8aa-4b55-a9b1-ab7726fda877",
      "identifier": [ {
        "value": "59263"
      } ],
      "version": "2021-04-06T11:29:26.887Z",
      "status": "active",
      "experimental": false,
      "date": "2021-04-06T11:29:26+00:00",
      "publisher": "User ID: 'HADFIELDR' User name: 'Ryan Hadfield' User skill set: 'T3'",
      "lastReviewDate": "2021-04-06",
      "contact": [ {
        "telecom": [ {
          "system": "phone",
          "value": "07777 888888"
        } ]
      } ],
      "subjectType": [ "Patient" ],
      "item": [ {
        "linkId": "59263",
        "prefix": "0",
        "text": "STRING:injury,illnessorlabourestablishedinEntryFlow",
        "type": "choice",
        "required": true,
        "repeats": false,
        "option": [ {
          "valueString": "\"present\", Selected: true"
        } ]
      } ]
    }
  }, {
    "fullUrl": "urn:uuid:57be3b3e-5720-48bc-a915-aa71ae91a26a",
    "resource": {
      "resourceType": "QuestionnaireResponse",
      "id": "57be3b3e-5720-48bc-a915-aa71ae91a26a",
      "identifier": {
        "value": "59263"
      },
      "questionnaire": {
        "reference": "urn:uuid:f4c3bb2b-1b9d-4735-b664-7a8080569335"
      },
      "status": "completed",
      "subject": {
        "reference": "urn:uuid:bac4a0ed-5b3d-4349-ba90-7fcdf49dc512"
      },
      "context": {
        "reference": "urn:uuid:0d688b3d-9190-4d41-8770-9829e29617f4"
      },
      "authored": "2021-04-06T11:29:26+00:00",
      "item": [ {
        "linkId": "Tx224120",
        "text": "Have you been bleeding RED BLOOD very heavily IN THE LAST 2 HOURS?",
        "answer": [ {
          "valueString": "no"
        } ]
      } ]
    }
  }, {
    "fullUrl": "urn:uuid:f4c3bb2b-1b9d-4735-b664-7a8080569335",
    "resource": {
      "resourceType": "Questionnaire",
      "id": "f4c3bb2b-1b9d-4735-b664-7a8080569335",
      "identifier": [ {
        "value": "59263"
      } ],
      "version": "2021-04-06T11:29:26.887Z",
      "status": "active",
      "experimental": false,
      "date": "2021-04-06T11:29:26+00:00",
      "publisher": "User ID: 'HADFIELDR' User name: 'Ryan Hadfield' User skill set: 'T3'",
      "lastReviewDate": "2021-04-06",
      "contact": [ {
        "telecom": [ {
          "system": "phone",
          "value": "07777 888888"
        } ]
      } ],
      "subjectType": [ "Patient" ],
      "item": [ {
        "linkId": "59263",
        "prefix": "10100",
        "text": "Have you been bleeding RED BLOOD very heavily IN THE LAST 2 HOURS?",
        "type": "choice",
        "required": true,
        "repeats": false,
        "option": [ {
          "valueString": "yes, Selected: false"
        }, {
          "valueString": "not sure, Selected: false"
        }, {
          "valueString": "no, Selected: true"
        } ]
      } ]
    }
  }, {
    "fullUrl": "urn:uuid:c240626f-33e5-47be-b5f9-59ec1c726dc3",
    "resource": {
      "resourceType": "QuestionnaireResponse",
      "id": "c240626f-33e5-47be-b5f9-59ec1c726dc3",
      "identifier": {
        "value": "59263"
      },
      "questionnaire": {
        "reference": "urn:uuid:768731cf-ff7e-4f42-b2fc-3325b2d82a79"
      },
      "status": "completed",
      "subject": {
        "reference": "urn:uuid:bac4a0ed-5b3d-4349-ba90-7fcdf49dc512"
      },
      "context": {
        "reference": "urn:uuid:0d688b3d-9190-4d41-8770-9829e29617f4"
      },
      "authored": "2021-04-06T11:29:26+00:00",
      "item": [ {
        "linkId": "Tx221343",
        "text": "SocialConcernsExcluded",
        "answer": [ {
          "valueString": "*"
        } ]
      } ]
    }
  }, {
    "fullUrl": "urn:uuid:768731cf-ff7e-4f42-b2fc-3325b2d82a79",
    "resource": {
      "resourceType": "Questionnaire",
      "id": "768731cf-ff7e-4f42-b2fc-3325b2d82a79",
      "identifier": [ {
        "value": "59263"
      } ],
      "version": "2021-04-06T11:29:26.887Z",
      "status": "active",
      "experimental": false,
      "date": "2021-04-06T11:29:26+00:00",
      "publisher": "User ID: 'HADFIELDR' User name: 'Ryan Hadfield' User skill set: 'T3'",
      "lastReviewDate": "2021-04-06",
      "contact": [ {
        "telecom": [ {
          "system": "phone",
          "value": "07777 888888"
        } ]
      } ],
      "subjectType": [ "Patient" ],
      "item": [ {
        "linkId": "59263",
        "prefix": "1100",
        "text": "SocialConcernsExcluded",
        "type": "choice",
        "required": true,
        "repeats": false,
        "option": [ {
          "valueString": "==\"present\", Selected: false"
        }, {
          "valueString": "*, Selected: true"
        } ]
      } ]
    }
  }, {
    "fullUrl": "urn:uuid:b56337c1-9a47-4c45-a321-c35ecea27c29",
    "resource": {
      "resourceType": "QuestionnaireResponse",
      "id": "b56337c1-9a47-4c45-a321-c35ecea27c29",
      "identifier": {
        "value": "59263"
      },
      "questionnaire": {
        "reference": "urn:uuid:cd9f6809-aa6d-49f3-a002-09a8b5fc4b0a"
      },
      "status": "completed",
      "subject": {
        "reference": "urn:uuid:bac4a0ed-5b3d-4349-ba90-7fcdf49dc512"
      },
      "context": {
        "reference": "urn:uuid:0d688b3d-9190-4d41-8770-9829e29617f4"
      },
      "authored": "2021-04-06T11:29:26+00:00",
      "item": [ {
        "linkId": "Tx130011",
        "text": "What is the main problem?"
      } ]
    }
  }, {
    "fullUrl": "urn:uuid:cd9f6809-aa6d-49f3-a002-09a8b5fc4b0a",
    "resource": {
      "resourceType": "Questionnaire",
      "id": "cd9f6809-aa6d-49f3-a002-09a8b5fc4b0a",
      "identifier": [ {
        "value": "59263"
      } ],
      "version": "2021-04-06T11:29:26.887Z",
      "status": "active",
      "experimental": false,
      "date": "2021-04-06T11:29:26+00:00",
      "publisher": "User ID: 'HADFIELDR' User name: 'Ryan Hadfield' User skill set: 'T3'",
      "lastReviewDate": "2021-04-06",
      "contact": [ {
        "telecom": [ {
          "system": "phone",
          "value": "07777 888888"
        } ]
      } ],
      "subjectType": [ "Patient" ],
      "item": [ {
        "linkId": "59263",
        "prefix": "2300",
        "text": "What is the main problem?",
        "type": "choice",
        "required": true,
        "repeats": false,
        "option": [ {
          "valueString": "the individual has been told to follow a particular course of action (specify), Selected: false"
        }, {
          "valueString": "the individual is an identified frequent caller, Selected: false"
        }, {
          "valueString": "injury (specify), Selected: false"
        }, {
          "valueString": "illness or other health problem (specify), Selected: false"
        }, {
          "valueString": "child protection/vulnerable adult concern, Selected: false"
        }, {
          "valueString": "social or domestic emergency, Selected: false"
        }, {
          "valueString": "the environment potentially poses an immediate threat to life (specify), Selected: false"
        } ]
      } ]
    }
  }, {
    "fullUrl": "urn:uuid:b526cf7d-841a-4c0d-ae77-05548d28504e",
    "resource": {
      "resourceType": "QuestionnaireResponse",
      "id": "b526cf7d-841a-4c0d-ae77-05548d28504e",
      "identifier": {
        "value": "59263"
      },
      "questionnaire": {
        "reference": "urn:uuid:ef04b469-2f5a-4ae9-811c-ccc10907bc73"
      },
      "status": "completed",
      "subject": {
        "reference": "urn:uuid:bac4a0ed-5b3d-4349-ba90-7fcdf49dc512"
      },
      "context": {
        "reference": "urn:uuid:0d688b3d-9190-4d41-8770-9829e29617f4"
      },
      "authored": "2021-04-06T11:29:26+00:00",
      "item": [ {
        "linkId": "Tx220074",
        "text": "What is the reason for the contact?",
        "answer": [ {
          "valueString": "more"
        } ]
      } ]
    }
  }, {
    "fullUrl": "urn:uuid:ef04b469-2f5a-4ae9-811c-ccc10907bc73",
    "resource": {
      "resourceType": "Questionnaire",
      "id": "ef04b469-2f5a-4ae9-811c-ccc10907bc73",
      "identifier": [ {
        "value": "59263"
      } ],
      "version": "2021-04-06T11:29:26.887Z",
      "status": "active",
      "experimental": false,
      "date": "2021-04-06T11:29:26+00:00",
      "publisher": "User ID: 'HADFIELDR' User name: 'Ryan Hadfield' User skill set: 'T3'",
      "lastReviewDate": "2021-04-06",
      "contact": [ {
        "telecom": [ {
          "system": "phone",
          "value": "07777 888888"
        } ]
      } ],
      "subjectType": [ "Patient" ],
      "item": [ {
        "linkId": "59263",
        "prefix": "5",
        "text": "What is the reason for the contact?",
        "type": "choice",
        "required": true,
        "repeats": false,
        "option": [ {
          "valueString": "an injury or other health problem, Selected: false"
        }, {
          "valueString": "labour or childbirth, Selected: false"
        }, {
          "valueString": "a need to access another healthcare service, Selected: false"
        }, {
          "valueString": "a healthcare professional requesting contact with another clinician, Selected: false"
        }, {
          "valueString": "a report of results or tests, Selected: false"
        }, {
          "valueString": "a possible failure of contraception, Selected: false"
        }, {
          "valueString": "more, Selected: true"
        } ]
      } ]
    }
  }, {
    "fullUrl": "urn:uuid:6cb6875f-bc4e-472c-8541-937c12b53e42",
    "resource": {
      "resourceType": "QuestionnaireResponse",
      "id": "6cb6875f-bc4e-472c-8541-937c12b53e42",
      "identifier": {
        "value": "59263"
      },
      "questionnaire": {
        "reference": "urn:uuid:37b72948-a328-450a-b0b8-5823288dfe7e"
      },
      "status": "completed",
      "subject": {
        "reference": "urn:uuid:bac4a0ed-5b3d-4349-ba90-7fcdf49dc512"
      },
      "context": {
        "reference": "urn:uuid:0d688b3d-9190-4d41-8770-9829e29617f4"
      },
      "authored": "2021-04-06T11:29:26+00:00",
      "item": [ {
        "linkId": "Tx221793",
        "text": "STRING:to'Social&information'-further'Callreason'menu",
        "answer": [ {
          "valueString": "\"present\""
        } ]
      } ]
    }
  }, {
    "fullUrl": "urn:uuid:37b72948-a328-450a-b0b8-5823288dfe7e",
    "resource": {
      "resourceType": "Questionnaire",
      "id": "37b72948-a328-450a-b0b8-5823288dfe7e",
      "identifier": [ {
        "value": "59263"
      } ],
      "version": "2021-04-06T11:29:26.887Z",
      "status": "active",
      "experimental": false,
      "date": "2021-04-06T11:29:26+00:00",
      "publisher": "User ID: 'HADFIELDR' User name: 'Ryan Hadfield' User skill set: 'T3'",
      "lastReviewDate": "2021-04-06",
      "contact": [ {
        "telecom": [ {
          "system": "phone",
          "value": "07777 888888"
        } ]
      } ],
      "subjectType": [ "Patient" ],
      "item": [ {
        "linkId": "59263",
        "prefix": "600",
        "text": "STRING:to'Social&information'-further'Callreason'menu",
        "type": "choice",
        "required": true,
        "repeats": false,
        "option": [ {
          "valueString": "\"present\", Selected: true"
        } ]
      } ]
    }
  }, {
    "fullUrl": "urn:uuid:20fe5f8c-c408-4d1a-af53-ba669dab970e",
    "resource": {
      "resourceType": "QuestionnaireResponse",
      "id": "20fe5f8c-c408-4d1a-af53-ba669dab970e",
      "identifier": {
        "value": "59263"
      },
      "questionnaire": {
        "reference": "urn:uuid:04227868-63e2-4e9d-b0eb-421147b82091"
      },
      "status": "completed",
      "subject": {
        "reference": "urn:uuid:bac4a0ed-5b3d-4349-ba90-7fcdf49dc512"
      },
      "context": {
        "reference": "urn:uuid:0d688b3d-9190-4d41-8770-9829e29617f4"
      },
      "authored": "2021-04-06T11:29:26+00:00"
    }
  }, {
    "fullUrl": "urn:uuid:04227868-63e2-4e9d-b0eb-421147b82091",
    "resource": {
      "resourceType": "Questionnaire",
      "id": "04227868-63e2-4e9d-b0eb-421147b82091",
      "identifier": [ {
        "value": "59263"
      } ],
      "version": "2021-04-06T11:29:26.887Z",
      "status": "active",
      "experimental": false,
      "date": "2021-04-06T11:29:26+00:00",
      "publisher": "User ID: 'HADFIELDR' User name: 'Ryan Hadfield' User skill set: 'T3'",
      "lastReviewDate": "2021-04-06",
      "contact": [ {
        "telecom": [ {
          "system": "phone",
          "value": "07777 888888"
        } ]
      } ],
      "subjectType": [ "Patient" ]
    }
  }, {
    "fullUrl": "urn:uuid:2b490787-65a4-4916-8511-e326e9feaef3",
    "resource": {
      "resourceType": "QuestionnaireResponse",
      "id": "2b490787-65a4-4916-8511-e326e9feaef3",
      "identifier": {
        "value": "59263"
      },
      "questionnaire": {
        "reference": "urn:uuid:000f4bc4-d59c-42f5-a74e-a043c9c8179f"
      },
      "status": "completed",
      "subject": {
        "reference": "urn:uuid:bac4a0ed-5b3d-4349-ba90-7fcdf49dc512"
      },
      "context": {
        "reference": "urn:uuid:0d688b3d-9190-4d41-8770-9829e29617f4"
      },
      "authored": "2021-04-06T11:29:26+00:00",
      "item": [ {
        "linkId": "Tx221804",
        "text": "STRING:transfertofurthermenuquestionestablishedinEntryFlow",
        "answer": [ {
          "valueString": "\"present\""
        } ]
      } ]
    }
  }, {
    "fullUrl": "urn:uuid:000f4bc4-d59c-42f5-a74e-a043c9c8179f",
    "resource": {
      "resourceType": "Questionnaire",
      "id": "000f4bc4-d59c-42f5-a74e-a043c9c8179f",
      "identifier": [ {
        "value": "59263"
      } ],
      "version": "2021-04-06T11:29:26.887Z",
      "status": "active",
      "experimental": false,
      "date": "2021-04-06T11:29:26+00:00",
      "publisher": "User ID: 'HADFIELDR' User name: 'Ryan Hadfield' User skill set: 'T3'",
      "lastReviewDate": "2021-04-06",
      "contact": [ {
        "telecom": [ {
          "system": "phone",
          "value": "07777 888888"
        } ]
      } ],
      "subjectType": [ "Patient" ],
      "item": [ {
        "linkId": "59263",
        "prefix": "41",
        "text": "STRING:transfertofurthermenuquestionestablishedinEntryFlow",
        "type": "choice",
        "required": true,
        "repeats": false,
        "option": [ {
          "valueString": "\"present\", Selected: true"
        } ]
      } ]
    }
  }, {
    "fullUrl": "urn:uuid:f317458a-d8c7-4e28-b363-64ffaa801d18",
    "resource": {
      "resourceType": "QuestionnaireResponse",
      "id": "f317458a-d8c7-4e28-b363-64ffaa801d18",
      "identifier": {
        "value": "59263"
      },
      "questionnaire": {
        "reference": "urn:uuid:86b1eac3-d0a6-4905-b0d0-edd757901814"
      },
      "status": "completed",
      "subject": {
        "reference": "urn:uuid:bac4a0ed-5b3d-4349-ba90-7fcdf49dc512"
      },
      "context": {
        "reference": "urn:uuid:0d688b3d-9190-4d41-8770-9829e29617f4"
      },
      "authored": "2021-04-06T11:29:26+00:00",
      "item": [ {
        "linkId": "Tx224998",
        "text": "SYSTEM_COVIDLEVEL2",
        "answer": [ {
          "valueString": "==\"covidlevel2\""
        } ]
      } ]
    }
  }, {
    "fullUrl": "urn:uuid:86b1eac3-d0a6-4905-b0d0-edd757901814",
    "resource": {
      "resourceType": "Questionnaire",
      "id": "86b1eac3-d0a6-4905-b0d0-edd757901814",
      "identifier": [ {
        "value": "59263"
      } ],
      "version": "2021-04-06T11:29:26.887Z",
      "status": "active",
      "experimental": false,
      "date": "2021-04-06T11:29:26+00:00",
      "publisher": "User ID: 'HADFIELDR' User name: 'Ryan Hadfield' User skill set: 'T3'",
      "lastReviewDate": "2021-04-06",
      "contact": [ {
        "telecom": [ {
          "system": "phone",
          "value": "07777 888888"
        } ]
      } ],
      "subjectType": [ "Patient" ],
      "item": [ {
        "linkId": "59263",
        "prefix": "5900",
        "text": "SYSTEM_COVIDLEVEL2",
        "type": "choice",
        "required": true,
        "repeats": false,
        "option": [ {
          "valueString": "==\"covidlevel2\", Selected: true"
        }, {
          "valueString": "*, Selected: false"
        } ]
      } ]
    }
  }, {
    "fullUrl": "urn:uuid:9d83118e-f8fb-4f68-bf1f-1db98701029f",
    "resource": {
      "resourceType": "QuestionnaireResponse",
      "id": "9d83118e-f8fb-4f68-bf1f-1db98701029f",
      "identifier": {
        "value": "59263"
      },
      "questionnaire": {
        "reference": "urn:uuid:b27492be-f752-49d9-8284-7009ad010341"
      },
      "status": "completed",
      "subject": {
        "reference": "urn:uuid:bac4a0ed-5b3d-4349-ba90-7fcdf49dc512"
      },
      "context": {
        "reference": "urn:uuid:0d688b3d-9190-4d41-8770-9829e29617f4"
      },
      "authored": "2021-04-06T11:29:26+00:00",
      "item": [ {
        "linkId": "Tx225069",
        "text": "What is the reason for the contact?",
        "answer": [ {
          "valueString": "a prescription request"
        } ]
      } ]
    }
  }, {
    "fullUrl": "urn:uuid:b27492be-f752-49d9-8284-7009ad010341",
    "resource": {
      "resourceType": "Questionnaire",
      "id": "b27492be-f752-49d9-8284-7009ad010341",
      "identifier": [ {
        "value": "59263"
      } ],
      "version": "2021-04-06T11:29:26.887Z",
      "status": "active",
      "experimental": false,
      "date": "2021-04-06T11:29:26+00:00",
      "publisher": "User ID: 'HADFIELDR' User name: 'Ryan Hadfield' User skill set: 'T3'",
      "lastReviewDate": "2021-04-06",
      "contact": [ {
        "telecom": [ {
          "system": "phone",
          "value": "07777 888888"
        } ]
      } ],
      "subjectType": [ "Patient" ],
      "item": [ {
        "linkId": "59263",
        "prefix": "6000",
        "text": "What is the reason for the contact?",
        "type": "choice",
        "required": true,
        "repeats": false,
        "option": [ {
          "valueString": "a child protection/vulnerable adult concern (specify), Selected: false"
        }, {
          "valueString": "a social or domestic emergency, Selected: false"
        }, {
          "valueString": "a prescription request, Selected: true"
        }, {
          "valueString": "an appointment request, Selected: false"
        }, {
          "valueString": "a request for health or medication information, Selected: false"
        }, {
          "valueString": "public health alert information, Selected: false"
        } ]
      } ]
    }
  }, {
    "fullUrl": "urn:uuid:e96e58f0-4142-4489-af59-e56d087cff52",
    "resource": {
      "resourceType": "QuestionnaireResponse",
      "id": "e96e58f0-4142-4489-af59-e56d087cff52",
      "identifier": {
        "value": "59263"
      },
      "questionnaire": {
        "reference": "urn:uuid:c49807b5-90e8-454e-9038-0cb24be380f9"
      },
      "status": "completed",
      "subject": {
        "reference": "urn:uuid:bac4a0ed-5b3d-4349-ba90-7fcdf49dc512"
      },
      "context": {
        "reference": "urn:uuid:0d688b3d-9190-4d41-8770-9829e29617f4"
      },
      "authored": "2021-04-06T11:29:26+00:00",
      "item": [ {
        "linkId": "Tx220957",
        "text": "Is this contact about a new or worsening illness?",
        "answer": [ {
          "valueString": "no"
        } ]
      } ]
    }
  }, {
    "fullUrl": "urn:uuid:c49807b5-90e8-454e-9038-0cb24be380f9",
    "resource": {
      "resourceType": "Questionnaire",
      "id": "c49807b5-90e8-454e-9038-0cb24be380f9",
      "identifier": [ {
        "value": "59263"
      } ],
      "version": "2021-04-06T11:29:26.887Z",
      "status": "active",
      "experimental": false,
      "date": "2021-04-06T11:29:26+00:00",
      "publisher": "User ID: 'HADFIELDR' User name: 'Ryan Hadfield' User skill set: 'T3'",
      "lastReviewDate": "2021-04-06",
      "contact": [ {
        "telecom": [ {
          "system": "phone",
          "value": "07777 888888"
        } ]
      } ],
      "subjectType": [ "Patient" ],
      "item": [ {
        "linkId": "59263",
        "prefix": "1400",
        "text": "Is this contact about a new or worsening illness?",
        "type": "choice",
        "required": true,
        "repeats": false,
        "option": [ {
          "valueString": "yes, Selected: false"
        }, {
          "valueString": "not sure, Selected: false"
        }, {
          "valueString": "no, Selected: true"
        } ]
      } ]
    }
  }, {
    "fullUrl": "urn:uuid:44694dae-5ed8-4de7-8488-60e42341821e",
    "resource": {
      "resourceType": "QuestionnaireResponse",
      "id": "44694dae-5ed8-4de7-8488-60e42341821e",
      "identifier": {
        "value": "59263"
      },
      "questionnaire": {
        "reference": "urn:uuid:65258a85-7b88-404b-b948-da11ed8829e2"
      },
      "status": "completed",
      "subject": {
        "reference": "urn:uuid:bac4a0ed-5b3d-4349-ba90-7fcdf49dc512"
      },
      "context": {
        "reference": "urn:uuid:0d688b3d-9190-4d41-8770-9829e29617f4"
      },
      "authored": "2021-04-06T11:29:26+00:00",
      "item": [ {
        "linkId": "Tx221352",
        "text": "Have you got enough medication to last until the surgery opens?",
        "answer": [ {
          "valueString": "no"
        } ]
      } ]
    }
  }, {
    "fullUrl": "urn:uuid:65258a85-7b88-404b-b948-da11ed8829e2",
    "resource": {
      "resourceType": "Questionnaire",
      "id": "65258a85-7b88-404b-b948-da11ed8829e2",
      "identifier": [ {
        "value": "59263"
      } ],
      "version": "2021-04-06T11:29:26.887Z",
      "status": "active",
      "experimental": false,
      "date": "2021-04-06T11:29:26+00:00",
      "publisher": "User ID: 'HADFIELDR' User name: 'Ryan Hadfield' User skill set: 'T3'",
      "lastReviewDate": "2021-04-06",
      "contact": [ {
        "telecom": [ {
          "system": "phone",
          "value": "07777 888888"
        } ]
      } ],
      "subjectType": [ "Patient" ],
      "item": [ {
        "linkId": "59263",
        "prefix": "1500",
        "text": "Have you got enough medication to last until the surgery opens?",
        "type": "choice",
        "required": true,
        "repeats": false,
        "option": [ {
          "valueString": "yes, Selected: false"
        }, {
          "valueString": "not sure, Selected: false"
        }, {
          "valueString": "no, Selected: true"
        } ]
      } ]
    }
  }, {
    "fullUrl": "urn:uuid:eca129e2-cc8d-4820-929b-9adc143d3aad",
    "resource": {
      "resourceType": "QuestionnaireResponse",
      "id": "eca129e2-cc8d-4820-929b-9adc143d3aad",
      "identifier": {
        "value": "59263"
      },
      "questionnaire": {
        "reference": "urn:uuid:5309e041-d25e-477b-b3ab-2f0529c22f97"
      },
      "status": "completed",
      "subject": {
        "reference": "urn:uuid:bac4a0ed-5b3d-4349-ba90-7fcdf49dc512"
      },
      "context": {
        "reference": "urn:uuid:0d688b3d-9190-4d41-8770-9829e29617f4"
      },
      "authored": "2021-04-06T11:29:26+00:00"
    }
  }, {
    "fullUrl": "urn:uuid:5309e041-d25e-477b-b3ab-2f0529c22f97",
    "resource": {
      "resourceType": "Questionnaire",
      "id": "5309e041-d25e-477b-b3ab-2f0529c22f97",
      "identifier": [ {
        "value": "59263"
      } ],
      "version": "2021-04-06T11:29:26.887Z",
      "status": "active",
      "experimental": false,
      "date": "2021-04-06T11:29:26+00:00",
      "publisher": "User ID: 'HADFIELDR' User name: 'Ryan Hadfield' User skill set: 'T3'",
      "lastReviewDate": "2021-04-06",
      "contact": [ {
        "telecom": [ {
          "system": "phone",
          "value": "07777 888888"
        } ]
      } ],
      "subjectType": [ "Patient" ]
    }
  }, {
    "fullUrl": "urn:uuid:85b2ee2b-f505-4371-b89d-e16ce766d019",
    "resource": {
      "resourceType": "QuestionnaireResponse",
      "id": "85b2ee2b-f505-4371-b89d-e16ce766d019",
      "identifier": {
        "value": "59263"
      },
      "questionnaire": {
        "reference": "urn:uuid:5b7b08e7-0850-420e-8ebf-e05179b2861f"
      },
      "status": "completed",
      "subject": {
        "reference": "urn:uuid:bac4a0ed-5b3d-4349-ba90-7fcdf49dc512"
      },
      "context": {
        "reference": "urn:uuid:0d688b3d-9190-4d41-8770-9829e29617f4"
      },
      "authored": "2021-04-06T11:29:26+00:00",
      "item": [ {
        "linkId": "Tx224231",
        "text": "FROM WHAT YOU HAVE HEARD IS A CONSULTATION WITH A PRESCRIBER NEEDED?",
        "answer": [ {
          "valueString": "no"
        } ]
      } ]
    }
  }, {
    "fullUrl": "urn:uuid:5b7b08e7-0850-420e-8ebf-e05179b2861f",
    "resource": {
      "resourceType": "Questionnaire",
      "id": "5b7b08e7-0850-420e-8ebf-e05179b2861f",
      "identifier": [ {
        "value": "59263"
      } ],
      "version": "2021-04-06T11:29:26.887Z",
      "status": "active",
      "experimental": false,
      "date": "2021-04-06T11:29:26+00:00",
      "publisher": "User ID: 'HADFIELDR' User name: 'Ryan Hadfield' User skill set: 'T3'",
      "lastReviewDate": "2021-04-06",
      "contact": [ {
        "telecom": [ {
          "system": "phone",
          "value": "07777 888888"
        } ]
      } ],
      "subjectType": [ "Patient" ],
      "item": [ {
        "linkId": "59263",
        "prefix": "0",
        "text": "FROM WHAT YOU HAVE HEARD IS A CONSULTATION WITH A PRESCRIBER NEEDED?",
        "type": "choice",
        "required": true,
        "repeats": false,
        "option": [ {
          "valueString": "yes, Selected: false"
        }, {
          "valueString": "not sure, Selected: false"
        }, {
          "valueString": "no, Selected: true"
        } ]
      } ]
    }
  }, {
    "fullUrl": "urn:uuid:27c900c0-3033-4bdf-964b-e355db00e401",
    "resource": {
      "resourceType": "QuestionnaireResponse",
      "id": "27c900c0-3033-4bdf-964b-e355db00e401",
      "identifier": {
        "value": "59263"
      },
      "questionnaire": {
        "reference": "urn:uuid:b54c238d-43e4-4e76-ab1b-4a31b038e1cc"
      },
      "status": "completed",
      "subject": {
        "reference": "urn:uuid:bac4a0ed-5b3d-4349-ba90-7fcdf49dc512"
      },
      "context": {
        "reference": "urn:uuid:0d688b3d-9190-4d41-8770-9829e29617f4"
      },
      "authored": "2021-04-06T11:29:26+00:00",
      "item": [ {
        "linkId": "Tx222687",
        "text": "Have you got any of the medication available at the moment?",
        "answer": [ {
          "valueString": "no"
        } ]
      } ]
    }
  }, {
    "fullUrl": "urn:uuid:b54c238d-43e4-4e76-ab1b-4a31b038e1cc",
    "resource": {
      "resourceType": "Questionnaire",
      "id": "b54c238d-43e4-4e76-ab1b-4a31b038e1cc",
      "identifier": [ {
        "value": "59263"
      } ],
      "version": "2021-04-06T11:29:26.887Z",
      "status": "active",
      "experimental": false,
      "date": "2021-04-06T11:29:26+00:00",
      "publisher": "User ID: 'HADFIELDR' User name: 'Ryan Hadfield' User skill set: 'T3'",
      "lastReviewDate": "2021-04-06",
      "contact": [ {
        "telecom": [ {
          "system": "phone",
          "value": "07777 888888"
        } ]
      } ],
      "subjectType": [ "Patient" ],
      "item": [ {
        "linkId": "59263",
        "prefix": "200",
        "text": "Have you got any of the medication available at the moment?",
        "type": "choice",
        "required": true,
        "repeats": false,
        "option": [ {
          "valueString": "yes, Selected: false"
        }, {
          "valueString": "not sure, Selected: false"
        }, {
          "valueString": "no, Selected: true"
        } ]
      } ]
    }
  }, {
    "fullUrl": "urn:uuid:50bffb6c-dfa7-4a5e-8b2e-d11943926ea6",
    "resource": {
      "resourceType": "QuestionnaireResponse",
      "id": "50bffb6c-dfa7-4a5e-8b2e-d11943926ea6",
      "identifier": {
        "value": "59263"
      },
      "questionnaire": {
        "reference": "urn:uuid:a925c4ff-ac3a-40ce-9943-689991ff5d8e"
      },
      "status": "completed",
      "subject": {
        "reference": "urn:uuid:bac4a0ed-5b3d-4349-ba90-7fcdf49dc512"
      },
      "context": {
        "reference": "urn:uuid:0d688b3d-9190-4d41-8770-9829e29617f4"
      },
      "authored": "2021-04-06T11:29:26+00:00",
      "item": [ {
        "linkId": "Tx221367",
        "text": "When is the next dose due?",
        "answer": [ {
          "valueString": "within the next 12 hours"
        } ]
      } ]
    }
  }, {
    "fullUrl": "urn:uuid:a925c4ff-ac3a-40ce-9943-689991ff5d8e",
    "resource": {
      "resourceType": "Questionnaire",
      "id": "a925c4ff-ac3a-40ce-9943-689991ff5d8e",
      "identifier": [ {
        "value": "59263"
      } ],
      "version": "2021-04-06T11:29:26.887Z",
      "status": "active",
      "experimental": false,
      "date": "2021-04-06T11:29:26+00:00",
      "publisher": "User ID: 'HADFIELDR' User name: 'Ryan Hadfield' User skill set: 'T3'",
      "lastReviewDate": "2021-04-06",
      "contact": [ {
        "telecom": [ {
          "system": "phone",
          "value": "07777 888888"
        } ]
      } ],
      "subjectType": [ "Patient" ],
      "item": [ {
        "linkId": "59263",
        "prefix": "100",
        "text": "When is the next dose due?",
        "type": "choice",
        "required": true,
        "repeats": false,
        "option": [ {
          "valueString": "within the next 2 hours, Selected: false"
        }, {
          "valueString": "within the next 6 hours, Selected: false"
        }, {
          "valueString": "within the next 12 hours, Selected: true"
        }, {
          "valueString": "over 12 hours time, Selected: false"
        }, {
          "valueString": "not sure, Selected: false"
        } ]
      } ]
    }
  }, {
    "fullUrl": "urn:uuid:27fa0e7d-697a-4ee4-91c1-3019b0407345",
    "resource": {
      "resourceType": "QuestionnaireResponse",
      "id": "27fa0e7d-697a-4ee4-91c1-3019b0407345",
      "identifier": {
        "value": "59263"
      },
      "questionnaire": {
        "reference": "urn:uuid:da5aa543-28c7-45ff-b042-7383660260a4"
      },
      "status": "completed",
      "subject": {
        "reference": "urn:uuid:bac4a0ed-5b3d-4349-ba90-7fcdf49dc512"
      },
      "context": {
        "reference": "urn:uuid:0d688b3d-9190-4d41-8770-9829e29617f4"
      },
      "authored": "2021-04-06T11:29:26+00:00",
      "item": [ {
        "linkId": "Tx223441",
        "text": "STRING:SDPCRepeatPrescription",
        "answer": [ {
          "valueString": "\"PC repeat prescription\""
        } ]
      } ]
    }
  }, {
    "fullUrl": "urn:uuid:da5aa543-28c7-45ff-b042-7383660260a4",
    "resource": {
      "resourceType": "Questionnaire",
      "id": "da5aa543-28c7-45ff-b042-7383660260a4",
      "identifier": [ {
        "value": "59263"
      } ],
      "version": "2021-04-06T11:29:26.887Z",
      "status": "active",
      "experimental": false,
      "date": "2021-04-06T11:29:26+00:00",
      "publisher": "User ID: 'HADFIELDR' User name: 'Ryan Hadfield' User skill set: 'T3'",
      "lastReviewDate": "2021-04-06",
      "contact": [ {
        "telecom": [ {
          "system": "phone",
          "value": "07777 888888"
        } ]
      } ],
      "subjectType": [ "Patient" ],
      "item": [ {
        "linkId": "59263",
        "prefix": "1200",
        "text": "STRING:SDPCRepeatPrescription",
        "type": "choice",
        "required": true,
        "repeats": false,
        "option": [ {
          "valueString": "\"PC repeat prescription\", Selected: true"
        } ]
      } ]
    }
  }, {
    "fullUrl": "urn:uuid:50d067e6-49ee-49e3-8879-72ffc9a9b36c",
    "resource": {
      "resourceType": "QuestionnaireResponse",
      "id": "50d067e6-49ee-49e3-8879-72ffc9a9b36c",
      "identifier": {
        "value": "59263"
      },
      "questionnaire": {
        "reference": "urn:uuid:afe445c7-29b4-425e-ba39-0fc146f38701"
      },
      "status": "completed",
      "subject": {
        "reference": "urn:uuid:bac4a0ed-5b3d-4349-ba90-7fcdf49dc512"
      },
      "context": {
        "reference": "urn:uuid:0d688b3d-9190-4d41-8770-9829e29617f4"
      },
      "authored": "2021-04-06T11:29:26+00:00"
    }
  }, {
    "fullUrl": "urn:uuid:afe445c7-29b4-425e-ba39-0fc146f38701",
    "resource": {
      "resourceType": "Questionnaire",
      "id": "afe445c7-29b4-425e-ba39-0fc146f38701",
      "identifier": [ {
        "value": "59263"
      } ],
      "version": "2021-04-06T11:29:26.887Z",
      "status": "active",
      "experimental": false,
      "date": "2021-04-06T11:29:26+00:00",
      "publisher": "User ID: 'HADFIELDR' User name: 'Ryan Hadfield' User skill set: 'T3'",
      "lastReviewDate": "2021-04-06",
      "contact": [ {
        "telecom": [ {
          "system": "phone",
          "value": "07777 888888"
        } ]
      } ],
      "subjectType": [ "Patient" ]
    }
  }, {
    "fullUrl": "urn:uuid:39ab9a3b-384f-4bbd-9003-cbc99e32f795",
    "resource": {
      "resourceType": "QuestionnaireResponse",
      "id": "39ab9a3b-384f-4bbd-9003-cbc99e32f795",
      "identifier": {
        "value": "59263"
      },
      "questionnaire": {
        "reference": "urn:uuid:5c0137ae-dbd4-47ce-986d-9b26bda8f5b6"
      },
      "status": "completed",
      "subject": {
        "reference": "urn:uuid:bac4a0ed-5b3d-4349-ba90-7fcdf49dc512"
      },
      "context": {
        "reference": "urn:uuid:0d688b3d-9190-4d41-8770-9829e29617f4"
      },
      "authored": "2021-04-06T11:29:26+00:00",
      "item": [ {
        "linkId": "Tx220074",
        "text": "What is the reason for the contact?",
        "answer": [ {
          "valueString": "an injury or other health problem"
        } ]
      } ]
    }
  }, {
    "fullUrl": "urn:uuid:5c0137ae-dbd4-47ce-986d-9b26bda8f5b6",
    "resource": {
      "resourceType": "Questionnaire",
      "id": "5c0137ae-dbd4-47ce-986d-9b26bda8f5b6",
      "identifier": [ {
        "value": "59263"
      } ],
      "version": "2021-04-06T11:29:26.887Z",
      "status": "active",
      "experimental": false,
      "date": "2021-04-06T11:29:26+00:00",
      "publisher": "User ID: 'HADFIELDR' User name: 'Ryan Hadfield' User skill set: 'T3'",
      "lastReviewDate": "2021-04-06",
      "contact": [ {
        "telecom": [ {
          "system": "phone",
          "value": "07777 888888"
        } ]
      } ],
      "subjectType": [ "Patient" ],
      "item": [ {
        "linkId": "59263",
        "prefix": "5",
        "text": "What is the reason for the contact?",
        "type": "choice",
        "required": true,
        "repeats": false,
        "option": [ {
          "valueString": "an injury or other health problem, Selected: true"
        }, {
          "valueString": "labour or childbirth, Selected: false"
        }, {
          "valueString": "a need to access another healthcare service, Selected: false"
        }, {
          "valueString": "a healthcare professional requesting contact with another clinician, Selected: false"
        }, {
          "valueString": "a report of results or tests, Selected: false"
        }, {
          "valueString": "a possible failure of contraception, Selected: false"
        }, {
          "valueString": "more, Selected: false"
        } ]
      } ]
    }
  }, {
    "fullUrl": "urn:uuid:296e59d5-bd41-4d5b-be3b-e64be1f16592",
    "resource": {
      "resourceType": "QuestionnaireResponse",
      "id": "296e59d5-bd41-4d5b-be3b-e64be1f16592",
      "identifier": {
        "value": "59263"
      },
      "questionnaire": {
        "reference": "urn:uuid:4de38f9a-26d0-4eb7-8321-dec866dc2817"
      },
      "status": "completed",
      "subject": {
        "reference": "urn:uuid:bac4a0ed-5b3d-4349-ba90-7fcdf49dc512"
      },
      "context": {
        "reference": "urn:uuid:0d688b3d-9190-4d41-8770-9829e29617f4"
      },
      "authored": "2021-04-06T11:29:26+00:00",
      "item": [ {
        "linkId": "Tx221807",
        "text": "STRING:to'Immediatethreatstolife(SPA/OOHversion)'-'Majorbloodloss'stem",
        "answer": [ {
          "valueString": "\"present\""
        } ]
      } ]
    }
  }, {
    "fullUrl": "urn:uuid:4de38f9a-26d0-4eb7-8321-dec866dc2817",
    "resource": {
      "resourceType": "Questionnaire",
      "id": "4de38f9a-26d0-4eb7-8321-dec866dc2817",
      "identifier": [ {
        "value": "59263"
      } ],
      "version": "2021-04-06T11:29:26.887Z",
      "status": "active",
      "experimental": false,
      "date": "2021-04-06T11:29:26+00:00",
      "publisher": "User ID: 'HADFIELDR' User name: 'Ryan Hadfield' User skill set: 'T3'",
      "lastReviewDate": "2021-04-06",
      "contact": [ {
        "telecom": [ {
          "system": "phone",
          "value": "07777 888888"
        } ]
      } ],
      "subjectType": [ "Patient" ],
      "item": [ {
        "linkId": "59263",
        "prefix": "200",
        "text": "STRING:to'Immediatethreatstolife(SPA/OOHversion)'-'Majorbloodloss'stem",
        "type": "choice",
        "required": true,
        "repeats": false,
        "option": [ {
          "valueString": "\"present\", Selected: true"
        } ]
      } ]
    }
  }, {
    "fullUrl": "urn:uuid:ab0987e4-fe0c-42b1-8e00-d87a512345c5",
    "resource": {
      "resourceType": "QuestionnaireResponse",
      "id": "ab0987e4-fe0c-42b1-8e00-d87a512345c5",
      "identifier": {
        "value": "59263"
      },
      "questionnaire": {
        "reference": "urn:uuid:b3ced847-b26d-4d81-8ec5-0c26bc0b54af"
      },
      "status": "completed",
      "subject": {
        "reference": "urn:uuid:bac4a0ed-5b3d-4349-ba90-7fcdf49dc512"
      },
      "context": {
        "reference": "urn:uuid:0d688b3d-9190-4d41-8770-9829e29617f4"
      },
      "authored": "2021-04-06T11:29:26+00:00"
    }
  }, {
    "fullUrl": "urn:uuid:b3ced847-b26d-4d81-8ec5-0c26bc0b54af",
    "resource": {
      "resourceType": "Questionnaire",
      "id": "b3ced847-b26d-4d81-8ec5-0c26bc0b54af",
      "identifier": [ {
        "value": "59263"
      } ],
      "version": "2021-04-06T11:29:26.887Z",
      "status": "active",
      "experimental": false,
      "date": "2021-04-06T11:29:26+00:00",
      "publisher": "User ID: 'HADFIELDR' User name: 'Ryan Hadfield' User skill set: 'T3'",
      "lastReviewDate": "2021-04-06",
      "contact": [ {
        "telecom": [ {
          "system": "phone",
          "value": "07777 888888"
        } ]
      } ],
      "subjectType": [ "Patient" ]
    }
  }, {
    "fullUrl": "urn:uuid:fe3f8e66-6b6d-4aa0-b3a1-2cff14ff2a5d",
    "resource": {
      "resourceType": "QuestionnaireResponse",
      "id": "fe3f8e66-6b6d-4aa0-b3a1-2cff14ff2a5d",
      "identifier": {
        "value": "59263"
      },
      "questionnaire": {
        "reference": "urn:uuid:a0ce4778-8f1f-4a9d-b620-e71e4aea18f8"
      },
      "status": "completed",
      "subject": {
        "reference": "urn:uuid:bac4a0ed-5b3d-4349-ba90-7fcdf49dc512"
      },
      "context": {
        "reference": "urn:uuid:0d688b3d-9190-4d41-8770-9829e29617f4"
      },
      "authored": "2021-04-06T11:29:26+00:00",
      "item": [ {
        "linkId": "Tx221799",
        "text": "STRING:injury,illnessorlabourestablishedinEntryFlow",
        "answer": [ {
          "valueString": "\"present\""
        } ]
      } ]
    }
  }, {
    "fullUrl": "urn:uuid:a0ce4778-8f1f-4a9d-b620-e71e4aea18f8",
    "resource": {
      "resourceType": "Questionnaire",
      "id": "a0ce4778-8f1f-4a9d-b620-e71e4aea18f8",
      "identifier": [ {
        "value": "59263"
      } ],
      "version": "2021-04-06T11:29:26.887Z",
      "status": "active",
      "experimental": false,
      "date": "2021-04-06T11:29:26+00:00",
      "publisher": "User ID: 'HADFIELDR' User name: 'Ryan Hadfield' User skill set: 'T3'",
      "lastReviewDate": "2021-04-06",
      "contact": [ {
        "telecom": [ {
          "system": "phone",
          "value": "07777 888888"
        } ]
      } ],
      "subjectType": [ "Patient" ],
      "item": [ {
        "linkId": "59263",
        "prefix": "0",
        "text": "STRING:injury,illnessorlabourestablishedinEntryFlow",
        "type": "choice",
        "required": true,
        "repeats": false,
        "option": [ {
          "valueString": "\"present\", Selected: true"
        } ]
      } ]
    }
  }, {
    "fullUrl": "urn:uuid:6e3aa872-fcae-4662-8d15-197bc32cad6a",
    "resource": {
      "resourceType": "QuestionnaireResponse",
      "id": "6e3aa872-fcae-4662-8d15-197bc32cad6a",
      "identifier": {
        "value": "59263"
      },
      "questionnaire": {
        "reference": "urn:uuid:3e1f96fc-dc13-457e-bf1e-a4887c65fe62"
      },
      "status": "completed",
      "subject": {
        "reference": "urn:uuid:bac4a0ed-5b3d-4349-ba90-7fcdf49dc512"
      },
      "context": {
        "reference": "urn:uuid:0d688b3d-9190-4d41-8770-9829e29617f4"
      },
      "authored": "2021-04-06T11:29:26+00:00",
      "item": [ {
        "linkId": "Tx224120",
        "text": "Have you been bleeding RED BLOOD very heavily IN THE LAST 2 HOURS?",
        "answer": [ {
          "valueString": "no"
        } ]
      } ]
    }
  }, {
    "fullUrl": "urn:uuid:3e1f96fc-dc13-457e-bf1e-a4887c65fe62",
    "resource": {
      "resourceType": "Questionnaire",
      "id": "3e1f96fc-dc13-457e-bf1e-a4887c65fe62",
      "identifier": [ {
        "value": "59263"
      } ],
      "version": "2021-04-06T11:29:26.887Z",
      "status": "active",
      "experimental": false,
      "date": "2021-04-06T11:29:26+00:00",
      "publisher": "User ID: 'HADFIELDR' User name: 'Ryan Hadfield' User skill set: 'T3'",
      "lastReviewDate": "2021-04-06",
      "contact": [ {
        "telecom": [ {
          "system": "phone",
          "value": "07777 888888"
        } ]
      } ],
      "subjectType": [ "Patient" ],
      "item": [ {
        "linkId": "59263",
        "prefix": "10100",
        "text": "Have you been bleeding RED BLOOD very heavily IN THE LAST 2 HOURS?",
        "type": "choice",
        "required": true,
        "repeats": false,
        "option": [ {
          "valueString": "yes, Selected: false"
        }, {
          "valueString": "not sure, Selected: false"
        }, {
          "valueString": "no, Selected: true"
        } ]
      } ]
    }
  }, {
    "fullUrl": "urn:uuid:a6fb99f5-8215-4443-bf09-60acef0d62fc",
    "resource": {
      "resourceType": "QuestionnaireResponse",
      "id": "a6fb99f5-8215-4443-bf09-60acef0d62fc",
      "identifier": {
        "value": "59263"
      },
      "questionnaire": {
        "reference": "urn:uuid:d3885ffe-1f56-4766-910a-a72a47d6b917"
      },
      "status": "completed",
      "subject": {
        "reference": "urn:uuid:bac4a0ed-5b3d-4349-ba90-7fcdf49dc512"
      },
      "context": {
        "reference": "urn:uuid:0d688b3d-9190-4d41-8770-9829e29617f4"
      },
      "authored": "2021-04-06T11:29:26+00:00",
      "item": [ {
        "linkId": "Tx221343",
        "text": "SocialConcernsExcluded",
        "answer": [ {
          "valueString": "*"
        } ]
      } ]
    }
  }, {
    "fullUrl": "urn:uuid:d3885ffe-1f56-4766-910a-a72a47d6b917",
    "resource": {
      "resourceType": "Questionnaire",
      "id": "d3885ffe-1f56-4766-910a-a72a47d6b917",
      "identifier": [ {
        "value": "59263"
      } ],
      "version": "2021-04-06T11:29:26.887Z",
      "status": "active",
      "experimental": false,
      "date": "2021-04-06T11:29:26+00:00",
      "publisher": "User ID: 'HADFIELDR' User name: 'Ryan Hadfield' User skill set: 'T3'",
      "lastReviewDate": "2021-04-06",
      "contact": [ {
        "telecom": [ {
          "system": "phone",
          "value": "07777 888888"
        } ]
      } ],
      "subjectType": [ "Patient" ],
      "item": [ {
        "linkId": "59263",
        "prefix": "1100",
        "text": "SocialConcernsExcluded",
        "type": "choice",
        "required": true,
        "repeats": false,
        "option": [ {
          "valueString": "==\"present\", Selected: false"
        }, {
          "valueString": "*, Selected: true"
        } ]
      } ]
    }
  }, {
    "fullUrl": "urn:uuid:1484fef3-0682-45df-ba55-6028907741ab",
    "resource": {
      "resourceType": "QuestionnaireResponse",
      "id": "1484fef3-0682-45df-ba55-6028907741ab",
      "identifier": {
        "value": "59263"
      },
      "questionnaire": {
        "reference": "urn:uuid:2afe23df-39c2-4c5c-8b31-afa20d6638f8"
      },
      "status": "completed",
      "subject": {
        "reference": "urn:uuid:bac4a0ed-5b3d-4349-ba90-7fcdf49dc512"
      },
      "context": {
        "reference": "urn:uuid:0d688b3d-9190-4d41-8770-9829e29617f4"
      },
      "authored": "2021-04-06T11:29:26+00:00",
      "item": [ {
        "linkId": "Tx130011",
        "text": "What is the main problem?"
      } ]
    }
  }, {
    "fullUrl": "urn:uuid:2afe23df-39c2-4c5c-8b31-afa20d6638f8",
    "resource": {
      "resourceType": "Questionnaire",
      "id": "2afe23df-39c2-4c5c-8b31-afa20d6638f8",
      "identifier": [ {
        "value": "59263"
      } ],
      "version": "2021-04-06T11:29:26.887Z",
      "status": "active",
      "experimental": false,
      "date": "2021-04-06T11:29:26+00:00",
      "publisher": "User ID: 'HADFIELDR' User name: 'Ryan Hadfield' User skill set: 'T3'",
      "lastReviewDate": "2021-04-06",
      "contact": [ {
        "telecom": [ {
          "system": "phone",
          "value": "07777 888888"
        } ]
      } ],
      "subjectType": [ "Patient" ],
      "item": [ {
        "linkId": "59263",
        "prefix": "2300",
        "text": "What is the main problem?",
        "type": "choice",
        "required": true,
        "repeats": false,
        "option": [ {
          "valueString": "the individual has been told to follow a particular course of action (specify), Selected: false"
        }, {
          "valueString": "the individual is an identified frequent caller, Selected: false"
        }, {
          "valueString": "injury (specify), Selected: false"
        }, {
          "valueString": "illness or other health problem (specify), Selected: false"
        }, {
          "valueString": "child protection/vulnerable adult concern, Selected: false"
        }, {
          "valueString": "social or domestic emergency, Selected: false"
        }, {
          "valueString": "the environment potentially poses an immediate threat to life (specify), Selected: false"
        } ]
      } ]
    }
  }, {
    "fullUrl": "urn:uuid:f033847e-5a9c-402d-83ae-39dd9b4dfb89",
    "resource": {
      "resourceType": "QuestionnaireResponse",
      "id": "f033847e-5a9c-402d-83ae-39dd9b4dfb89",
      "identifier": {
        "value": "59263"
      },
      "questionnaire": {
        "reference": "urn:uuid:a58019f0-5ef1-4236-b053-c9c796e46767"
      },
      "status": "completed",
      "subject": {
        "reference": "urn:uuid:bac4a0ed-5b3d-4349-ba90-7fcdf49dc512"
      },
      "context": {
        "reference": "urn:uuid:0d688b3d-9190-4d41-8770-9829e29617f4"
      },
      "authored": "2021-04-06T11:29:26+00:00",
      "item": [ {
        "linkId": "Tx220074",
        "text": "What is the reason for the contact?",
        "answer": [ {
          "valueString": "more"
        } ]
      } ]
    }
  }, {
    "fullUrl": "urn:uuid:a58019f0-5ef1-4236-b053-c9c796e46767",
    "resource": {
      "resourceType": "Questionnaire",
      "id": "a58019f0-5ef1-4236-b053-c9c796e46767",
      "identifier": [ {
        "value": "59263"
      } ],
      "version": "2021-04-06T11:29:26.887Z",
      "status": "active",
      "experimental": false,
      "date": "2021-04-06T11:29:26+00:00",
      "publisher": "User ID: 'HADFIELDR' User name: 'Ryan Hadfield' User skill set: 'T3'",
      "lastReviewDate": "2021-04-06",
      "contact": [ {
        "telecom": [ {
          "system": "phone",
          "value": "07777 888888"
        } ]
      } ],
      "subjectType": [ "Patient" ],
      "item": [ {
        "linkId": "59263",
        "prefix": "5",
        "text": "What is the reason for the contact?",
        "type": "choice",
        "required": true,
        "repeats": false,
        "option": [ {
          "valueString": "an injury or other health problem, Selected: false"
        }, {
          "valueString": "labour or childbirth, Selected: false"
        }, {
          "valueString": "a need to access another healthcare service, Selected: false"
        }, {
          "valueString": "a healthcare professional requesting contact with another clinician, Selected: false"
        }, {
          "valueString": "a report of results or tests, Selected: false"
        }, {
          "valueString": "a possible failure of contraception, Selected: false"
        }, {
          "valueString": "more, Selected: true"
        } ]
      } ]
    }
  }, {
    "fullUrl": "urn:uuid:bc5b011b-e6d8-419a-a02c-9852622006b2",
    "resource": {
      "resourceType": "QuestionnaireResponse",
      "id": "bc5b011b-e6d8-419a-a02c-9852622006b2",
      "identifier": {
        "value": "59263"
      },
      "questionnaire": {
        "reference": "urn:uuid:4b633c0a-9cef-48d8-8498-086de8210067"
      },
      "status": "completed",
      "subject": {
        "reference": "urn:uuid:bac4a0ed-5b3d-4349-ba90-7fcdf49dc512"
      },
      "context": {
        "reference": "urn:uuid:0d688b3d-9190-4d41-8770-9829e29617f4"
      },
      "authored": "2021-04-06T11:29:26+00:00",
      "item": [ {
        "linkId": "Tx221793",
        "text": "STRING:to'Social&information'-further'Callreason'menu",
        "answer": [ {
          "valueString": "\"present\""
        } ]
      } ]
    }
  }, {
    "fullUrl": "urn:uuid:4b633c0a-9cef-48d8-8498-086de8210067",
    "resource": {
      "resourceType": "Questionnaire",
      "id": "4b633c0a-9cef-48d8-8498-086de8210067",
      "identifier": [ {
        "value": "59263"
      } ],
      "version": "2021-04-06T11:29:26.887Z",
      "status": "active",
      "experimental": false,
      "date": "2021-04-06T11:29:26+00:00",
      "publisher": "User ID: 'HADFIELDR' User name: 'Ryan Hadfield' User skill set: 'T3'",
      "lastReviewDate": "2021-04-06",
      "contact": [ {
        "telecom": [ {
          "system": "phone",
          "value": "07777 888888"
        } ]
      } ],
      "subjectType": [ "Patient" ],
      "item": [ {
        "linkId": "59263",
        "prefix": "600",
        "text": "STRING:to'Social&information'-further'Callreason'menu",
        "type": "choice",
        "required": true,
        "repeats": false,
        "option": [ {
          "valueString": "\"present\", Selected: true"
        } ]
      } ]
    }
  }, {
    "fullUrl": "urn:uuid:33f68ec1-2a8c-43dd-b6a2-4fec48f2f54f",
    "resource": {
      "resourceType": "QuestionnaireResponse",
      "id": "33f68ec1-2a8c-43dd-b6a2-4fec48f2f54f",
      "identifier": {
        "value": "59263"
      },
      "questionnaire": {
        "reference": "urn:uuid:1d0d7f4f-c7e7-440d-b220-b8b2183e5da1"
      },
      "status": "completed",
      "subject": {
        "reference": "urn:uuid:bac4a0ed-5b3d-4349-ba90-7fcdf49dc512"
      },
      "context": {
        "reference": "urn:uuid:0d688b3d-9190-4d41-8770-9829e29617f4"
      },
      "authored": "2021-04-06T11:29:26+00:00"
    }
  }, {
    "fullUrl": "urn:uuid:1d0d7f4f-c7e7-440d-b220-b8b2183e5da1",
    "resource": {
      "resourceType": "Questionnaire",
      "id": "1d0d7f4f-c7e7-440d-b220-b8b2183e5da1",
      "identifier": [ {
        "value": "59263"
      } ],
      "version": "2021-04-06T11:29:26.887Z",
      "status": "active",
      "experimental": false,
      "date": "2021-04-06T11:29:26+00:00",
      "publisher": "User ID: 'HADFIELDR' User name: 'Ryan Hadfield' User skill set: 'T3'",
      "lastReviewDate": "2021-04-06",
      "contact": [ {
        "telecom": [ {
          "system": "phone",
          "value": "07777 888888"
        } ]
      } ],
      "subjectType": [ "Patient" ]
    }
  }, {
    "fullUrl": "urn:uuid:e09eca02-173b-427a-aaf9-b29eab29a7fd",
    "resource": {
      "resourceType": "QuestionnaireResponse",
      "id": "e09eca02-173b-427a-aaf9-b29eab29a7fd",
      "identifier": {
        "value": "59263"
      },
      "questionnaire": {
        "reference": "urn:uuid:55361159-0335-489d-a6fd-1b9dc8ae3078"
      },
      "status": "completed",
      "subject": {
        "reference": "urn:uuid:bac4a0ed-5b3d-4349-ba90-7fcdf49dc512"
      },
      "context": {
        "reference": "urn:uuid:0d688b3d-9190-4d41-8770-9829e29617f4"
      },
      "authored": "2021-04-06T11:29:26+00:00",
      "item": [ {
        "linkId": "Tx221804",
        "text": "STRING:transfertofurthermenuquestionestablishedinEntryFlow",
        "answer": [ {
          "valueString": "\"present\""
        } ]
      } ]
    }
  }, {
    "fullUrl": "urn:uuid:55361159-0335-489d-a6fd-1b9dc8ae3078",
    "resource": {
      "resourceType": "Questionnaire",
      "id": "55361159-0335-489d-a6fd-1b9dc8ae3078",
      "identifier": [ {
        "value": "59263"
      } ],
      "version": "2021-04-06T11:29:26.887Z",
      "status": "active",
      "experimental": false,
      "date": "2021-04-06T11:29:26+00:00",
      "publisher": "User ID: 'HADFIELDR' User name: 'Ryan Hadfield' User skill set: 'T3'",
      "lastReviewDate": "2021-04-06",
      "contact": [ {
        "telecom": [ {
          "system": "phone",
          "value": "07777 888888"
        } ]
      } ],
      "subjectType": [ "Patient" ],
      "item": [ {
        "linkId": "59263",
        "prefix": "41",
        "text": "STRING:transfertofurthermenuquestionestablishedinEntryFlow",
        "type": "choice",
        "required": true,
        "repeats": false,
        "option": [ {
          "valueString": "\"present\", Selected: true"
        } ]
      } ]
    }
  }, {
    "fullUrl": "urn:uuid:2c414295-1866-4c38-adee-b00e28214d62",
    "resource": {
      "resourceType": "QuestionnaireResponse",
      "id": "2c414295-1866-4c38-adee-b00e28214d62",
      "identifier": {
        "value": "59263"
      },
      "questionnaire": {
        "reference": "urn:uuid:764e4098-90e1-431b-a674-bdf21b0e62b5"
      },
      "status": "completed",
      "subject": {
        "reference": "urn:uuid:bac4a0ed-5b3d-4349-ba90-7fcdf49dc512"
      },
      "context": {
        "reference": "urn:uuid:0d688b3d-9190-4d41-8770-9829e29617f4"
      },
      "authored": "2021-04-06T11:29:26+00:00",
      "item": [ {
        "linkId": "Tx224998",
        "text": "SYSTEM_COVIDLEVEL2",
        "answer": [ {
          "valueString": "==\"covidlevel2\""
        } ]
      } ]
    }
  }, {
    "fullUrl": "urn:uuid:764e4098-90e1-431b-a674-bdf21b0e62b5",
    "resource": {
      "resourceType": "Questionnaire",
      "id": "764e4098-90e1-431b-a674-bdf21b0e62b5",
      "identifier": [ {
        "value": "59263"
      } ],
      "version": "2021-04-06T11:29:26.887Z",
      "status": "active",
      "experimental": false,
      "date": "2021-04-06T11:29:26+00:00",
      "publisher": "User ID: 'HADFIELDR' User name: 'Ryan Hadfield' User skill set: 'T3'",
      "lastReviewDate": "2021-04-06",
      "contact": [ {
        "telecom": [ {
          "system": "phone",
          "value": "07777 888888"
        } ]
      } ],
      "subjectType": [ "Patient" ],
      "item": [ {
        "linkId": "59263",
        "prefix": "5900",
        "text": "SYSTEM_COVIDLEVEL2",
        "type": "choice",
        "required": true,
        "repeats": false,
        "option": [ {
          "valueString": "==\"covidlevel2\", Selected: true"
        }, {
          "valueString": "*, Selected: false"
        } ]
      } ]
    }
  }, {
    "fullUrl": "urn:uuid:8e0b15b6-c4cd-471c-9316-9242c0d2d09d",
    "resource": {
      "resourceType": "QuestionnaireResponse",
      "id": "8e0b15b6-c4cd-471c-9316-9242c0d2d09d",
      "identifier": {
        "value": "59263"
      },
      "questionnaire": {
        "reference": "urn:uuid:de869ff3-5360-4d93-8ce1-015fe7b35092"
      },
      "status": "completed",
      "subject": {
        "reference": "urn:uuid:bac4a0ed-5b3d-4349-ba90-7fcdf49dc512"
      },
      "context": {
        "reference": "urn:uuid:0d688b3d-9190-4d41-8770-9829e29617f4"
      },
      "authored": "2021-04-06T11:29:26+00:00",
      "item": [ {
        "linkId": "Tx225069",
        "text": "What is the reason for the contact?",
        "answer": [ {
          "valueString": "a prescription request"
        } ]
      } ]
    }
  }, {
    "fullUrl": "urn:uuid:de869ff3-5360-4d93-8ce1-015fe7b35092",
    "resource": {
      "resourceType": "Questionnaire",
      "id": "de869ff3-5360-4d93-8ce1-015fe7b35092",
      "identifier": [ {
        "value": "59263"
      } ],
      "version": "2021-04-06T11:29:26.887Z",
      "status": "active",
      "experimental": false,
      "date": "2021-04-06T11:29:26+00:00",
      "publisher": "User ID: 'HADFIELDR' User name: 'Ryan Hadfield' User skill set: 'T3'",
      "lastReviewDate": "2021-04-06",
      "contact": [ {
        "telecom": [ {
          "system": "phone",
          "value": "07777 888888"
        } ]
      } ],
      "subjectType": [ "Patient" ],
      "item": [ {
        "linkId": "59263",
        "prefix": "6000",
        "text": "What is the reason for the contact?",
        "type": "choice",
        "required": true,
        "repeats": false,
        "option": [ {
          "valueString": "a child protection/vulnerable adult concern (specify), Selected: false"
        }, {
          "valueString": "a social or domestic emergency, Selected: false"
        }, {
          "valueString": "a prescription request, Selected: true"
        }, {
          "valueString": "an appointment request, Selected: false"
        }, {
          "valueString": "a request for health or medication information, Selected: false"
        }, {
          "valueString": "public health alert information, Selected: false"
        } ]
      } ]
    }
  }, {
    "fullUrl": "urn:uuid:c1b2917f-cbb2-4179-91d8-bdf65b9c5e27",
    "resource": {
      "resourceType": "QuestionnaireResponse",
      "id": "c1b2917f-cbb2-4179-91d8-bdf65b9c5e27",
      "identifier": {
        "value": "59263"
      },
      "questionnaire": {
        "reference": "urn:uuid:41b08928-7d4c-42bd-a8da-cfa2ab1a80dc"
      },
      "status": "completed",
      "subject": {
        "reference": "urn:uuid:bac4a0ed-5b3d-4349-ba90-7fcdf49dc512"
      },
      "context": {
        "reference": "urn:uuid:0d688b3d-9190-4d41-8770-9829e29617f4"
      },
      "authored": "2021-04-06T11:29:26+00:00",
      "item": [ {
        "linkId": "Tx220957",
        "text": "Is this contact about a new or worsening illness?",
        "answer": [ {
          "valueString": "no"
        } ]
      } ]
    }
  }, {
    "fullUrl": "urn:uuid:41b08928-7d4c-42bd-a8da-cfa2ab1a80dc",
    "resource": {
      "resourceType": "Questionnaire",
      "id": "41b08928-7d4c-42bd-a8da-cfa2ab1a80dc",
      "identifier": [ {
        "value": "59263"
      } ],
      "version": "2021-04-06T11:29:26.887Z",
      "status": "active",
      "experimental": false,
      "date": "2021-04-06T11:29:26+00:00",
      "publisher": "User ID: 'HADFIELDR' User name: 'Ryan Hadfield' User skill set: 'T3'",
      "lastReviewDate": "2021-04-06",
      "contact": [ {
        "telecom": [ {
          "system": "phone",
          "value": "07777 888888"
        } ]
      } ],
      "subjectType": [ "Patient" ],
      "item": [ {
        "linkId": "59263",
        "prefix": "1400",
        "text": "Is this contact about a new or worsening illness?",
        "type": "choice",
        "required": true,
        "repeats": false,
        "option": [ {
          "valueString": "yes, Selected: false"
        }, {
          "valueString": "not sure, Selected: false"
        }, {
          "valueString": "no, Selected: true"
        } ]
      } ]
    }
  }, {
    "fullUrl": "urn:uuid:dba56b65-f133-4c64-adbc-a2905b63a2c8",
    "resource": {
      "resourceType": "QuestionnaireResponse",
      "id": "dba56b65-f133-4c64-adbc-a2905b63a2c8",
      "identifier": {
        "value": "59263"
      },
      "questionnaire": {
        "reference": "urn:uuid:96ee4a3f-ce48-4913-af23-c64c853474c4"
      },
      "status": "completed",
      "subject": {
        "reference": "urn:uuid:bac4a0ed-5b3d-4349-ba90-7fcdf49dc512"
      },
      "context": {
        "reference": "urn:uuid:0d688b3d-9190-4d41-8770-9829e29617f4"
      },
      "authored": "2021-04-06T11:29:26+00:00",
      "item": [ {
        "linkId": "Tx221352",
        "text": "Have you got enough medication to last until the surgery opens?",
        "answer": [ {
          "valueString": "no"
        } ]
      } ]
    }
  }, {
    "fullUrl": "urn:uuid:96ee4a3f-ce48-4913-af23-c64c853474c4",
    "resource": {
      "resourceType": "Questionnaire",
      "id": "96ee4a3f-ce48-4913-af23-c64c853474c4",
      "identifier": [ {
        "value": "59263"
      } ],
      "version": "2021-04-06T11:29:26.887Z",
      "status": "active",
      "experimental": false,
      "date": "2021-04-06T11:29:26+00:00",
      "publisher": "User ID: 'HADFIELDR' User name: 'Ryan Hadfield' User skill set: 'T3'",
      "lastReviewDate": "2021-04-06",
      "contact": [ {
        "telecom": [ {
          "system": "phone",
          "value": "07777 888888"
        } ]
      } ],
      "subjectType": [ "Patient" ],
      "item": [ {
        "linkId": "59263",
        "prefix": "1500",
        "text": "Have you got enough medication to last until the surgery opens?",
        "type": "choice",
        "required": true,
        "repeats": false,
        "option": [ {
          "valueString": "yes, Selected: false"
        }, {
          "valueString": "not sure, Selected: false"
        }, {
          "valueString": "no, Selected: true"
        } ]
      } ]
    }
  }, {
    "fullUrl": "urn:uuid:82271ca3-4d11-4ce6-819e-6b84e5862829",
    "resource": {
      "resourceType": "QuestionnaireResponse",
      "id": "82271ca3-4d11-4ce6-819e-6b84e5862829",
      "identifier": {
        "value": "59263"
      },
      "questionnaire": {
        "reference": "urn:uuid:88f14d43-d46f-4ec8-a04c-03ae9ca39327"
      },
      "status": "completed",
      "subject": {
        "reference": "urn:uuid:bac4a0ed-5b3d-4349-ba90-7fcdf49dc512"
      },
      "context": {
        "reference": "urn:uuid:0d688b3d-9190-4d41-8770-9829e29617f4"
      },
      "authored": "2021-04-06T11:29:26+00:00"
    }
  }, {
    "fullUrl": "urn:uuid:88f14d43-d46f-4ec8-a04c-03ae9ca39327",
    "resource": {
      "resourceType": "Questionnaire",
      "id": "88f14d43-d46f-4ec8-a04c-03ae9ca39327",
      "identifier": [ {
        "value": "59263"
      } ],
      "version": "2021-04-06T11:29:26.887Z",
      "status": "active",
      "experimental": false,
      "date": "2021-04-06T11:29:26+00:00",
      "publisher": "User ID: 'HADFIELDR' User name: 'Ryan Hadfield' User skill set: 'T3'",
      "lastReviewDate": "2021-04-06",
      "contact": [ {
        "telecom": [ {
          "system": "phone",
          "value": "07777 888888"
        } ]
      } ],
      "subjectType": [ "Patient" ]
    }
  }, {
    "fullUrl": "urn:uuid:402b4675-98c1-4f37-bb8c-f80484f7735c",
    "resource": {
      "resourceType": "QuestionnaireResponse",
      "id": "402b4675-98c1-4f37-bb8c-f80484f7735c",
      "identifier": {
        "value": "59263"
      },
      "questionnaire": {
        "reference": "urn:uuid:952a1bea-839c-40b2-912d-4d9124a12c1b"
      },
      "status": "completed",
      "subject": {
        "reference": "urn:uuid:bac4a0ed-5b3d-4349-ba90-7fcdf49dc512"
      },
      "context": {
        "reference": "urn:uuid:0d688b3d-9190-4d41-8770-9829e29617f4"
      },
      "authored": "2021-04-06T11:29:26+00:00",
      "item": [ {
        "linkId": "Tx224231",
        "text": "FROM WHAT YOU HAVE HEARD IS A CONSULTATION WITH A PRESCRIBER NEEDED?",
        "answer": [ {
          "valueString": "no"
        } ]
      } ]
    }
  }, {
    "fullUrl": "urn:uuid:952a1bea-839c-40b2-912d-4d9124a12c1b",
    "resource": {
      "resourceType": "Questionnaire",
      "id": "952a1bea-839c-40b2-912d-4d9124a12c1b",
      "identifier": [ {
        "value": "59263"
      } ],
      "version": "2021-04-06T11:29:26.887Z",
      "status": "active",
      "experimental": false,
      "date": "2021-04-06T11:29:26+00:00",
      "publisher": "User ID: 'HADFIELDR' User name: 'Ryan Hadfield' User skill set: 'T3'",
      "lastReviewDate": "2021-04-06",
      "contact": [ {
        "telecom": [ {
          "system": "phone",
          "value": "07777 888888"
        } ]
      } ],
      "subjectType": [ "Patient" ],
      "item": [ {
        "linkId": "59263",
        "prefix": "0",
        "text": "FROM WHAT YOU HAVE HEARD IS A CONSULTATION WITH A PRESCRIBER NEEDED?",
        "type": "choice",
        "required": true,
        "repeats": false,
        "option": [ {
          "valueString": "yes, Selected: false"
        }, {
          "valueString": "not sure, Selected: false"
        }, {
          "valueString": "no, Selected: true"
        } ]
      } ]
    }
  }, {
    "fullUrl": "urn:uuid:dcff5c8d-d6c2-440b-9ad4-bf41acb57c2b",
    "resource": {
      "resourceType": "QuestionnaireResponse",
      "id": "dcff5c8d-d6c2-440b-9ad4-bf41acb57c2b",
      "identifier": {
        "value": "59263"
      },
      "questionnaire": {
        "reference": "urn:uuid:c7df7008-c50a-481c-954a-d17528927520"
      },
      "status": "completed",
      "subject": {
        "reference": "urn:uuid:bac4a0ed-5b3d-4349-ba90-7fcdf49dc512"
      },
      "context": {
        "reference": "urn:uuid:0d688b3d-9190-4d41-8770-9829e29617f4"
      },
      "authored": "2021-04-06T11:29:26+00:00",
      "item": [ {
        "linkId": "Tx222687",
        "text": "Have you got any of the medication available at the moment?",
        "answer": [ {
          "valueString": "no"
        } ]
      } ]
    }
  }, {
    "fullUrl": "urn:uuid:c7df7008-c50a-481c-954a-d17528927520",
    "resource": {
      "resourceType": "Questionnaire",
      "id": "c7df7008-c50a-481c-954a-d17528927520",
      "identifier": [ {
        "value": "59263"
      } ],
      "version": "2021-04-06T11:29:26.887Z",
      "status": "active",
      "experimental": false,
      "date": "2021-04-06T11:29:26+00:00",
      "publisher": "User ID: 'HADFIELDR' User name: 'Ryan Hadfield' User skill set: 'T3'",
      "lastReviewDate": "2021-04-06",
      "contact": [ {
        "telecom": [ {
          "system": "phone",
          "value": "07777 888888"
        } ]
      } ],
      "subjectType": [ "Patient" ],
      "item": [ {
        "linkId": "59263",
        "prefix": "200",
        "text": "Have you got any of the medication available at the moment?",
        "type": "choice",
        "required": true,
        "repeats": false,
        "option": [ {
          "valueString": "yes, Selected: false"
        }, {
          "valueString": "not sure, Selected: false"
        }, {
          "valueString": "no, Selected: true"
        } ]
      } ]
    }
  }, {
    "fullUrl": "urn:uuid:ff105f1d-d26b-4d84-abac-ab120fd75ad8",
    "resource": {
      "resourceType": "QuestionnaireResponse",
      "id": "ff105f1d-d26b-4d84-abac-ab120fd75ad8",
      "identifier": {
        "value": "59263"
      },
      "questionnaire": {
        "reference": "urn:uuid:a32faca8-ac8d-451f-b124-a88d6a264dfa"
      },
      "status": "completed",
      "subject": {
        "reference": "urn:uuid:bac4a0ed-5b3d-4349-ba90-7fcdf49dc512"
      },
      "context": {
        "reference": "urn:uuid:0d688b3d-9190-4d41-8770-9829e29617f4"
      },
      "authored": "2021-04-06T11:29:26+00:00",
      "item": [ {
        "linkId": "Tx221367",
        "text": "When is the next dose due?",
        "answer": [ {
          "valueString": "within the next 12 hours"
        } ]
      } ]
    }
  }, {
    "fullUrl": "urn:uuid:a32faca8-ac8d-451f-b124-a88d6a264dfa",
    "resource": {
      "resourceType": "Questionnaire",
      "id": "a32faca8-ac8d-451f-b124-a88d6a264dfa",
      "identifier": [ {
        "value": "59263"
      } ],
      "version": "2021-04-06T11:29:26.887Z",
      "status": "active",
      "experimental": false,
      "date": "2021-04-06T11:29:26+00:00",
      "publisher": "User ID: 'HADFIELDR' User name: 'Ryan Hadfield' User skill set: 'T3'",
      "lastReviewDate": "2021-04-06",
      "contact": [ {
        "telecom": [ {
          "system": "phone",
          "value": "07777 888888"
        } ]
      } ],
      "subjectType": [ "Patient" ],
      "item": [ {
        "linkId": "59263",
        "prefix": "100",
        "text": "When is the next dose due?",
        "type": "choice",
        "required": true,
        "repeats": false,
        "option": [ {
          "valueString": "within the next 2 hours, Selected: false"
        }, {
          "valueString": "within the next 6 hours, Selected: false"
        }, {
          "valueString": "within the next 12 hours, Selected: true"
        }, {
          "valueString": "over 12 hours time, Selected: false"
        }, {
          "valueString": "not sure, Selected: false"
        } ]
      } ]
    }
  }, {
    "fullUrl": "urn:uuid:5a534430-d8fb-4f4b-92f2-54b3ff5cdf0f",
    "resource": {
      "resourceType": "QuestionnaireResponse",
      "id": "5a534430-d8fb-4f4b-92f2-54b3ff5cdf0f",
      "identifier": {
        "value": "59263"
      },
      "questionnaire": {
        "reference": "urn:uuid:386a902b-7789-4fa2-abd2-a8353abe39f5"
      },
      "status": "completed",
      "subject": {
        "reference": "urn:uuid:bac4a0ed-5b3d-4349-ba90-7fcdf49dc512"
      },
      "context": {
        "reference": "urn:uuid:0d688b3d-9190-4d41-8770-9829e29617f4"
      },
      "authored": "2021-04-06T11:29:26+00:00",
      "item": [ {
        "linkId": "Tx223441",
        "text": "STRING:SDPCRepeatPrescription",
        "answer": [ {
          "valueString": "\"PC repeat prescription\""
        } ]
      } ]
    }
  }, {
    "fullUrl": "urn:uuid:386a902b-7789-4fa2-abd2-a8353abe39f5",
    "resource": {
      "resourceType": "Questionnaire",
      "id": "386a902b-7789-4fa2-abd2-a8353abe39f5",
      "identifier": [ {
        "value": "59263"
      } ],
      "version": "2021-04-06T11:29:26.887Z",
      "status": "active",
      "experimental": false,
      "date": "2021-04-06T11:29:26+00:00",
      "publisher": "User ID: 'HADFIELDR' User name: 'Ryan Hadfield' User skill set: 'T3'",
      "lastReviewDate": "2021-04-06",
      "contact": [ {
        "telecom": [ {
          "system": "phone",
          "value": "07777 888888"
        } ]
      } ],
      "subjectType": [ "Patient" ],
      "item": [ {
        "linkId": "59263",
        "prefix": "1200",
        "text": "STRING:SDPCRepeatPrescription",
        "type": "choice",
        "required": true,
        "repeats": false,
        "option": [ {
          "valueString": "\"PC repeat prescription\", Selected: true"
        } ]
      } ]
    }
  }, {
    "fullUrl": "urn:uuid:f1aaaf15-dc1c-4194-ab08-fe0f4516c359",
    "resource": {
      "resourceType": "QuestionnaireResponse",
      "id": "f1aaaf15-dc1c-4194-ab08-fe0f4516c359",
      "identifier": {
        "value": "59263"
      },
      "questionnaire": {
        "reference": "urn:uuid:3c59f051-4bcf-448d-98a4-5c0956334e63"
      },
      "status": "completed",
      "subject": {
        "reference": "urn:uuid:bac4a0ed-5b3d-4349-ba90-7fcdf49dc512"
      },
      "context": {
        "reference": "urn:uuid:0d688b3d-9190-4d41-8770-9829e29617f4"
      },
      "authored": "2021-04-06T11:29:26+00:00"
    }
  }, {
    "fullUrl": "urn:uuid:3c59f051-4bcf-448d-98a4-5c0956334e63",
    "resource": {
      "resourceType": "Questionnaire",
      "id": "3c59f051-4bcf-448d-98a4-5c0956334e63",
      "identifier": [ {
        "value": "59263"
      } ],
      "version": "2021-04-06T11:29:26.887Z",
      "status": "active",
      "experimental": false,
      "date": "2021-04-06T11:29:26+00:00",
      "publisher": "User ID: 'HADFIELDR' User name: 'Ryan Hadfield' User skill set: 'T3'",
      "lastReviewDate": "2021-04-06",
      "contact": [ {
        "telecom": [ {
          "system": "phone",
          "value": "07777 888888"
        } ]
      } ],
      "subjectType": [ "Patient" ]
    }
  }, {
    "fullUrl": "urn:uuid:57e75d20-0dfa-40d2-9749-94519f8bd2e7",
    "resource": {
      "resourceType": "QuestionnaireResponse",
      "id": "57e75d20-0dfa-40d2-9749-94519f8bd2e7",
      "identifier": {
        "value": "59263"
      },
      "questionnaire": {
        "reference": "urn:uuid:1ffaa093-076d-4dcb-828f-f15a8c9b0119"
      },
      "status": "completed",
      "subject": {
        "reference": "urn:uuid:bac4a0ed-5b3d-4349-ba90-7fcdf49dc512"
      },
      "context": {
        "reference": "urn:uuid:0d688b3d-9190-4d41-8770-9829e29617f4"
      },
      "authored": "2021-04-06T11:29:26+00:00"
    }
  }, {
    "fullUrl": "urn:uuid:1ffaa093-076d-4dcb-828f-f15a8c9b0119",
    "resource": {
      "resourceType": "Questionnaire",
      "id": "1ffaa093-076d-4dcb-828f-f15a8c9b0119",
      "identifier": [ {
        "value": "59263"
      } ],
      "version": "2021-04-06T11:29:26.887Z",
      "status": "active",
      "experimental": false,
      "date": "2021-04-06T11:29:26+00:00",
      "publisher": "User ID: 'HADFIELDR' User name: 'Ryan Hadfield' User skill set: 'T3'",
      "lastReviewDate": "2021-04-06",
      "contact": [ {
        "telecom": [ {
          "system": "phone",
          "value": "07777 888888"
        } ]
      } ],
      "subjectType": [ "Patient" ]
    }
  }, {
    "fullUrl": "urn:uuid:7ae2889a-db21-44d2-8190-8860a9881a67",
    "resource": {
      "resourceType": "Observation",
      "id": "7ae2889a-db21-44d2-8190-8860a9881a67",
      "status": "final",
      "code": {
        "coding": [ {
          "system": "http://snomed.info/sct",
          "code": "33962009",
          "display": "Presenting complaint"
        } ]
      },
      "subject": {
        "reference": "urn:uuid:bac4a0ed-5b3d-4349-ba90-7fcdf49dc512"
      },
      "context": {
        "reference": "urn:uuid:0d688b3d-9190-4d41-8770-9829e29617f4"
      },
      "valueString": "test"
    }
  }, {
    "fullUrl": "urn:uuid:44551f25-95ff-4632-91cd-65189a54459b",
    "resource": {
      "resourceType": "PractitionerRole",
      "id": "44551f25-95ff-4632-91cd-65189a54459b",
      "practitioner": {
        "reference": "urn:uuid:fbafbb2f-7a0e-4c59-833d-5c40cc1f9bc1"
      },
      "organization": {
        "reference": "urn:uuid:d8531df5-3bf7-4d1c-b0b9-5d3bdeac3691"
      },
      "code": [ {
        "coding": [ {
          "system": "2.16.840.1.113883.2.1.3.2.4.17.339",
          "code": "DOCTOR",
          "display": "Doctor"
        } ]
      } ]
    }
  }, {
    "fullUrl": "urn:uuid:d8531df5-3bf7-4d1c-b0b9-5d3bdeac3691",
    "resource": {
      "resourceType": "Organization",
      "id": "d8531df5-3bf7-4d1c-b0b9-5d3bdeac3691",
      "identifier": [ {
        "value": "RYE"
      } ],
      "name": "1.SCAS Administrator (SCAS111)"
    }
  }, {
    "fullUrl": "urn:uuid:708b55fc-e1ec-4a00-8ba2-99ad912a8f67",
    "resource": {
      "resourceType": "PractitionerRole",
      "id": "708b55fc-e1ec-4a00-8ba2-99ad912a8f67",
      "practitioner": {
        "reference": "urn:uuid:e01eb1c8-ed77-4377-91bd-66a0ae8800e0"
      },
      "organization": {
        "reference": "urn:uuid:84dc479a-5ec0-453a-ba2e-82391fa5b295"
      },
      "code": [ {
        "coding": [ {
          "system": "2.16.840.1.113883.2.1.3.2.4.17.196",
          "code": "R0010",
          "display": "Medical Director"
        } ]
      } ]
    }
  }, {
    "fullUrl": "urn:uuid:84dc479a-5ec0-453a-ba2e-82391fa5b295",
    "resource": {
      "resourceType": "Organization",
      "id": "84dc479a-5ec0-453a-ba2e-82391fa5b295",
      "identifier": [ {
        "value": "RYE"
      } ],
      "name": "SCAS111"
    }
  }, {
    "fullUrl": "urn:uuid:b1f019bc-cb13-47b7-a271-f49b101480a4",
    "resource": {
      "resourceType": "RelatedPerson",
      "id": "b1f019bc-cb13-47b7-a271-f49b101480a4",
      "patient": {
        "reference": "urn:uuid:bac4a0ed-5b3d-4349-ba90-7fcdf49dc512"
      },
      "relationship": {
        "coding": [ {
          "system": "http://hl7.org/fhir/v2/0131",
          "code": "C",
          "display": "Emergency Contact"
        } ]
      },
      "telecom": [ {
        "system": "phone",
        "value": "tel:000000000000"
      } ]
    }
  }, {
    "fullUrl": "urn:uuid:7c45bedc-b814-4ffe-92fe-9c00407767f9",
    "resource": {
      "resourceType": "Device",
      "id": "7c45bedc-b814-4ffe-92fe-9c00407767f9",
      "model": "111 Adaptor",
      "version": "1.0.1"
    }
  }, {
    "fullUrl": "urn:uuid:1e22c178-e767-4926-a0fe-36bf4bc94247",
    "resource": {
      "resourceType": "List",
      "id": "1e22c178-e767-4926-a0fe-36bf4bc94247",
      "status": "current",
      "mode": "working",
      "title": "111 Report List",
      "code": {
        "coding": [ {
          "system": "http://snomed.info/sct",
          "code": "225390008",
          "display": "Triage"
        } ]
      },
      "subject": {
        "reference": "urn:uuid:bac4a0ed-5b3d-4349-ba90-7fcdf49dc512"
      },
      "encounter": {
        "reference": "urn:uuid:0d688b3d-9190-4d41-8770-9829e29617f4"
      },
      "date": "2021-04-06T11:29:27+00:00",
      "source": {
        "reference": "urn:uuid:7c45bedc-b814-4ffe-92fe-9c00407767f9"
      },
      "orderedBy": {
        "coding": [ {
          "system": "http://hl7.org/fhir/list-order",
          "code": "event-date",
          "display": "Sorted by Event Date"
        } ]
      },
      "entry": [ {
        "item": {
          "reference": "urn:uuid:b8b44a5a-4926-41f0-b630-e019620d0b36"
        }
      }, {
        "item": {
          "reference": "urn:uuid:d8531df5-3bf7-4d1c-b0b9-5d3bdeac3691"
        }
      }, {
        "item": {
          "reference": "urn:uuid:7ae2889a-db21-44d2-8190-8860a9881a67"
        }
      }, {
        "item": {
          "reference": "urn:uuid:fbafbb2f-7a0e-4c59-833d-5c40cc1f9bc1"
        }
      }, {
        "item": {
          "reference": "urn:uuid:e01eb1c8-ed77-4377-91bd-66a0ae8800e0"
        }
      }, {
        "item": {
          "reference": "urn:uuid:36fb44bf-75db-4225-99c4-61259d10fa9f"
        }
      }, {
        "item": {
          "reference": "urn:uuid:84dc479a-5ec0-453a-ba2e-82391fa5b295"
        }
      }, {
        "item": {
          "reference": "urn:uuid:788a93cd-7282-4456-bb6b-36c958d64785"
        }
      }, {
        "item": {
          "reference": "urn:uuid:b1f019bc-cb13-47b7-a271-f49b101480a4"
        }
      }, {
        "item": {
          "reference": "urn:uuid:345103b0-b79c-463f-b1d8-b5ac39e51744"
        }
      }, {
        "item": {
          "reference": "urn:uuid:d5311e37-7e82-45c8-8f6d-5d146fbf8388"
        }
      }, {
        "item": {
          "reference": "urn:uuid:6cb6875f-bc4e-472c-8541-937c12b53e42"
        }
      }, {
        "item": {
          "reference": "urn:uuid:78a4b3b4-ec79-40c3-82bb-0eb07b82629b"
        }
      }, {
        "item": {
          "reference": "urn:uuid:7153287b-6fd5-4200-b2a5-edf0565abf9f"
        }
      }, {
        "item": {
          "reference": "urn:uuid:5692f9a8-eaf7-49ee-a75a-47332d52ff00"
        }
      }, {
        "item": {
          "reference": "urn:uuid:27c900c0-3033-4bdf-964b-e355db00e401"
        }
      }, {
        "item": {
          "reference": "urn:uuid:1bb32038-62e2-4b93-b023-c0461f874027"
        }
      }, {
        "item": {
          "reference": "urn:uuid:bc5b011b-e6d8-419a-a02c-9852622006b2"
        }
      }, {
        "item": {
          "reference": "urn:uuid:6b5eccbd-4e2b-4dd9-bccf-3f03f4a38db4"
        }
      }, {
        "item": {
          "reference": "urn:uuid:7a21de61-d469-4f63-b667-576615cfe7e8"
        }
      }, {
        "item": {
          "reference": "urn:uuid:57be3b3e-5720-48bc-a915-aa71ae91a26a"
        }
      }, {
        "item": {
          "reference": "urn:uuid:3e1f96fc-dc13-457e-bf1e-a4887c65fe62"
        }
      }, {
        "item": {
          "reference": "urn:uuid:ff105f1d-d26b-4d84-abac-ab120fd75ad8"
        }
      }, {
        "item": {
          "reference": "urn:uuid:296e59d5-bd41-4d5b-be3b-e64be1f16592"
        }
      }, {
        "item": {
          "reference": "urn:uuid:27fa0e7d-697a-4ee4-91c1-3019b0407345"
        }
      }, {
        "item": {
          "reference": "urn:uuid:a6a4a975-3185-452d-bfcc-3f1ba6292baa"
        }
      }, {
        "item": {
          "reference": "urn:uuid:c2199564-cd4b-4507-a212-f35cfd3eae04"
        }
      }, {
        "item": {
          "reference": "urn:uuid:57e4762e-3bfd-46e6-9847-97072fa893cc"
        }
      }, {
        "item": {
          "reference": "urn:uuid:f033847e-5a9c-402d-83ae-39dd9b4dfb89"
        }
      }, {
        "item": {
          "reference": "urn:uuid:8e0b15b6-c4cd-471c-9316-9242c0d2d09d"
        }
      }, {
        "item": {
          "reference": "urn:uuid:2b490787-65a4-4916-8511-e326e9feaef3"
        }
      }, {
        "item": {
          "reference": "urn:uuid:afe445c7-29b4-425e-ba39-0fc146f38701"
        }
      }, {
        "item": {
          "reference": "urn:uuid:88f14d43-d46f-4ec8-a04c-03ae9ca39327"
        }
      }, {
        "item": {
          "reference": "urn:uuid:b27492be-f752-49d9-8284-7009ad010341"
        }
      }, {
        "item": {
          "reference": "urn:uuid:20fe5f8c-c408-4d1a-af53-ba669dab970e"
        }
      }, {
        "item": {
          "reference": "urn:uuid:9a537e7c-58a5-4cd3-8ed1-20d1f32a1894"
        }
      }, {
        "item": {
          "reference": "urn:uuid:e09eca02-173b-427a-aaf9-b29eab29a7fd"
        }
      }, {
        "item": {
          "reference": "urn:uuid:4de38f9a-26d0-4eb7-8321-dec866dc2817"
        }
      }, {
        "item": {
          "reference": "urn:uuid:37209e6a-4f53-4782-828f-3665182265b6"
        }
      }, {
        "item": {
          "reference": "urn:uuid:ab0987e4-fe0c-42b1-8e00-d87a512345c5"
        }
      }, {
        "item": {
          "reference": "urn:uuid:5b7b08e7-0850-420e-8ebf-e05179b2861f"
        }
      }, {
        "item": {
          "reference": "urn:uuid:952a1bea-839c-40b2-912d-4d9124a12c1b"
        }
      }, {
        "item": {
          "reference": "urn:uuid:ef04b469-2f5a-4ae9-811c-ccc10907bc73"
        }
      }, {
        "item": {
          "reference": "urn:uuid:06fa1f22-7589-493e-95ff-06855d16e050"
        }
      }, {
        "item": {
          "reference": "urn:uuid:8d05617e-d769-41cf-aa73-b5bf50477ea2"
        }
      }, {
        "item": {
          "reference": "urn:uuid:1484fef3-0682-45df-ba55-6028907741ab"
        }
      }, {
        "item": {
          "reference": "urn:uuid:e96e58f0-4142-4489-af59-e56d087cff52"
        }
      }, {
        "item": {
          "reference": "urn:uuid:eca129e2-cc8d-4820-929b-9adc143d3aad"
        }
      }, {
        "item": {
          "reference": "urn:uuid:a1d19bb5-b6e4-454b-85e0-0aa5d0963931"
        }
      }, {
        "item": {
          "reference": "urn:uuid:a52735a5-5c13-4d23-b7b0-7eccdc711ef0"
        }
      }, {
        "item": {
          "reference": "urn:uuid:3c59f051-4bcf-448d-98a4-5c0956334e63"
        }
      }, {
        "item": {
          "reference": "urn:uuid:5c0137ae-dbd4-47ce-986d-9b26bda8f5b6"
        }
      }, {
        "item": {
          "reference": "urn:uuid:aa0e2888-f0f5-4957-ac45-b733fc00bdaf"
        }
      }, {
        "item": {
          "reference": "urn:uuid:2afe23df-39c2-4c5c-8b31-afa20d6638f8"
        }
      }, {
        "item": {
          "reference": "urn:uuid:85b2ee2b-f505-4371-b89d-e16ce766d019"
        }
      }, {
        "item": {
          "reference": "urn:uuid:bbdee695-ba8d-4c4a-87fc-c7608a3a4e03"
        }
      }, {
        "item": {
          "reference": "urn:uuid:cee59e0a-5ed8-4ecc-be5c-c6f834bddfc0"
        }
      }, {
        "item": {
          "reference": "urn:uuid:b7285114-ef1a-48be-a0eb-13137a12f9c2"
        }
      }, {
        "item": {
          "reference": "urn:uuid:6e3aa872-fcae-4662-8d15-197bc32cad6a"
        }
      }, {
        "item": {
          "reference": "urn:uuid:1d0d7f4f-c7e7-440d-b220-b8b2183e5da1"
        }
      }, {
        "item": {
          "reference": "urn:uuid:ae63f19f-f967-4784-9801-8ba1a524a827"
        }
      }, {
        "item": {
          "reference": "urn:uuid:39ab9a3b-384f-4bbd-9003-cbc99e32f795"
        }
      }, {
        "item": {
          "reference": "urn:uuid:33f68ec1-2a8c-43dd-b6a2-4fec48f2f54f"
        }
      }, {
        "item": {
          "reference": "urn:uuid:fbde9cd5-9c4b-4958-ba0c-af7848d57c85"
        }
      }, {
        "item": {
          "reference": "urn:uuid:b3ced847-b26d-4d81-8ec5-0c26bc0b54af"
        }
      }, {
        "item": {
          "reference": "urn:uuid:a32faca8-ac8d-451f-b124-a88d6a264dfa"
        }
      }, {
        "item": {
          "reference": "urn:uuid:b54c238d-43e4-4e76-ab1b-4a31b038e1cc"
        }
      }, {
        "item": {
          "reference": "urn:uuid:3d5191f3-532b-4905-ac53-6fd80d849c7f"
        }
      }, {
        "item": {
          "reference": "urn:uuid:c7df7008-c50a-481c-954a-d17528927520"
        }
      }, {
        "item": {
          "reference": "urn:uuid:67ba3ea1-3075-46b3-8219-6486edf32208"
        }
      }, {
        "item": {
          "reference": "urn:uuid:cd9f6809-aa6d-49f3-a002-09a8b5fc4b0a"
        }
      }, {
        "item": {
          "reference": "urn:uuid:50d067e6-49ee-49e3-8879-72ffc9a9b36c"
        }
      }, {
        "item": {
          "reference": "urn:uuid:f1aaaf15-dc1c-4194-ab08-fe0f4516c359"
        }
      }, {
        "item": {
          "reference": "urn:uuid:a6fb99f5-8215-4443-bf09-60acef0d62fc"
        }
      }, {
        "item": {
          "reference": "urn:uuid:41b08928-7d4c-42bd-a8da-cfa2ab1a80dc"
        }
      }, {
        "item": {
          "reference": "urn:uuid:a20ef035-f41d-4b9f-aadb-69b042e4ad66"
        }
      }, {
        "item": {
          "reference": "urn:uuid:c49807b5-90e8-454e-9038-0cb24be380f9"
        }
      }, {
        "item": {
          "reference": "urn:uuid:ea8ebe4f-83ab-405f-a8ec-3945108692db"
        }
      }, {
        "item": {
          "reference": "urn:uuid:ea937767-2f95-43ab-a66d-e8a6e89d0976"
        }
      }, {
        "item": {
          "reference": "urn:uuid:a5e246af-66ad-4f74-988e-b6448e3288e9"
        }
      }, {
        "item": {
          "reference": "urn:uuid:a6ab8f4a-aba9-4caa-b929-a75845427512"
        }
      }, {
        "item": {
          "reference": "urn:uuid:4c5d873a-4a8c-4338-9bc7-efa04cb296ec"
        }
      }, {
        "item": {
          "reference": "urn:uuid:44694dae-5ed8-4de7-8488-60e42341821e"
        }
      }, {
        "item": {
          "reference": "urn:uuid:86b1eac3-d0a6-4905-b0d0-edd757901814"
        }
      }, {
        "item": {
          "reference": "urn:uuid:75807203-3bfd-4b93-8474-40d9bfc8ea04"
        }
      }, {
        "item": {
          "reference": "urn:uuid:04227868-63e2-4e9d-b0eb-421147b82091"
        }
      }, {
        "item": {
          "reference": "urn:uuid:96ee4a3f-ce48-4913-af23-c64c853474c4"
        }
      }, {
        "item": {
          "reference": "urn:uuid:37b72948-a328-450a-b0b8-5823288dfe7e"
        }
      }, {
        "item": {
          "reference": "urn:uuid:98ba429d-e11b-48b2-aff2-502604a62c14"
        }
      }, {
        "item": {
          "reference": "urn:uuid:da5aa543-28c7-45ff-b042-7383660260a4"
        }
      }, {
        "item": {
          "reference": "urn:uuid:a0ce4778-8f1f-4a9d-b620-e71e4aea18f8"
        }
      }, {
        "item": {
          "reference": "urn:uuid:739ba913-d3c8-4cc6-bcb9-1089a05307d7"
        }
      }, {
        "item": {
          "reference": "urn:uuid:a925c4ff-ac3a-40ce-9943-689991ff5d8e"
        }
      }, {
        "item": {
          "reference": "urn:uuid:f4c3bb2b-1b9d-4735-b664-7a8080569335"
        }
      }, {
        "item": {
          "reference": "urn:uuid:386a902b-7789-4fa2-abd2-a8353abe39f5"
        }
      }, {
        "item": {
          "reference": "urn:uuid:4ad6da83-760b-4dc5-ae9a-637bf68cf4f3"
        }
      }, {
        "item": {
          "reference": "urn:uuid:000f4bc4-d59c-42f5-a74e-a043c9c8179f"
        }
      }, {
        "item": {
          "reference": "urn:uuid:1ffaa093-076d-4dcb-828f-f15a8c9b0119"
        }
      }, {
        "item": {
          "reference": "urn:uuid:3e207a72-7625-4dea-8737-341082ad7867"
        }
      }, {
        "item": {
          "reference": "urn:uuid:57e75d20-0dfa-40d2-9749-94519f8bd2e7"
        }
      }, {
        "item": {
          "reference": "urn:uuid:fe3f8e66-6b6d-4aa0-b3a1-2cff14ff2a5d"
        }
      }, {
        "item": {
          "reference": "urn:uuid:d0e49e7b-c7fe-4a01-841a-7a91cda4eaac"
        }
      }, {
        "item": {
          "reference": "urn:uuid:82271ca3-4d11-4ce6-819e-6b84e5862829"
        }
      }, {
        "item": {
          "reference": "urn:uuid:7eba9e7b-c247-4111-82c2-1add1ab1fab1"
        }
      }, {
        "item": {
          "reference": "urn:uuid:78675c25-2706-436c-a356-94cf8dc336f9"
        }
      }, {
        "item": {
          "reference": "urn:uuid:f317458a-d8c7-4e28-b363-64ffaa801d18"
        }
      }, {
        "item": {
          "reference": "urn:uuid:b56337c1-9a47-4c45-a321-c35ecea27c29"
        }
      }, {
        "item": {
          "reference": "urn:uuid:962fc7ca-2524-4d5f-8d87-fb472992c446"
        }
      }, {
        "item": {
          "reference": "urn:uuid:65258a85-7b88-404b-b948-da11ed8829e2"
        }
      }, {
        "item": {
          "reference": "urn:uuid:5309e041-d25e-477b-b3ab-2f0529c22f97"
        }
      }, {
        "item": {
          "reference": "urn:uuid:caead9fd-b8aa-4b55-a9b1-ab7726fda877"
        }
      }, {
        "item": {
          "reference": "urn:uuid:e0fda8b8-381a-4870-8606-b7bf940dd360"
        }
      }, {
        "item": {
          "reference": "urn:uuid:dba56b65-f133-4c64-adbc-a2905b63a2c8"
        }
      }, {
        "item": {
          "reference": "urn:uuid:768731cf-ff7e-4f42-b2fc-3325b2d82a79"
        }
      }, {
        "item": {
          "reference": "urn:uuid:f8c06d27-c856-4c4f-95e6-e9ca28e30ffa"
        }
      }, {
        "item": {
          "reference": "urn:uuid:a58019f0-5ef1-4236-b053-c9c796e46767"
        }
      }, {
        "item": {
          "reference": "urn:uuid:4b633c0a-9cef-48d8-8498-086de8210067"
        }
      }, {
        "item": {
          "reference": "urn:uuid:764e4098-90e1-431b-a674-bdf21b0e62b5"
        }
      }, {
        "item": {
          "reference": "urn:uuid:a6f7389e-5f25-4864-a7a1-264157b404e4"
        }
      }, {
        "item": {
          "reference": "urn:uuid:2e8ee0ee-631a-4d35-ac12-e3ef0c803c64"
        }
      }, {
        "item": {
          "reference": "urn:uuid:402b4675-98c1-4f37-bb8c-f80484f7735c"
        }
      }, {
        "item": {
          "reference": "urn:uuid:c240626f-33e5-47be-b5f9-59ec1c726dc3"
        }
      }, {
        "item": {
          "reference": "urn:uuid:55361159-0335-489d-a6fd-1b9dc8ae3078"
        }
      }, {
        "item": {
          "reference": "urn:uuid:2c414295-1866-4c38-adee-b00e28214d62"
        }
      }, {
        "item": {
          "reference": "urn:uuid:b526cf7d-841a-4c0d-ae77-05548d28504e"
        }
      }, {
        "item": {
          "reference": "urn:uuid:5a534430-d8fb-4f4b-92f2-54b3ff5cdf0f"
        }
      }, {
        "item": {
          "reference": "urn:uuid:9d83118e-f8fb-4f68-bf1f-1db98701029f"
        }
      }, {
        "item": {
          "reference": "urn:uuid:de869ff3-5360-4d93-8ce1-015fe7b35092"
        }
      }, {
        "item": {
          "reference": "urn:uuid:50bffb6c-dfa7-4a5e-8b2e-d11943926ea6"
        }
      }, {
        "item": {
          "reference": "urn:uuid:d3885ffe-1f56-4766-910a-a72a47d6b917"
        }
      }, {
        "item": {
          "reference": "urn:uuid:c1b2917f-cbb2-4179-91d8-bdf65b9c5e27"
        }
      }, {
        "item": {
          "reference": "urn:uuid:dcff5c8d-d6c2-440b-9ad4-bf41acb57c2b"
        }
      }, {
        "item": {
          "reference": "urn:uuid:6a8d088e-37e0-414b-8ad8-d8835e29a0fd"
        }
      } ]
    }
  } ]
}