{
  "resourceType": "Bundle",
  "identifier": {
    "type": {
      "text": "ClinicalDocument VersionNumber"
    },
    "value": "1"
  },
  "type": "message",
  "entry": [ {
    "fullUrl": "urn:uuid:2F182787-CA39-46F8-9B1C-8E77F3050067",
    "resource": {
      "resourceType": "MessageHeader",
      "id": "2F182787-CA39-46F8-9B1C-8E77F3050067",
      "event": {
        "system": "https://fhir.nhs.uk/STU3/CodeSystem/EventType-1",
        "code": "referral-1",
        "display": "Referral"
      },
      "destination": [ {
        "endpoint": "urn:nhs-uk:addressing:ods:FDH68RPX:DOSServiceID:2000038407"
      } ],
      "timestamp": "2021-04-06T11:29:27.000+00:00",
      "source": {
        "name": "NHS 111 Adaptor",
        "endpoint": "http://localhost:8080/report"
      },
      "reason": {
        "coding": [ {
          "system": "urn:nhs-itk:ns:201005:interaction",
          "code": "urn:nhs-itk:interaction:primaryOutofHourRecipientNHS111CDADocument-v2-0"
        } ]
      }
    }
  }, {
    "fullUrl": "urn:uuid:dc16d226-55b4-4c41-b8df-9239c6db9160",
    "resource": {
      "resourceType": "Encounter",
      "id": "dc16d226-55b4-4c41-b8df-9239c6db9160",
      "identifier": [ {
        "system": "2.16.840.1.113883.2.1.3.2.4.18.34",
        "value": "CAC4BF79-AF64-47E2-8162-53438279E2F9"
      }, {
        "system": "2.16.840.1.113883.2.1.3.2.4.18.35",
        "value": "59263"
      }, {
        "system": "2.16.840.1.113883.2.1.3.2.4.18.49",
        "value": "CAC4BF79-AF64-47E2-8162-53438279E2F9"
      } ],
      "status": "finished",
      "type": [ {
        "text": "111 Encounter Referral"
      } ],
      "subject": {
        "reference": "urn:uuid:9428c880-80e1-4619-81f3-f0f93e1bbb60"
      },
      "participant": [ {
        "type": [ {
          "coding": [ {
            "system": "http://hl7.org/fhir/ValueSet/encounter-participant-type",
            "code": "PPRF",
            "display": "Author"
          } ]
        } ],
        "individual": {
          "reference": "urn:uuid:719d44c8-9115-46ff-a386-0bf41b9c3757"
        }
      }, {
        "type": [ {
          "text": "Informant"
        } ],
        "individual": {
          "reference": "urn:uuid:ac323306-bb74-4647-b152-e1fabbd0eae7"
        }
      }, {
        "type": [ {
          "coding": [ {
            "system": "http://hl7.org/fhir/ValueSet/encounter-participant-type",
            "code": "ATND",
            "display": "Responsible Party"
          } ]
        } ],
        "individual": {
          "reference": "urn:uuid:808f84be-b2f2-4643-9f0a-abb8e3cb20fa"
        }
      } ],
      "period": {
        "start": "2021-04-06T11:29:27+00:00"
      },
      "location": [ {
        "location": {
          "reference": "urn:uuid:539de973-b03f-4314-9c34-c532ec7bdfe6"
        },
        "status": "completed"
      } ],
      "serviceProvider": {
        "reference": "urn:uuid:7d0e64d2-2554-4188-8f91-8ba41f6f3de5"
      }
    }
  }, {
    "fullUrl": "urn:uuid:7d0e64d2-2554-4188-8f91-8ba41f6f3de5",
    "resource": {
      "resourceType": "Organization",
      "id": "7d0e64d2-2554-4188-8f91-8ba41f6f3de5",
      "active": true,
      "type": [ {
        "text": "CST"
      } ],
      "name": "SCAS111"
    }
  }, {
    "fullUrl": "urn:uuid:719d44c8-9115-46ff-a386-0bf41b9c3757",
    "resource": {
      "resourceType": "Practitioner",
      "id": "719d44c8-9115-46ff-a386-0bf41b9c3757",
      "active": true,
      "name": [ {
        "use": "official",
        "family": "Hadfield",
        "given": [ "Ryan" ]
      } ]
    }
  }, {
    "fullUrl": "urn:uuid:ac323306-bb74-4647-b152-e1fabbd0eae7",
    "resource": {
      "resourceType": "RelatedPerson",
      "id": "ac323306-bb74-4647-b152-e1fabbd0eae7",
      "active": true,
      "patient": {
        "reference": "urn:uuid:9428c880-80e1-4619-81f3-f0f93e1bbb60"
      },
      "relationship": {
        "coding": [ {
          "system": "2.16.840.1.113883.2.1.3.2.4.16.45",
          "code": "99",
          "display": "Not specified"
        } ]
      },
      "name": [ {
        "text": "Test Caller (Carer - Home)"
      } ],
      "telecom": [ {
        "system": "phone",
        "value": "tel:07777888888",
        "use": "home"
      } ],
      "gender": "unknown"
    }
  }, {
    "fullUrl": "urn:uuid:808f84be-b2f2-4643-9f0a-abb8e3cb20fa",
    "resource": {
      "resourceType": "Practitioner",
      "id": "808f84be-b2f2-4643-9f0a-abb8e3cb20fa",
      "active": true,
      "name": [ {
        "use": "official",
        "family": "Black",
        "given": [ "John" ]
      } ]
    }
  }, {
    "fullUrl": "urn:uuid:539de973-b03f-4314-9c34-c532ec7bdfe6",
    "resource": {
      "resourceType": "Location",
      "id": "539de973-b03f-4314-9c34-c532ec7bdfe6",
      "name": "Incident Location",
      "address": {
        "type": "physical",
        "line": [ "12A", "Otter Close", "Bishopstoke", "Eastleigh", "Hampshire" ],
        "postalCode": "SO50 8NF"
      }
    }
  }, {
    "fullUrl": "urn:uuid:9428c880-80e1-4619-81f3-f0f93e1bbb60",
    "resource": {
      "resourceType": "Patient",
      "id": "9428c880-80e1-4619-81f3-f0f93e1bbb60",
      "identifier": [ {
        "extension": [ {
          "url": "https://fhir.hl7.org.uk/STU3/StructureDefinition/Extension-CareConnect-NHSNumberVerificationStatus-1",
          "valueCodeableConcept": {
            "coding": [ {
              "system": "https://fhir.hl7.org.uk/STU3/StructureDefinition/Extension-CareConnect-NHSNumberVerificationStatus-1",
              "code": "02"
            } ]
          }
        } ],
        "system": "https://fhir.nhs.uk/Id/nhs-number",
        "value": "0000000000"
      } ],
      "active": true,
      "name": [ {
        "use": "official",
        "family": "Testone",
        "given": [ "Test" ]
      } ],
      "telecom": [ {
        "system": "phone",
        "value": "tel:000000000000",
        "use": "home"
      }, {
        "system": "phone",
        "value": "tel:01111111111",
        "use": "mobile"
      }, {
        "system": "phone",
        "value": "tel:000000000000"
      } ],
      "gender": "female",
      "birthDate": "1980-01-01",
      "address": [ {
        "use": "home",
        "line": [ "Southern House", "Sparrowgrove", "Otterbourne", "Winchester", "Hampshire" ],
        "postalCode": "SO21 2RU"
      }, {
        "type": "physical",
        "line": [ "12A", "Otter Close", "Bishopstoke", "Eastleigh", "Hampshire" ],
        "postalCode": "SO50 8NF"
      } ]
    }
  }, {
    "fullUrl": "urn:uuid:c8220c12-f25c-45a9-b34c-815193da00fc",
    "resource": {
      "resourceType": "HealthcareService",
      "id": "c8220c12-f25c-45a9-b34c-815193da00fc",
      "active": true,
      "providedBy": {
        "reference": "urn:uuid:d0781df2-4180-4499-81f1-b494fe6f8d90"
      },
      "location": [ {
        "reference": "urn:uuid:396d952c-eeea-4e0b-9486-ee8ffdda3600"
      } ],
      "name": "Lloyds Pharmacy, Stokewood Close, Fair Oak, Eastleigh"
    }
  }, {
    "fullUrl": "urn:uuid:396d952c-eeea-4e0b-9486-ee8ffdda3600",
    "resource": {
      "resourceType": "Location",
      "id": "396d952c-eeea-4e0b-9486-ee8ffdda3600",
      "managingOrganization": {
        "reference": "urn:uuid:d0781df2-4180-4499-81f1-b494fe6f8d90"
      }
    }
  }, {
    "fullUrl": "urn:uuid:d0781df2-4180-4499-81f1-b494fe6f8d90",
    "resource": {
      "resourceType": "Organization",
      "id": "d0781df2-4180-4499-81f1-b494fe6f8d90",
      "identifier": [ {
        "value": "FDH68RPX"
      } ],
      "type": [ {
        "coding": [ {
          "code": "PRCP",
          "display": "Lloyds Pharmacy, Stokewood Close, Fair Oak, Eastleigh"
        } ]
      } ],
      "name": "Lloyds Pharmacy, Stokewood Close, Fair Oak, Eastleigh"
    }
  }, {
    "fullUrl": "urn:uuid:48dae028-d7cd-4be9-9a15-b253ae8930a2",
    "resource": {
      "resourceType": "ReferralRequest",
      "id": "48dae028-d7cd-4be9-9a15-b253ae8930a2",
      "status": "active",
      "intent": "plan",
      "priority": "routine",
      "subject": {
        "reference": "urn:uuid:9428c880-80e1-4619-81f3-f0f93e1bbb60"
      },
      "context": {
        "reference": "urn:uuid:dc16d226-55b4-4c41-b8df-9239c6db9160"
      },
      "occurrencePeriod": {
        "start": "2021-09-14T09:23:25+00:00",
        "end": "2021-09-14T10:23:25+00:00"
      },
      "authoredOn": "2021-04-06T11:29:25+00:00",
      "requester": {
        "agent": {
          "reference": "urn:uuid:017f7ea8-f107-44ab-a024-fbb17ec3b748"
        },
        "onBehalfOf": {
          "reference": "urn:uuid:7d0e64d2-2554-4188-8f91-8ba41f6f3de5"
        }
      },
      "recipient": [ {
        "reference": "urn:uuid:c8220c12-f25c-45a9-b34c-815193da00fc"
      } ],
      "reasonReference": [ {
        "reference": "urn:uuid:66d4023a-1ece-401e-84a6-706532c1d6c7"
      } ],
      "supportingInfo": [ {
        "reference": "urn:uuid:5ecdfe1e-e038-47f5-9405-cd51dd8fb382"
      } ]
    }
  }, {
    "fullUrl": "urn:uuid:5ecdfe1e-e038-47f5-9405-cd51dd8fb382",
    "resource": {
      "resourceType": "ProcedureRequest",
      "id": "5ecdfe1e-e038-47f5-9405-cd51dd8fb382",
      "status": "active",
      "intent": "plan",
      "priority": "routine",
      "doNotPerform": false,
      "code": {
        "coding": [ {
          "system": "2.16.840.1.113883.2.1.3.2.4.17.325",
          "code": "Dx86",
          "display": "Repeat Prescription required within 12 hours"
        } ]
      },
      "subject": {
        "reference": "urn:uuid:9428c880-80e1-4619-81f3-f0f93e1bbb60"
      },
      "occurrencePeriod": {
        "start": "2021-09-14T09:23:25+00:00",
        "end": "2021-09-14T10:23:25+00:00"
      },
      "reasonReference": [ {
        "reference": "urn:uuid:66d4023a-1ece-401e-84a6-706532c1d6c7"
      } ]
    }
  }, {
    "fullUrl": "urn:uuid:653ed9b4-e22b-4444-998a-1521801eac33",
    "resource": {
      "resourceType": "Composition",
      "id": "653ed9b4-e22b-4444-998a-1521801eac33",
      "identifier": {
        "use": "usual",
        "value": "B66502CD-A9B4-4F3E-83EB-981F572C2C91"
      },
      "status": "final",
      "type": {
        "coding": [ {
          "system": "http://snomed.info/sct",
          "code": "371531000",
          "display": "Report of clinical encounter (record artifact)"
        } ]
      },
      "subject": {
        "reference": "urn:uuid:9428c880-80e1-4619-81f3-f0f93e1bbb60"
      },
      "encounter": {
        "reference": "urn:uuid:dc16d226-55b4-4c41-b8df-9239c6db9160"
      },
      "date": "2021-09-14T09:23:25+00:00",
      "author": [ {
        "reference": "urn:uuid:719d44c8-9115-46ff-a386-0bf41b9c3757"
      } ],
      "title": "111 Report",
      "confidentiality": "N",
      "section": [ {
        "section": [ {
          "title": "Patient's Reported Condition",
          "text": {
            "status": "generated",
            "div": "<div xmlns=\"http://www.w3.org/1999/xhtml\">&lt;xml-fragment xmlns:npfitlc=&quot;NPFIT:HL7:Localisation&quot; xmlns:xsi=&quot;http://www.w3.org/2001/XMLSchema-instance&quot;&gt;\n                                                    &lt;urn:content xmlns:urn=&quot;urn:hl7-org:v3&quot;&gt;test&lt;/urn:content&gt;\n                                                    &lt;urn:br xmlns:urn=&quot;urn:hl7-org:v3&quot;/&gt;\n                                                &lt;/xml-fragment&gt;</div>"
          }
        }, {
          "title": "Pathways Disposition",
          "text": {
            "status": "generated",
            "div": "<div xmlns=\"http://www.w3.org/1999/xhtml\">&lt;xml-fragment xmlns:xsi=&quot;http://www.w3.org/2001/XMLSchema-instance&quot;&gt;Repeat Prescription required within 12 hours (Dx86)                                         &lt;urn:br xmlns:urn=&quot;urn:hl7-org:v3&quot;/&gt;\n                                                    &lt;urn:br xmlns:urn=&quot;urn:hl7-org:v3&quot;/&gt;                                         Selected service: Lloyds Pharmacy, Stokewood Close, Fair Oak, Eastle&lt;urn:br xmlns:urn=&quot;urn:hl7-org:v3&quot;/&gt;\n                                                &lt;/xml-fragment&gt;</div>"
          }
        }, {
          "title": "Consultation Summary",
          "text": {
            "status": "generated",
            "div": "<div xmlns=\"http://www.w3.org/1999/xhtml\">&lt;xml-fragment xmlns:xsi=&quot;http://www.w3.org/2001/XMLSchema-instance&quot;&gt;Prescription request&lt;urn:br xmlns:urn=&quot;urn:hl7-org:v3&quot;/&gt;Not enough medication until surgery opens&lt;urn:br xmlns:urn=&quot;urn:hl7-org:v3&quot;/&gt;No medication available&lt;urn:br xmlns:urn=&quot;urn:hl7-org:v3&quot;/&gt;Next dose due within next 12 hours&lt;urn:br xmlns:urn=&quot;urn:hl7-org:v3&quot;/&gt;\n                                                &lt;/xml-fragment&gt;</div>"
          }
        }, {
          "title": "Pathways Assessment",
          "text": {
            "status": "generated",
            "div": "<div xmlns=\"http://www.w3.org/1999/xhtml\">&lt;xml-fragment xmlns:xsi=&quot;http://www.w3.org/2001/XMLSchema-instance&quot;&gt;Reason for call menu - continued to next list.&lt;urn:br xmlns:urn=&quot;urn:hl7-org:v3&quot;/&gt;A prescription request was the main reason for the contact.&lt;urn:br xmlns:urn=&quot;urn:hl7-org:v3&quot;/&gt;The main reason for the contact was not a new or worsening illness.&lt;urn:br xmlns:urn=&quot;urn:hl7-org:v3&quot;/&gt;The individual did not have enough medication to last until the surgery next opened.&lt;urn:br xmlns:urn=&quot;urn:hl7-org:v3&quot;/&gt;The medication was suitable for repeat prescribing without further consultation.&lt;urn:br xmlns:urn=&quot;urn:hl7-org:v3&quot;/&gt;The individual had no medication available.&lt;urn:br xmlns:urn=&quot;urn:hl7-org:v3&quot;/&gt;The next dose was due within 12 hours.&lt;urn:br xmlns:urn=&quot;urn:hl7-org:v3&quot;/&gt;Instructions given were: The individual needs a repeat prescription.&lt;urn:br xmlns:urn=&quot;urn:hl7-org:v3&quot;/&gt;Directory of Services referral: Lloyds Pharmacy, Stokewood Close, Fair Oak, Eastleigh&lt;urn:br xmlns:urn=&quot;urn:hl7-org:v3&quot;/&gt;\n                                                &lt;/xml-fragment&gt;</div>"
          }
        }, {
          "title": "Advice Given",
          "text": {
            "status": "generated",
            "div": "<div xmlns=\"http://www.w3.org/1999/xhtml\">&lt;xml-fragment xmlns:xsi=&quot;http://www.w3.org/2001/XMLSchema-instance&quot;&gt;IF THE RECOMMENDED TIMEFRAME FALLS OUTSIDE OPENING HOURS: I will arrange for a clinician to speak to the individual.&lt;urn:br xmlns:urn=&quot;urn:hl7-org:v3&quot;/&gt;\n                                                    &lt;urn:br xmlns:urn=&quot;urn:hl7-org:v3&quot;/&gt;\n                                                &lt;/xml-fragment&gt;</div>"
          }
        }, {
          "title": "Information And Advice Given",
          "text": {
            "status": "generated",
            "div": "<div xmlns=\"http://www.w3.org/1999/xhtml\">&lt;xml-fragment xmlns:npfitlc=&quot;NPFIT:HL7:Localisation&quot; xmlns:xsi=&quot;http://www.w3.org/2001/XMLSchema-instance&quot;/&gt;</div>"
          }
        }, {
          "title": "Disposition",
          "text": {
            "status": "generated",
            "div": "<div xmlns=\"http://www.w3.org/1999/xhtml\">&lt;xml-fragment xmlns:npfitlc=&quot;NPFIT:HL7:Localisation&quot; xmlns:xsi=&quot;http://www.w3.org/2001/XMLSchema-instance&quot;&gt;\n                                                    &lt;urn:content xmlns:urn=&quot;urn:hl7-org:v3&quot;&gt;Repeat Prescription required within 12 hours&lt;urn:br/&gt;\n                                                    &lt;/urn:content&gt;\n                                                    &lt;urn:br xmlns:urn=&quot;urn:hl7-org:v3&quot;/&gt;\n                                                    &lt;urn:br xmlns:urn=&quot;urn:hl7-org:v3&quot;/&gt;\n                                                &lt;/xml-fragment&gt;</div>"
          }
        } ]
      }, {
        "title": "CarePlan",
        "entry": [ {
          "reference": "urn:uuid:2384dd2a-35c7-46c7-bc0f-ac5a12ae51db"
        } ]
      }, {
        "title": "ReferralRequest",
        "entry": [ {
          "reference": "urn:uuid:48dae028-d7cd-4be9-9a15-b253ae8930a2"
        } ]
      }, {
        "title": "QuestionnaireResponse",
        "entry": [ {
          "reference": "urn:uuid:dc017e64-5174-4fc9-9874-2f2e8c680924"
        } ]
      }, {
        "title": "QuestionnaireResponse",
        "entry": [ {
          "reference": "urn:uuid:92f76d05-b2f2-40bb-9aa8-45fd44b0fa78"
        } ]
      }, {
        "title": "QuestionnaireResponse",
        "entry": [ {
          "reference": "urn:uuid:1ba14c7f-2e65-49e6-aa15-c60078cf9516"
        } ]
      }, {
        "title": "QuestionnaireResponse",
        "entry": [ {
          "reference": "urn:uuid:4a9f5e3f-f82b-44a5-81fc-03a1c8fc47df"
        } ]
      }, {
        "title": "QuestionnaireResponse",
        "entry": [ {
          "reference": "urn:uuid:5201ba89-e3dd-4f4d-9100-ada4cd29ca75"
        } ]
      }, {
        "title": "QuestionnaireResponse",
        "entry": [ {
          "reference": "urn:uuid:632ea59f-f415-4f0d-ac00-f8a2c2a5f854"
        } ]
      }, {
        "title": "QuestionnaireResponse",
        "entry": [ {
          "reference": "urn:uuid:2b93f5c4-24d4-4dff-9a60-820d81c2fb65"
        } ]
      }, {
        "title": "QuestionnaireResponse",
        "entry": [ {
          "reference": "urn:uuid:fd8d09ac-e90a-483d-b03d-75e244e2d3e2"
        } ]
      }, {
        "title": "QuestionnaireResponse",
        "entry": [ {
          "reference": "urn:uuid:bd4a9697-717b-4d79-aec7-c9d4b2428464"
        } ]
      }, {
        "title": "QuestionnaireResponse",
        "entry": [ {
          "reference": "urn:uuid:3851d04d-868c-48a2-a465-82beeac5922c"
        } ]
      }, {
        "title": "QuestionnaireResponse",
        "entry": [ {
          "reference": "urn:uuid:44941cb2-c383-42aa-9f0d-149ec4186734"
        } ]
      }, {
        "title": "QuestionnaireResponse",
        "entry": [ {
          "reference": "urn:uuid:cf2f3700-7944-4dd0-ab11-4980593bd3f9"
        } ]
      }, {
        "title": "QuestionnaireResponse",
        "entry": [ {
          "reference": "urn:uuid:795bcc2a-3eb4-4ce1-b1e3-e5016de55a94"
        } ]
      }, {
        "title": "QuestionnaireResponse",
        "entry": [ {
          "reference": "urn:uuid:eef75075-af75-49fb-9d17-a30969f3410d"
        } ]
      }, {
        "title": "QuestionnaireResponse",
        "entry": [ {
          "reference": "urn:uuid:3d85e81b-d8a6-4d47-bc07-ac22ef711c0c"
        } ]
      }, {
        "title": "QuestionnaireResponse",
        "entry": [ {
          "reference": "urn:uuid:e67d92cb-1fa9-4854-90eb-7e30320222ed"
        } ]
      }, {
        "title": "QuestionnaireResponse",
        "entry": [ {
          "reference": "urn:uuid:7baae512-f049-4a4c-a415-f3d4b222fafc"
        } ]
      }, {
        "title": "QuestionnaireResponse",
        "entry": [ {
          "reference": "urn:uuid:3a09df74-f8e0-4443-bcb1-e322d6a21eae"
        } ]
      }, {
        "title": "QuestionnaireResponse",
        "entry": [ {
          "reference": "urn:uuid:e38a8ba7-a134-429e-bbee-5f2f1936f2ec"
        } ]
      }, {
        "title": "QuestionnaireResponse",
        "entry": [ {
          "reference": "urn:uuid:8464e723-1409-4c2c-9b7c-d373ceeeb7b9"
        } ]
      }, {
        "title": "QuestionnaireResponse",
        "entry": [ {
          "reference": "urn:uuid:d9c4fe7b-d3d8-4e8a-9c7b-d48f6c24a94b"
        } ]
      }, {
        "title": "QuestionnaireResponse",
        "entry": [ {
          "reference": "urn:uuid:53bddc0f-eb8b-450e-be05-1ca8227e6df4"
        } ]
      }, {
        "title": "QuestionnaireResponse",
        "entry": [ {
          "reference": "urn:uuid:2524178f-4407-4c5d-857e-1f78843eed1c"
        } ]
      }, {
        "title": "QuestionnaireResponse",
        "entry": [ {
          "reference": "urn:uuid:2fa1b4de-2b9e-48d5-8ab7-4bf853ccc9ce"
        } ]
      }, {
        "title": "QuestionnaireResponse",
        "entry": [ {
          "reference": "urn:uuid:fe9ccbce-0497-4bdc-af9a-6dfc0a968ba8"
        } ]
      }, {
        "title": "QuestionnaireResponse",
        "entry": [ {
          "reference": "urn:uuid:90a25095-9457-4f73-a10c-4c126742f69c"
        } ]
      }, {
        "title": "QuestionnaireResponse",
        "entry": [ {
          "reference": "urn:uuid:39e3ba45-c9c7-4b30-8d8f-efd2909fdfa4"
        } ]
      }, {
        "title": "QuestionnaireResponse",
        "entry": [ {
          "reference": "urn:uuid:96f92a1b-16e1-4b06-8e3c-027cbf9afe5a"
        } ]
      }, {
        "title": "QuestionnaireResponse",
        "entry": [ {
          "reference": "urn:uuid:691ab886-6996-4a6f-95b6-3ba15f3eeb6e"
        } ]
      }, {
        "title": "QuestionnaireResponse",
        "entry": [ {
          "reference": "urn:uuid:4d983a5d-61e7-4867-b5dd-4660e6a0ea74"
        } ]
      }, {
        "title": "QuestionnaireResponse",
        "entry": [ {
          "reference": "urn:uuid:3b594bea-7d79-4b02-8e9c-887832c28897"
        } ]
      }, {
        "title": "QuestionnaireResponse",
        "entry": [ {
          "reference": "urn:uuid:99b9cd8a-d0d4-4f67-852a-eee50de3716d"
        } ]
      }, {
        "title": "QuestionnaireResponse",
        "entry": [ {
          "reference": "urn:uuid:84011ace-747e-4902-914e-175ce22e995d"
        } ]
      }, {
        "title": "QuestionnaireResponse",
        "entry": [ {
          "reference": "urn:uuid:b52d751c-8ea8-42cf-814b-1844c288385e"
        } ]
      }, {
        "title": "QuestionnaireResponse",
        "entry": [ {
          "reference": "urn:uuid:3fd5f749-9acc-47de-9db1-bde27458a211"
        } ]
      }, {
        "title": "QuestionnaireResponse",
        "entry": [ {
          "reference": "urn:uuid:4890c3b9-892c-4169-b6d4-7e7eb31c70dc"
        } ]
      }, {
        "title": "QuestionnaireResponse",
        "entry": [ {
          "reference": "urn:uuid:2bb328e9-ce86-44bc-83d0-83d00b4fdba6"
        } ]
      }, {
        "title": "QuestionnaireResponse",
        "entry": [ {
          "reference": "urn:uuid:4f548886-33fc-47dc-80a4-7d061834ece2"
        } ]
      }, {
        "title": "QuestionnaireResponse",
        "entry": [ {
          "reference": "urn:uuid:c9704d13-aa6c-4aca-9f8c-a4cc106be569"
        } ]
      }, {
        "title": "QuestionnaireResponse",
        "entry": [ {
          "reference": "urn:uuid:35103f0f-d3f0-4b32-a176-703d47e39fe2"
        } ]
      }, {
        "title": "QuestionnaireResponse",
        "entry": [ {
          "reference": "urn:uuid:5cfda7a6-f16b-48d3-a9d6-9a8ffaac1276"
        } ]
      }, {
        "title": "QuestionnaireResponse",
        "entry": [ {
          "reference": "urn:uuid:37e98fcc-66b0-48a8-b472-e2bb24fb3ad4"
        } ]
      }, {
        "title": "QuestionnaireResponse",
        "entry": [ {
          "reference": "urn:uuid:e44841aa-39ce-4478-bd49-38653718052f"
        } ]
      }, {
        "title": "QuestionnaireResponse",
        "entry": [ {
          "reference": "urn:uuid:34fed9d9-3176-4c9c-aba3-946296676f91"
        } ]
      }, {
        "title": "QuestionnaireResponse",
        "entry": [ {
          "reference": "urn:uuid:379d0c76-f7d8-40fa-a061-c16052f060e2"
        } ]
      }, {
        "title": "QuestionnaireResponse",
        "entry": [ {
          "reference": "urn:uuid:1acb0d9c-0f42-4395-8640-bc112ccdeeae"
        } ]
      }, {
        "title": "QuestionnaireResponse",
        "entry": [ {
          "reference": "urn:uuid:2b1c020f-9878-436a-af1d-cdc3edcb3db2"
        } ]
      }, {
        "title": "QuestionnaireResponse",
        "entry": [ {
          "reference": "urn:uuid:b5d8d257-45ad-4dfe-8fe4-171a31c00fe9"
        } ]
      }, {
        "title": "QuestionnaireResponse",
        "entry": [ {
          "reference": "urn:uuid:77d18322-e46c-4b1d-821b-a09263989cb1"
        } ]
      }, {
        "title": "QuestionnaireResponse",
        "entry": [ {
          "reference": "urn:uuid:6b5c452a-5f75-4cb7-be1b-86f4441e4783"
        } ]
      }, {
        "title": "QuestionnaireResponse",
        "entry": [ {
          "reference": "urn:uuid:257f293f-e3e0-4c1b-be54-8bc1b2c17310"
        } ]
      }, {
        "title": "QuestionnaireResponse",
        "entry": [ {
          "reference": "urn:uuid:127db0e6-1f45-45aa-9119-c320fa2a7779"
        } ]
      }, {
        "title": "QuestionnaireResponse",
        "entry": [ {
          "reference": "urn:uuid:2b897e5b-51cd-455f-b800-d421e8012b59"
        } ]
      }, {
        "title": "QuestionnaireResponse",
        "entry": [ {
          "reference": "urn:uuid:08b4b3cc-cc57-4b2e-95b0-c0a0bbac99dc"
        } ]
      }, {
        "title": "QuestionnaireResponse",
        "entry": [ {
          "reference": "urn:uuid:e25d910d-6f13-4926-b9cf-05bc122418e5"
        } ]
      }, {
        "title": "QuestionnaireResponse",
        "entry": [ {
          "reference": "urn:uuid:82310273-7e17-4392-a32d-3c1f09df9803"
        } ]
      }, {
        "title": "QuestionnaireResponse",
        "entry": [ {
          "reference": "urn:uuid:52f43296-83a7-4e8d-816c-031d76a46361"
        } ]
      }, {
        "title": "QuestionnaireResponse",
        "entry": [ {
          "reference": "urn:uuid:d04f5e33-d4e7-4235-8cbc-ef8b805b20ed"
        } ]
      }, {
        "title": "QuestionnaireResponse",
        "entry": [ {
          "reference": "urn:uuid:397332d6-fa79-49cc-8467-61e56b53276d"
        } ]
      }, {
        "title": "QuestionnaireResponse",
        "entry": [ {
          "reference": "urn:uuid:087e0d28-98dc-4f7d-bf4c-4fff25a156ea"
        } ]
      }, {
        "title": "QuestionnaireResponse",
        "entry": [ {
          "reference": "urn:uuid:252d36bf-b482-4251-9339-4e5aed1c6695"
        } ]
      } ]
    }
  }, {
    "fullUrl": "urn:uuid:2384dd2a-35c7-46c7-bc0f-ac5a12ae51db",
    "resource": {
      "resourceType": "CarePlan",
      "id": "2384dd2a-35c7-46c7-bc0f-ac5a12ae51db",
      "status": "completed",
      "intent": "plan",
      "title": "Information And Advice Given",
      "subject": {
        "reference": "urn:uuid:9428c880-80e1-4619-81f3-f0f93e1bbb60"
      },
      "context": {
        "reference": "urn:uuid:dc16d226-55b4-4c41-b8df-9239c6db9160"
      },
      "period": {
        "start": "2021-04-06T11:29:27+00:00"
      },
      "addresses": [ {
        "reference": "urn:uuid:66d4023a-1ece-401e-84a6-706532c1d6c7"
      } ]
    }
  }, {
    "fullUrl": "urn:uuid:ad54dbef-e22c-4f64-8a4a-8dc262b79e8c",
    "resource": {
      "resourceType": "Consent",
      "id": "ad54dbef-e22c-4f64-8a4a-8dc262b79e8c",
      "identifier": {
        "use": "usual",
        "value": "B66502CD-A9B4-4F3E-83EB-981F572C2C91"
      },
      "status": "active",
      "patient": {
        "reference": "urn:uuid:9428c880-80e1-4619-81f3-f0f93e1bbb60"
      },
      "period": {
        "start": "2021-04-06T11:29:27+00:00"
      },
      "consentingParty": [ {
        "reference": "urn:uuid:9428c880-80e1-4619-81f3-f0f93e1bbb60"
      } ],
      "action": [ {
        "coding": [ {
          "system": "http://snomed.info/sct",
          "code": "425691002",
          "display": "Consent given for electronic record sharing"
        } ],
        "text": "Consent given for electronic record sharing"
      } ],
      "organization": [ {
        "reference": "urn:uuid:7d0e64d2-2554-4188-8f91-8ba41f6f3de5"
      } ],
      "policyRule": "http://hl7.org/fhir/ConsentPolicy/opt-out",
      "data": [ {
        "meaning": "related",
        "reference": {
          "reference": "urn:uuid:dc16d226-55b4-4c41-b8df-9239c6db9160"
        }
      } ]
    }
  }, {
    "fullUrl": "urn:uuid:66d4023a-1ece-401e-84a6-706532c1d6c7",
    "resource": {
      "resourceType": "Condition",
      "id": "66d4023a-1ece-401e-84a6-706532c1d6c7",
      "clinicalStatus": "active",
      "verificationStatus": "unknown",
      "subject": {
        "reference": "urn:uuid:9428c880-80e1-4619-81f3-f0f93e1bbb60"
      },
      "context": {
        "reference": "urn:uuid:dc16d226-55b4-4c41-b8df-9239c6db9160"
      },
      "evidence": [ {
        "detail": [ {
          "reference": "urn:uuid:dc017e64-5174-4fc9-9874-2f2e8c680924"
        } ]
      }, {
        "detail": [ {
          "reference": "urn:uuid:92f76d05-b2f2-40bb-9aa8-45fd44b0fa78"
        } ]
      }, {
        "detail": [ {
          "reference": "urn:uuid:1ba14c7f-2e65-49e6-aa15-c60078cf9516"
        } ]
      }, {
        "detail": [ {
          "reference": "urn:uuid:4a9f5e3f-f82b-44a5-81fc-03a1c8fc47df"
        } ]
      }, {
        "detail": [ {
          "reference": "urn:uuid:5201ba89-e3dd-4f4d-9100-ada4cd29ca75"
        } ]
      }, {
        "detail": [ {
          "reference": "urn:uuid:632ea59f-f415-4f0d-ac00-f8a2c2a5f854"
        } ]
      }, {
        "detail": [ {
          "reference": "urn:uuid:2b93f5c4-24d4-4dff-9a60-820d81c2fb65"
        } ]
      }, {
        "detail": [ {
          "reference": "urn:uuid:fd8d09ac-e90a-483d-b03d-75e244e2d3e2"
        } ]
      }, {
        "detail": [ {
          "reference": "urn:uuid:bd4a9697-717b-4d79-aec7-c9d4b2428464"
        } ]
      }, {
        "detail": [ {
          "reference": "urn:uuid:3851d04d-868c-48a2-a465-82beeac5922c"
        } ]
      }, {
        "detail": [ {
          "reference": "urn:uuid:44941cb2-c383-42aa-9f0d-149ec4186734"
        } ]
      }, {
        "detail": [ {
          "reference": "urn:uuid:cf2f3700-7944-4dd0-ab11-4980593bd3f9"
        } ]
      }, {
        "detail": [ {
          "reference": "urn:uuid:795bcc2a-3eb4-4ce1-b1e3-e5016de55a94"
        } ]
      }, {
        "detail": [ {
          "reference": "urn:uuid:eef75075-af75-49fb-9d17-a30969f3410d"
        } ]
      }, {
        "detail": [ {
          "reference": "urn:uuid:3d85e81b-d8a6-4d47-bc07-ac22ef711c0c"
        } ]
      }, {
        "detail": [ {
          "reference": "urn:uuid:e67d92cb-1fa9-4854-90eb-7e30320222ed"
        } ]
      }, {
        "detail": [ {
          "reference": "urn:uuid:7baae512-f049-4a4c-a415-f3d4b222fafc"
        } ]
      }, {
        "detail": [ {
          "reference": "urn:uuid:3a09df74-f8e0-4443-bcb1-e322d6a21eae"
        } ]
      }, {
        "detail": [ {
          "reference": "urn:uuid:e38a8ba7-a134-429e-bbee-5f2f1936f2ec"
        } ]
      }, {
        "detail": [ {
          "reference": "urn:uuid:8464e723-1409-4c2c-9b7c-d373ceeeb7b9"
        } ]
      }, {
        "detail": [ {
          "reference": "urn:uuid:d9c4fe7b-d3d8-4e8a-9c7b-d48f6c24a94b"
        } ]
      }, {
        "detail": [ {
          "reference": "urn:uuid:53bddc0f-eb8b-450e-be05-1ca8227e6df4"
        } ]
      }, {
        "detail": [ {
          "reference": "urn:uuid:2524178f-4407-4c5d-857e-1f78843eed1c"
        } ]
      }, {
        "detail": [ {
          "reference": "urn:uuid:2fa1b4de-2b9e-48d5-8ab7-4bf853ccc9ce"
        } ]
      }, {
        "detail": [ {
          "reference": "urn:uuid:fe9ccbce-0497-4bdc-af9a-6dfc0a968ba8"
        } ]
      }, {
        "detail": [ {
          "reference": "urn:uuid:90a25095-9457-4f73-a10c-4c126742f69c"
        } ]
      }, {
        "detail": [ {
          "reference": "urn:uuid:39e3ba45-c9c7-4b30-8d8f-efd2909fdfa4"
        } ]
      }, {
        "detail": [ {
          "reference": "urn:uuid:96f92a1b-16e1-4b06-8e3c-027cbf9afe5a"
        } ]
      }, {
        "detail": [ {
          "reference": "urn:uuid:691ab886-6996-4a6f-95b6-3ba15f3eeb6e"
        } ]
      }, {
        "detail": [ {
          "reference": "urn:uuid:4d983a5d-61e7-4867-b5dd-4660e6a0ea74"
        } ]
      }, {
        "detail": [ {
          "reference": "urn:uuid:3b594bea-7d79-4b02-8e9c-887832c28897"
        } ]
      }, {
        "detail": [ {
          "reference": "urn:uuid:99b9cd8a-d0d4-4f67-852a-eee50de3716d"
        } ]
      }, {
        "detail": [ {
          "reference": "urn:uuid:84011ace-747e-4902-914e-175ce22e995d"
        } ]
      }, {
        "detail": [ {
          "reference": "urn:uuid:b52d751c-8ea8-42cf-814b-1844c288385e"
        } ]
      }, {
        "detail": [ {
          "reference": "urn:uuid:3fd5f749-9acc-47de-9db1-bde27458a211"
        } ]
      }, {
        "detail": [ {
          "reference": "urn:uuid:4890c3b9-892c-4169-b6d4-7e7eb31c70dc"
        } ]
      }, {
        "detail": [ {
          "reference": "urn:uuid:2bb328e9-ce86-44bc-83d0-83d00b4fdba6"
        } ]
      }, {
        "detail": [ {
          "reference": "urn:uuid:4f548886-33fc-47dc-80a4-7d061834ece2"
        } ]
      }, {
        "detail": [ {
          "reference": "urn:uuid:c9704d13-aa6c-4aca-9f8c-a4cc106be569"
        } ]
      }, {
        "detail": [ {
          "reference": "urn:uuid:35103f0f-d3f0-4b32-a176-703d47e39fe2"
        } ]
      }, {
        "detail": [ {
          "reference": "urn:uuid:5cfda7a6-f16b-48d3-a9d6-9a8ffaac1276"
        } ]
      }, {
        "detail": [ {
          "reference": "urn:uuid:37e98fcc-66b0-48a8-b472-e2bb24fb3ad4"
        } ]
      }, {
        "detail": [ {
          "reference": "urn:uuid:e44841aa-39ce-4478-bd49-38653718052f"
        } ]
      }, {
        "detail": [ {
          "reference": "urn:uuid:34fed9d9-3176-4c9c-aba3-946296676f91"
        } ]
      }, {
        "detail": [ {
          "reference": "urn:uuid:379d0c76-f7d8-40fa-a061-c16052f060e2"
        } ]
      }, {
        "detail": [ {
          "reference": "urn:uuid:1acb0d9c-0f42-4395-8640-bc112ccdeeae"
        } ]
      }, {
        "detail": [ {
          "reference": "urn:uuid:2b1c020f-9878-436a-af1d-cdc3edcb3db2"
        } ]
      }, {
        "detail": [ {
          "reference": "urn:uuid:b5d8d257-45ad-4dfe-8fe4-171a31c00fe9"
        } ]
      }, {
        "detail": [ {
          "reference": "urn:uuid:77d18322-e46c-4b1d-821b-a09263989cb1"
        } ]
      }, {
        "detail": [ {
          "reference": "urn:uuid:6b5c452a-5f75-4cb7-be1b-86f4441e4783"
        } ]
      }, {
        "detail": [ {
          "reference": "urn:uuid:257f293f-e3e0-4c1b-be54-8bc1b2c17310"
        } ]
      }, {
        "detail": [ {
          "reference": "urn:uuid:127db0e6-1f45-45aa-9119-c320fa2a7779"
        } ]
      }, {
        "detail": [ {
          "reference": "urn:uuid:2b897e5b-51cd-455f-b800-d421e8012b59"
        } ]
      }, {
        "detail": [ {
          "reference": "urn:uuid:08b4b3cc-cc57-4b2e-95b0-c0a0bbac99dc"
        } ]
      }, {
        "detail": [ {
          "reference": "urn:uuid:e25d910d-6f13-4926-b9cf-05bc122418e5"
        } ]
      }, {
        "detail": [ {
          "reference": "urn:uuid:82310273-7e17-4392-a32d-3c1f09df9803"
        } ]
      }, {
        "detail": [ {
          "reference": "urn:uuid:52f43296-83a7-4e8d-816c-031d76a46361"
        } ]
      }, {
        "detail": [ {
          "reference": "urn:uuid:d04f5e33-d4e7-4235-8cbc-ef8b805b20ed"
        } ]
      }, {
        "detail": [ {
          "reference": "urn:uuid:397332d6-fa79-49cc-8467-61e56b53276d"
        } ]
      }, {
        "detail": [ {
          "reference": "urn:uuid:087e0d28-98dc-4f7d-bf4c-4fff25a156ea"
        } ]
      }, {
        "detail": [ {
          "reference": "urn:uuid:252d36bf-b482-4251-9339-4e5aed1c6695"
        } ]
      } ]
    }
  }, {
    "fullUrl": "urn:uuid:dc017e64-5174-4fc9-9874-2f2e8c680924",
    "resource": {
      "resourceType": "QuestionnaireResponse",
      "id": "dc017e64-5174-4fc9-9874-2f2e8c680924",
      "identifier": {
        "value": "59263"
      },
      "questionnaire": {
        "reference": "urn:uuid:4ac94a0d-0619-4bb5-8407-fafaffa9405b"
      },
      "status": "completed",
      "subject": {
        "reference": "urn:uuid:9428c880-80e1-4619-81f3-f0f93e1bbb60"
      },
      "context": {
        "reference": "urn:uuid:dc16d226-55b4-4c41-b8df-9239c6db9160"
      },
      "authored": "2021-04-06T11:29:26+00:00",
      "item": [ {
        "linkId": "Tx220074",
        "text": "What is the reason for the contact?",
        "answer": [ {
          "valueString": "an injury or other health problem"
        } ]
      } ]
    }
  }, {
    "fullUrl": "urn:uuid:4ac94a0d-0619-4bb5-8407-fafaffa9405b",
    "resource": {
      "resourceType": "Questionnaire",
      "id": "4ac94a0d-0619-4bb5-8407-fafaffa9405b",
      "identifier": [ {
        "value": "59263"
      } ],
      "version": "2021-04-06T11:29:26.887Z",
      "status": "active",
      "experimental": false,
      "date": "2021-04-06T11:29:26+00:00",
      "publisher": "User ID: 'HADFIELDR' User name: 'Ryan Hadfield' User skill set: 'T3'",
      "lastReviewDate": "2021-04-06",
      "contact": [ {
        "telecom": [ {
          "value": "07777 888888"
        } ]
      } ],
      "subjectType": [ "Patient" ],
      "item": [ {
        "linkId": "59263",
        "prefix": "5",
        "text": "What is the reason for the contact?",
        "type": "choice",
        "required": true,
        "repeats": false,
        "option": [ {
          "valueString": "an injury or other health problem, Selected: true"
        }, {
          "valueString": "labour or childbirth, Selected: false"
        }, {
          "valueString": "a need to access another healthcare service, Selected: false"
        }, {
          "valueString": "a healthcare professional requesting contact with another clinician, Selected: false"
        }, {
          "valueString": "a report of results or tests, Selected: false"
        }, {
          "valueString": "a possible failure of contraception, Selected: false"
        }, {
          "valueString": "more, Selected: false"
        } ]
      } ]
    }
  }, {
    "fullUrl": "urn:uuid:92f76d05-b2f2-40bb-9aa8-45fd44b0fa78",
    "resource": {
      "resourceType": "QuestionnaireResponse",
      "id": "92f76d05-b2f2-40bb-9aa8-45fd44b0fa78",
      "identifier": {
        "value": "59263"
      },
      "questionnaire": {
        "reference": "urn:uuid:2a899493-63d9-4a76-b2b7-252dad984926"
      },
      "status": "completed",
      "subject": {
        "reference": "urn:uuid:9428c880-80e1-4619-81f3-f0f93e1bbb60"
      },
      "context": {
        "reference": "urn:uuid:dc16d226-55b4-4c41-b8df-9239c6db9160"
      },
      "authored": "2021-04-06T11:29:26+00:00",
      "item": [ {
        "linkId": "Tx221807",
        "text": "STRING:to'Immediatethreatstolife(SPA/OOHversion)'-'Majorbloodloss'stem",
        "answer": [ {
          "valueString": "\"present\""
        } ]
      } ]
    }
  }, {
    "fullUrl": "urn:uuid:2a899493-63d9-4a76-b2b7-252dad984926",
    "resource": {
      "resourceType": "Questionnaire",
      "id": "2a899493-63d9-4a76-b2b7-252dad984926",
      "identifier": [ {
        "value": "59263"
      } ],
      "version": "2021-04-06T11:29:26.887Z",
      "status": "active",
      "experimental": false,
      "date": "2021-04-06T11:29:26+00:00",
      "publisher": "User ID: 'HADFIELDR' User name: 'Ryan Hadfield' User skill set: 'T3'",
      "lastReviewDate": "2021-04-06",
      "contact": [ {
        "telecom": [ {
          "value": "07777 888888"
        } ]
      } ],
      "subjectType": [ "Patient" ],
      "item": [ {
        "linkId": "59263",
        "prefix": "200",
        "text": "STRING:to'Immediatethreatstolife(SPA/OOHversion)'-'Majorbloodloss'stem",
        "type": "choice",
        "required": true,
        "repeats": false,
        "option": [ {
          "valueString": "\"present\", Selected: true"
        } ]
      } ]
    }
  }, {
    "fullUrl": "urn:uuid:1ba14c7f-2e65-49e6-aa15-c60078cf9516",
    "resource": {
      "resourceType": "QuestionnaireResponse",
      "id": "1ba14c7f-2e65-49e6-aa15-c60078cf9516",
      "identifier": {
        "value": "59263"
      },
      "questionnaire": {
        "reference": "urn:uuid:1e165473-a6c0-4aae-9126-5b2f09fdddd3"
      },
      "status": "completed",
      "subject": {
        "reference": "urn:uuid:9428c880-80e1-4619-81f3-f0f93e1bbb60"
      },
      "context": {
        "reference": "urn:uuid:dc16d226-55b4-4c41-b8df-9239c6db9160"
      },
      "authored": "2021-04-06T11:29:26+00:00"
    }
  }, {
    "fullUrl": "urn:uuid:1e165473-a6c0-4aae-9126-5b2f09fdddd3",
    "resource": {
      "resourceType": "Questionnaire",
      "id": "1e165473-a6c0-4aae-9126-5b2f09fdddd3",
      "identifier": [ {
        "value": "59263"
      } ],
      "version": "2021-04-06T11:29:26.887Z",
      "status": "active",
      "experimental": false,
      "date": "2021-04-06T11:29:26+00:00",
      "publisher": "User ID: 'HADFIELDR' User name: 'Ryan Hadfield' User skill set: 'T3'",
      "lastReviewDate": "2021-04-06",
      "contact": [ {
        "telecom": [ {
          "value": "07777 888888"
        } ]
      } ],
      "subjectType": [ "Patient" ]
    }
  }, {
    "fullUrl": "urn:uuid:4a9f5e3f-f82b-44a5-81fc-03a1c8fc47df",
    "resource": {
      "resourceType": "QuestionnaireResponse",
      "id": "4a9f5e3f-f82b-44a5-81fc-03a1c8fc47df",
      "identifier": {
        "value": "59263"
      },
      "questionnaire": {
        "reference": "urn:uuid:c5f57349-eb1d-4967-9ff4-e915f142ac56"
      },
      "status": "completed",
      "subject": {
        "reference": "urn:uuid:9428c880-80e1-4619-81f3-f0f93e1bbb60"
      },
      "context": {
        "reference": "urn:uuid:dc16d226-55b4-4c41-b8df-9239c6db9160"
      },
      "authored": "2021-04-06T11:29:26+00:00",
      "item": [ {
        "linkId": "Tx221799",
        "text": "STRING:injury,illnessorlabourestablishedinEntryFlow",
        "answer": [ {
          "valueString": "\"present\""
        } ]
      } ]
    }
  }, {
    "fullUrl": "urn:uuid:c5f57349-eb1d-4967-9ff4-e915f142ac56",
    "resource": {
      "resourceType": "Questionnaire",
      "id": "c5f57349-eb1d-4967-9ff4-e915f142ac56",
      "identifier": [ {
        "value": "59263"
      } ],
      "version": "2021-04-06T11:29:26.887Z",
      "status": "active",
      "experimental": false,
      "date": "2021-04-06T11:29:26+00:00",
      "publisher": "User ID: 'HADFIELDR' User name: 'Ryan Hadfield' User skill set: 'T3'",
      "lastReviewDate": "2021-04-06",
      "contact": [ {
        "telecom": [ {
          "value": "07777 888888"
        } ]
      } ],
      "subjectType": [ "Patient" ],
      "item": [ {
        "linkId": "59263",
        "prefix": "0",
        "text": "STRING:injury,illnessorlabourestablishedinEntryFlow",
        "type": "choice",
        "required": true,
        "repeats": false,
        "option": [ {
          "valueString": "\"present\", Selected: true"
        } ]
      } ]
    }
  }, {
    "fullUrl": "urn:uuid:5201ba89-e3dd-4f4d-9100-ada4cd29ca75",
    "resource": {
      "resourceType": "QuestionnaireResponse",
      "id": "5201ba89-e3dd-4f4d-9100-ada4cd29ca75",
      "identifier": {
        "value": "59263"
      },
      "questionnaire": {
        "reference": "urn:uuid:db2f85dc-a719-4cdc-a5fa-dc9a259de6f7"
      },
      "status": "completed",
      "subject": {
        "reference": "urn:uuid:9428c880-80e1-4619-81f3-f0f93e1bbb60"
      },
      "context": {
        "reference": "urn:uuid:dc16d226-55b4-4c41-b8df-9239c6db9160"
      },
      "authored": "2021-04-06T11:29:26+00:00",
      "item": [ {
        "linkId": "Tx224120",
        "text": "Have you been bleeding RED BLOOD very heavily IN THE LAST 2 HOURS?"
      } ]
    }
  }, {
    "fullUrl": "urn:uuid:db2f85dc-a719-4cdc-a5fa-dc9a259de6f7",
    "resource": {
      "resourceType": "Questionnaire",
      "id": "db2f85dc-a719-4cdc-a5fa-dc9a259de6f7",
      "identifier": [ {
        "value": "59263"
      } ],
      "version": "2021-04-06T11:29:26.887Z",
      "status": "active",
      "experimental": false,
      "date": "2021-04-06T11:29:26+00:00",
      "publisher": "User ID: 'HADFIELDR' User name: 'Ryan Hadfield' User skill set: 'T3'",
      "lastReviewDate": "2021-04-06",
      "contact": [ {
        "telecom": [ {
          "value": "07777 888888"
        } ]
      } ],
      "subjectType": [ "Patient" ],
      "item": [ {
        "linkId": "59263",
        "prefix": "10100",
        "text": "Have you been bleeding RED BLOOD very heavily IN THE LAST 2 HOURS?",
        "type": "choice",
        "required": true,
        "repeats": false,
        "option": [ {
          "valueString": "yes, Selected: false"
        }, {
          "valueString": "not sure, Selected: false"
        }, {
          "valueString": "no, Selected: false"
        } ]
      } ]
    }
  }, {
    "fullUrl": "urn:uuid:632ea59f-f415-4f0d-ac00-f8a2c2a5f854",
    "resource": {
      "resourceType": "QuestionnaireResponse",
      "id": "632ea59f-f415-4f0d-ac00-f8a2c2a5f854",
      "identifier": {
        "value": "59263"
      },
      "questionnaire": {
        "reference": "urn:uuid:922d0a45-e9ff-45cf-9f47-70cc22ceb0e0"
      },
      "status": "completed",
      "subject": {
        "reference": "urn:uuid:9428c880-80e1-4619-81f3-f0f93e1bbb60"
      },
      "context": {
        "reference": "urn:uuid:dc16d226-55b4-4c41-b8df-9239c6db9160"
      },
      "authored": "2021-04-06T11:29:26+00:00",
      "item": [ {
        "linkId": "Tx220074",
        "text": "What is the reason for the contact?",
        "answer": [ {
          "valueString": "more"
        } ]
      } ]
    }
  }, {
    "fullUrl": "urn:uuid:922d0a45-e9ff-45cf-9f47-70cc22ceb0e0",
    "resource": {
      "resourceType": "Questionnaire",
      "id": "922d0a45-e9ff-45cf-9f47-70cc22ceb0e0",
      "identifier": [ {
        "value": "59263"
      } ],
      "version": "2021-04-06T11:29:26.887Z",
      "status": "active",
      "experimental": false,
      "date": "2021-04-06T11:29:26+00:00",
      "publisher": "User ID: 'HADFIELDR' User name: 'Ryan Hadfield' User skill set: 'T3'",
      "lastReviewDate": "2021-04-06",
      "contact": [ {
        "telecom": [ {
          "value": "07777 888888"
        } ]
      } ],
      "subjectType": [ "Patient" ],
      "item": [ {
        "linkId": "59263",
        "prefix": "5",
        "text": "What is the reason for the contact?",
        "type": "choice",
        "required": true,
        "repeats": false,
        "option": [ {
          "valueString": "an injury or other health problem, Selected: false"
        }, {
          "valueString": "labour or childbirth, Selected: false"
        }, {
          "valueString": "a need to access another healthcare service, Selected: false"
        }, {
          "valueString": "a healthcare professional requesting contact with another clinician, Selected: false"
        }, {
          "valueString": "a report of results or tests, Selected: false"
        }, {
          "valueString": "a possible failure of contraception, Selected: false"
        }, {
          "valueString": "more, Selected: true"
        } ]
      } ]
    }
  }, {
    "fullUrl": "urn:uuid:2b93f5c4-24d4-4dff-9a60-820d81c2fb65",
    "resource": {
      "resourceType": "QuestionnaireResponse",
      "id": "2b93f5c4-24d4-4dff-9a60-820d81c2fb65",
      "identifier": {
        "value": "59263"
      },
      "questionnaire": {
        "reference": "urn:uuid:c7824f65-2475-4dc8-b7ac-dd8c0afa08e4"
      },
      "status": "completed",
      "subject": {
        "reference": "urn:uuid:9428c880-80e1-4619-81f3-f0f93e1bbb60"
      },
      "context": {
        "reference": "urn:uuid:dc16d226-55b4-4c41-b8df-9239c6db9160"
      },
      "authored": "2021-04-06T11:29:26+00:00",
      "item": [ {
        "linkId": "Tx221793",
        "text": "STRING:to'Social&information'-further'Callreason'menu",
        "answer": [ {
          "valueString": "\"present\""
        } ]
      } ]
    }
  }, {
    "fullUrl": "urn:uuid:c7824f65-2475-4dc8-b7ac-dd8c0afa08e4",
    "resource": {
      "resourceType": "Questionnaire",
      "id": "c7824f65-2475-4dc8-b7ac-dd8c0afa08e4",
      "identifier": [ {
        "value": "59263"
      } ],
      "version": "2021-04-06T11:29:26.887Z",
      "status": "active",
      "experimental": false,
      "date": "2021-04-06T11:29:26+00:00",
      "publisher": "User ID: 'HADFIELDR' User name: 'Ryan Hadfield' User skill set: 'T3'",
      "lastReviewDate": "2021-04-06",
      "contact": [ {
        "telecom": [ {
          "value": "07777 888888"
        } ]
      } ],
      "subjectType": [ "Patient" ],
      "item": [ {
        "linkId": "59263",
        "prefix": "600",
        "text": "STRING:to'Social&information'-further'Callreason'menu",
        "type": "choice",
        "required": true,
        "repeats": false,
        "option": [ {
          "valueString": "\"present\", Selected: true"
        } ]
      } ]
    }
  }, {
    "fullUrl": "urn:uuid:fd8d09ac-e90a-483d-b03d-75e244e2d3e2",
    "resource": {
      "resourceType": "QuestionnaireResponse",
      "id": "fd8d09ac-e90a-483d-b03d-75e244e2d3e2",
      "identifier": {
        "value": "59263"
      },
      "questionnaire": {
        "reference": "urn:uuid:a3c2c75e-a87e-48dc-9875-63fdf6574b69"
      },
      "status": "completed",
      "subject": {
        "reference": "urn:uuid:9428c880-80e1-4619-81f3-f0f93e1bbb60"
      },
      "context": {
        "reference": "urn:uuid:dc16d226-55b4-4c41-b8df-9239c6db9160"
      },
      "authored": "2021-04-06T11:29:26+00:00"
    }
  }, {
    "fullUrl": "urn:uuid:a3c2c75e-a87e-48dc-9875-63fdf6574b69",
    "resource": {
      "resourceType": "Questionnaire",
      "id": "a3c2c75e-a87e-48dc-9875-63fdf6574b69",
      "identifier": [ {
        "value": "59263"
      } ],
      "version": "2021-04-06T11:29:26.887Z",
      "status": "active",
      "experimental": false,
      "date": "2021-04-06T11:29:26+00:00",
      "publisher": "User ID: 'HADFIELDR' User name: 'Ryan Hadfield' User skill set: 'T3'",
      "lastReviewDate": "2021-04-06",
      "contact": [ {
        "telecom": [ {
          "value": "07777 888888"
        } ]
      } ],
      "subjectType": [ "Patient" ]
    }
  }, {
    "fullUrl": "urn:uuid:bd4a9697-717b-4d79-aec7-c9d4b2428464",
    "resource": {
      "resourceType": "QuestionnaireResponse",
      "id": "bd4a9697-717b-4d79-aec7-c9d4b2428464",
      "identifier": {
        "value": "59263"
      },
      "questionnaire": {
        "reference": "urn:uuid:04687379-11a0-4829-97bb-8b27ca2d437d"
      },
      "status": "completed",
      "subject": {
        "reference": "urn:uuid:9428c880-80e1-4619-81f3-f0f93e1bbb60"
      },
      "context": {
        "reference": "urn:uuid:dc16d226-55b4-4c41-b8df-9239c6db9160"
      },
      "authored": "2021-04-06T11:29:26+00:00",
      "item": [ {
        "linkId": "Tx221804",
        "text": "STRING:transfertofurthermenuquestionestablishedinEntryFlow",
        "answer": [ {
          "valueString": "\"present\""
        } ]
      } ]
    }
  }, {
    "fullUrl": "urn:uuid:04687379-11a0-4829-97bb-8b27ca2d437d",
    "resource": {
      "resourceType": "Questionnaire",
      "id": "04687379-11a0-4829-97bb-8b27ca2d437d",
      "identifier": [ {
        "value": "59263"
      } ],
      "version": "2021-04-06T11:29:26.887Z",
      "status": "active",
      "experimental": false,
      "date": "2021-04-06T11:29:26+00:00",
      "publisher": "User ID: 'HADFIELDR' User name: 'Ryan Hadfield' User skill set: 'T3'",
      "lastReviewDate": "2021-04-06",
      "contact": [ {
        "telecom": [ {
          "value": "07777 888888"
        } ]
      } ],
      "subjectType": [ "Patient" ],
      "item": [ {
        "linkId": "59263",
        "prefix": "41",
        "text": "STRING:transfertofurthermenuquestionestablishedinEntryFlow",
        "type": "choice",
        "required": true,
        "repeats": false,
        "option": [ {
          "valueString": "\"present\", Selected: true"
        } ]
      } ]
    }
  }, {
    "fullUrl": "urn:uuid:3851d04d-868c-48a2-a465-82beeac5922c",
    "resource": {
      "resourceType": "QuestionnaireResponse",
      "id": "3851d04d-868c-48a2-a465-82beeac5922c",
      "identifier": {
        "value": "59263"
      },
      "questionnaire": {
        "reference": "urn:uuid:c663c5f1-b2de-435c-b7ab-6c908d383559"
      },
      "status": "completed",
      "subject": {
        "reference": "urn:uuid:9428c880-80e1-4619-81f3-f0f93e1bbb60"
      },
      "context": {
        "reference": "urn:uuid:dc16d226-55b4-4c41-b8df-9239c6db9160"
      },
      "authored": "2021-04-06T11:29:26+00:00",
      "item": [ {
        "linkId": "Tx224998",
        "text": "SYSTEM_COVIDLEVEL2",
        "answer": [ {
          "valueString": "==\"covidlevel2\""
        } ]
      } ]
    }
  }, {
    "fullUrl": "urn:uuid:c663c5f1-b2de-435c-b7ab-6c908d383559",
    "resource": {
      "resourceType": "Questionnaire",
      "id": "c663c5f1-b2de-435c-b7ab-6c908d383559",
      "identifier": [ {
        "value": "59263"
      } ],
      "version": "2021-04-06T11:29:26.887Z",
      "status": "active",
      "experimental": false,
      "date": "2021-04-06T11:29:26+00:00",
      "publisher": "User ID: 'HADFIELDR' User name: 'Ryan Hadfield' User skill set: 'T3'",
      "lastReviewDate": "2021-04-06",
      "contact": [ {
        "telecom": [ {
          "value": "07777 888888"
        } ]
      } ],
      "subjectType": [ "Patient" ],
      "item": [ {
        "linkId": "59263",
        "prefix": "5900",
        "text": "SYSTEM_COVIDLEVEL2",
        "type": "choice",
        "required": true,
        "repeats": false,
        "option": [ {
          "valueString": "==\"covidlevel2\", Selected: true"
        }, {
          "valueString": "*, Selected: false"
        } ]
      } ]
    }
  }, {
    "fullUrl": "urn:uuid:44941cb2-c383-42aa-9f0d-149ec4186734",
    "resource": {
      "resourceType": "QuestionnaireResponse",
      "id": "44941cb2-c383-42aa-9f0d-149ec4186734",
      "identifier": {
        "value": "59263"
      },
      "questionnaire": {
        "reference": "urn:uuid:234e841f-d4e6-4cd2-84a0-65f1ae3a308a"
      },
      "status": "completed",
      "subject": {
        "reference": "urn:uuid:9428c880-80e1-4619-81f3-f0f93e1bbb60"
      },
      "context": {
        "reference": "urn:uuid:dc16d226-55b4-4c41-b8df-9239c6db9160"
      },
      "authored": "2021-04-06T11:29:26+00:00",
      "item": [ {
        "linkId": "Tx225069",
        "text": "What is the reason for the contact?",
        "answer": [ {
          "valueString": "a prescription request"
        } ]
      } ]
    }
  }, {
    "fullUrl": "urn:uuid:234e841f-d4e6-4cd2-84a0-65f1ae3a308a",
    "resource": {
      "resourceType": "Questionnaire",
      "id": "234e841f-d4e6-4cd2-84a0-65f1ae3a308a",
      "identifier": [ {
        "value": "59263"
      } ],
      "version": "2021-04-06T11:29:26.887Z",
      "status": "active",
      "experimental": false,
      "date": "2021-04-06T11:29:26+00:00",
      "publisher": "User ID: 'HADFIELDR' User name: 'Ryan Hadfield' User skill set: 'T3'",
      "lastReviewDate": "2021-04-06",
      "contact": [ {
        "telecom": [ {
          "value": "07777 888888"
        } ]
      } ],
      "subjectType": [ "Patient" ],
      "item": [ {
        "linkId": "59263",
        "prefix": "6000",
        "text": "What is the reason for the contact?",
        "type": "choice",
        "required": true,
        "repeats": false,
        "option": [ {
          "valueString": "a child protection/vulnerable adult concern (specify), Selected: false"
        }, {
          "valueString": "a social or domestic emergency, Selected: false"
        }, {
          "valueString": "a prescription request, Selected: true"
        }, {
          "valueString": "an appointment request, Selected: false"
        }, {
          "valueString": "a request for health or medication information, Selected: false"
        }, {
          "valueString": "public health alert information, Selected: false"
        } ]
      } ]
    }
  }, {
    "fullUrl": "urn:uuid:cf2f3700-7944-4dd0-ab11-4980593bd3f9",
    "resource": {
      "resourceType": "QuestionnaireResponse",
      "id": "cf2f3700-7944-4dd0-ab11-4980593bd3f9",
      "identifier": {
        "value": "59263"
      },
      "questionnaire": {
        "reference": "urn:uuid:8209c3e3-4ff8-4734-ad46-207cb2ddba05"
      },
      "status": "completed",
      "subject": {
        "reference": "urn:uuid:9428c880-80e1-4619-81f3-f0f93e1bbb60"
      },
      "context": {
        "reference": "urn:uuid:dc16d226-55b4-4c41-b8df-9239c6db9160"
      },
      "authored": "2021-04-06T11:29:26+00:00",
      "item": [ {
        "linkId": "Tx220957",
        "text": "Is this contact about a new or worsening illness?",
        "answer": [ {
          "valueString": "no"
        } ]
      } ]
    }
  }, {
    "fullUrl": "urn:uuid:8209c3e3-4ff8-4734-ad46-207cb2ddba05",
    "resource": {
      "resourceType": "Questionnaire",
      "id": "8209c3e3-4ff8-4734-ad46-207cb2ddba05",
      "identifier": [ {
        "value": "59263"
      } ],
      "version": "2021-04-06T11:29:26.887Z",
      "status": "active",
      "experimental": false,
      "date": "2021-04-06T11:29:26+00:00",
      "publisher": "User ID: 'HADFIELDR' User name: 'Ryan Hadfield' User skill set: 'T3'",
      "lastReviewDate": "2021-04-06",
      "contact": [ {
        "telecom": [ {
          "value": "07777 888888"
        } ]
      } ],
      "subjectType": [ "Patient" ],
      "item": [ {
        "linkId": "59263",
        "prefix": "1400",
        "text": "Is this contact about a new or worsening illness?",
        "type": "choice",
        "required": true,
        "repeats": false,
        "option": [ {
          "valueString": "yes, Selected: false"
        }, {
          "valueString": "not sure, Selected: false"
        }, {
          "valueString": "no, Selected: true"
        } ]
      } ]
    }
  }, {
    "fullUrl": "urn:uuid:795bcc2a-3eb4-4ce1-b1e3-e5016de55a94",
    "resource": {
      "resourceType": "QuestionnaireResponse",
      "id": "795bcc2a-3eb4-4ce1-b1e3-e5016de55a94",
      "identifier": {
        "value": "59263"
      },
      "questionnaire": {
        "reference": "urn:uuid:a6acf8f4-00be-478b-9d2a-a40faf260bea"
      },
      "status": "completed",
      "subject": {
        "reference": "urn:uuid:9428c880-80e1-4619-81f3-f0f93e1bbb60"
      },
      "context": {
        "reference": "urn:uuid:dc16d226-55b4-4c41-b8df-9239c6db9160"
      },
      "authored": "2021-04-06T11:29:26+00:00",
      "item": [ {
        "linkId": "Tx221352",
        "text": "Have you got enough medication to last until the surgery opens?",
        "answer": [ {
          "valueString": "no"
        } ]
      } ]
    }
  }, {
    "fullUrl": "urn:uuid:a6acf8f4-00be-478b-9d2a-a40faf260bea",
    "resource": {
      "resourceType": "Questionnaire",
      "id": "a6acf8f4-00be-478b-9d2a-a40faf260bea",
      "identifier": [ {
        "value": "59263"
      } ],
      "version": "2021-04-06T11:29:26.887Z",
      "status": "active",
      "experimental": false,
      "date": "2021-04-06T11:29:26+00:00",
      "publisher": "User ID: 'HADFIELDR' User name: 'Ryan Hadfield' User skill set: 'T3'",
      "lastReviewDate": "2021-04-06",
      "contact": [ {
        "telecom": [ {
          "value": "07777 888888"
        } ]
      } ],
      "subjectType": [ "Patient" ],
      "item": [ {
        "linkId": "59263",
        "prefix": "1500",
        "text": "Have you got enough medication to last until the surgery opens?",
        "type": "choice",
        "required": true,
        "repeats": false,
        "option": [ {
          "valueString": "yes, Selected: false"
        }, {
          "valueString": "not sure, Selected: false"
        }, {
          "valueString": "no, Selected: true"
        } ]
      } ]
    }
  }, {
    "fullUrl": "urn:uuid:eef75075-af75-49fb-9d17-a30969f3410d",
    "resource": {
      "resourceType": "QuestionnaireResponse",
      "id": "eef75075-af75-49fb-9d17-a30969f3410d",
      "identifier": {
        "value": "59263"
      },
      "questionnaire": {
        "reference": "urn:uuid:9c7bcb10-18a0-4f4b-86cd-83fadfabd8d6"
      },
      "status": "completed",
      "subject": {
        "reference": "urn:uuid:9428c880-80e1-4619-81f3-f0f93e1bbb60"
      },
      "context": {
        "reference": "urn:uuid:dc16d226-55b4-4c41-b8df-9239c6db9160"
      },
      "authored": "2021-04-06T11:29:26+00:00"
    }
  }, {
    "fullUrl": "urn:uuid:9c7bcb10-18a0-4f4b-86cd-83fadfabd8d6",
    "resource": {
      "resourceType": "Questionnaire",
      "id": "9c7bcb10-18a0-4f4b-86cd-83fadfabd8d6",
      "identifier": [ {
        "value": "59263"
      } ],
      "version": "2021-04-06T11:29:26.887Z",
      "status": "active",
      "experimental": false,
      "date": "2021-04-06T11:29:26+00:00",
      "publisher": "User ID: 'HADFIELDR' User name: 'Ryan Hadfield' User skill set: 'T3'",
      "lastReviewDate": "2021-04-06",
      "contact": [ {
        "telecom": [ {
          "value": "07777 888888"
        } ]
      } ],
      "subjectType": [ "Patient" ]
    }
  }, {
    "fullUrl": "urn:uuid:3d85e81b-d8a6-4d47-bc07-ac22ef711c0c",
    "resource": {
      "resourceType": "QuestionnaireResponse",
      "id": "3d85e81b-d8a6-4d47-bc07-ac22ef711c0c",
      "identifier": {
        "value": "59263"
      },
      "questionnaire": {
        "reference": "urn:uuid:dbce0121-9c9e-4360-84bd-881ef0e753e3"
      },
      "status": "completed",
      "subject": {
        "reference": "urn:uuid:9428c880-80e1-4619-81f3-f0f93e1bbb60"
      },
      "context": {
        "reference": "urn:uuid:dc16d226-55b4-4c41-b8df-9239c6db9160"
      },
      "authored": "2021-04-06T11:29:26+00:00",
      "item": [ {
        "linkId": "Tx224231",
        "text": "FROM WHAT YOU HAVE HEARD IS A CONSULTATION WITH A PRESCRIBER NEEDED?",
        "answer": [ {
          "valueString": "yes"
        } ]
      } ]
    }
  }, {
    "fullUrl": "urn:uuid:dbce0121-9c9e-4360-84bd-881ef0e753e3",
    "resource": {
      "resourceType": "Questionnaire",
      "id": "dbce0121-9c9e-4360-84bd-881ef0e753e3",
      "identifier": [ {
        "value": "59263"
      } ],
      "version": "2021-04-06T11:29:26.887Z",
      "status": "active",
      "experimental": false,
      "date": "2021-04-06T11:29:26+00:00",
      "publisher": "User ID: 'HADFIELDR' User name: 'Ryan Hadfield' User skill set: 'T3'",
      "lastReviewDate": "2021-04-06",
      "contact": [ {
        "telecom": [ {
          "value": "07777 888888"
        } ]
      } ],
      "subjectType": [ "Patient" ],
      "item": [ {
        "linkId": "59263",
        "prefix": "0",
        "text": "FROM WHAT YOU HAVE HEARD IS A CONSULTATION WITH A PRESCRIBER NEEDED?",
        "type": "choice",
        "required": true,
        "repeats": false,
        "option": [ {
          "valueString": "yes, Selected: true"
        }, {
          "valueString": "not sure, Selected: false"
        }, {
          "valueString": "no, Selected: false"
        } ]
      } ]
    }
  }, {
    "fullUrl": "urn:uuid:e67d92cb-1fa9-4854-90eb-7e30320222ed",
    "resource": {
      "resourceType": "QuestionnaireResponse",
      "id": "e67d92cb-1fa9-4854-90eb-7e30320222ed",
      "identifier": {
        "value": "59263"
      },
      "questionnaire": {
        "reference": "urn:uuid:e24d78d4-7a31-4476-b0e1-c5638b556d82"
      },
      "status": "completed",
      "subject": {
        "reference": "urn:uuid:9428c880-80e1-4619-81f3-f0f93e1bbb60"
      },
      "context": {
        "reference": "urn:uuid:dc16d226-55b4-4c41-b8df-9239c6db9160"
      },
      "authored": "2021-04-06T11:29:26+00:00",
      "item": [ {
        "linkId": "Tx221367",
        "text": "When is the next dose due?",
        "answer": [ {
          "valueString": "within the next 12 hours"
        } ]
      } ]
    }
  }, {
    "fullUrl": "urn:uuid:e24d78d4-7a31-4476-b0e1-c5638b556d82",
    "resource": {
      "resourceType": "Questionnaire",
      "id": "e24d78d4-7a31-4476-b0e1-c5638b556d82",
      "identifier": [ {
        "value": "59263"
      } ],
      "version": "2021-04-06T11:29:26.887Z",
      "status": "active",
      "experimental": false,
      "date": "2021-04-06T11:29:26+00:00",
      "publisher": "User ID: 'HADFIELDR' User name: 'Ryan Hadfield' User skill set: 'T3'",
      "lastReviewDate": "2021-04-06",
      "contact": [ {
        "telecom": [ {
          "value": "07777 888888"
        } ]
      } ],
      "subjectType": [ "Patient" ],
      "item": [ {
        "linkId": "59263",
        "prefix": "2900",
        "text": "When is the next dose due?",
        "type": "choice",
        "required": true,
        "repeats": false,
        "option": [ {
          "valueString": "within the next 2 hours, Selected: false"
        }, {
          "valueString": "within the next 6 hours, Selected: false"
        }, {
          "valueString": "within the next 12 hours, Selected: true"
        }, {
          "valueString": "over 12 hours time, Selected: false"
        }, {
          "valueString": "not sure, Selected: false"
        } ]
      } ]
    }
  }, {
    "fullUrl": "urn:uuid:7baae512-f049-4a4c-a415-f3d4b222fafc",
    "resource": {
      "resourceType": "QuestionnaireResponse",
      "id": "7baae512-f049-4a4c-a415-f3d4b222fafc",
      "identifier": {
        "value": "59263"
      },
      "questionnaire": {
        "reference": "urn:uuid:da55fee9-d899-4a4a-9bbc-cd4373c59b54"
      },
      "status": "completed",
      "subject": {
        "reference": "urn:uuid:9428c880-80e1-4619-81f3-f0f93e1bbb60"
      },
      "context": {
        "reference": "urn:uuid:dc16d226-55b4-4c41-b8df-9239c6db9160"
      },
      "authored": "2021-04-06T11:29:26+00:00",
      "item": [ {
        "linkId": "Tx221449",
        "text": "STRING:SDPCFullPrimaryCareassessmentandprescribingcapability",
        "answer": [ {
          "valueString": "\"PC full Primary Care assessment and prescribing capability\""
        } ]
      } ]
    }
  }, {
    "fullUrl": "urn:uuid:da55fee9-d899-4a4a-9bbc-cd4373c59b54",
    "resource": {
      "resourceType": "Questionnaire",
      "id": "da55fee9-d899-4a4a-9bbc-cd4373c59b54",
      "identifier": [ {
        "value": "59263"
      } ],
      "version": "2021-04-06T11:29:26.887Z",
      "status": "active",
      "experimental": false,
      "date": "2021-04-06T11:29:26+00:00",
      "publisher": "User ID: 'HADFIELDR' User name: 'Ryan Hadfield' User skill set: 'T3'",
      "lastReviewDate": "2021-04-06",
      "contact": [ {
        "telecom": [ {
          "value": "07777 888888"
        } ]
      } ],
      "subjectType": [ "Patient" ],
      "item": [ {
        "linkId": "59263",
        "prefix": "3000",
        "text": "STRING:SDPCFullPrimaryCareassessmentandprescribingcapability",
        "type": "choice",
        "required": true,
        "repeats": false,
        "option": [ {
          "valueString": "\"PC full Primary Care assessment and prescribing capability\", Selected: true"
        } ]
      } ]
    }
  }, {
    "fullUrl": "urn:uuid:3a09df74-f8e0-4443-bcb1-e322d6a21eae",
    "resource": {
      "resourceType": "QuestionnaireResponse",
      "id": "3a09df74-f8e0-4443-bcb1-e322d6a21eae",
      "identifier": {
        "value": "59263"
      },
      "questionnaire": {
        "reference": "urn:uuid:d317ca04-598f-4bf3-86a8-ee82c74642b7"
      },
      "status": "completed",
      "subject": {
        "reference": "urn:uuid:9428c880-80e1-4619-81f3-f0f93e1bbb60"
      },
      "context": {
        "reference": "urn:uuid:dc16d226-55b4-4c41-b8df-9239c6db9160"
      },
      "authored": "2021-04-06T11:29:26+00:00"
    }
  }, {
    "fullUrl": "urn:uuid:d317ca04-598f-4bf3-86a8-ee82c74642b7",
    "resource": {
      "resourceType": "Questionnaire",
      "id": "d317ca04-598f-4bf3-86a8-ee82c74642b7",
      "identifier": [ {
        "value": "59263"
      } ],
      "version": "2021-04-06T11:29:26.887Z",
      "status": "active",
      "experimental": false,
      "date": "2021-04-06T11:29:26+00:00",
      "publisher": "User ID: 'HADFIELDR' User name: 'Ryan Hadfield' User skill set: 'T3'",
      "lastReviewDate": "2021-04-06",
      "contact": [ {
        "telecom": [ {
          "value": "07777 888888"
        } ]
      } ],
      "subjectType": [ "Patient" ]
    }
  }, {
    "fullUrl": "urn:uuid:e38a8ba7-a134-429e-bbee-5f2f1936f2ec",
    "resource": {
      "resourceType": "QuestionnaireResponse",
      "id": "e38a8ba7-a134-429e-bbee-5f2f1936f2ec",
      "identifier": {
        "value": "59263"
      },
      "questionnaire": {
        "reference": "urn:uuid:9c9eb8d1-5c4b-4fe2-82a5-0196b3a14449"
      },
      "status": "completed",
      "subject": {
        "reference": "urn:uuid:9428c880-80e1-4619-81f3-f0f93e1bbb60"
      },
      "context": {
        "reference": "urn:uuid:dc16d226-55b4-4c41-b8df-9239c6db9160"
      },
      "authored": "2021-04-06T11:29:26+00:00",
      "item": [ {
        "linkId": "Tx220074",
        "text": "What is the reason for the contact?",
        "answer": [ {
          "valueString": "an injury or other health problem"
        } ]
      } ]
    }
  }, {
    "fullUrl": "urn:uuid:9c9eb8d1-5c4b-4fe2-82a5-0196b3a14449",
    "resource": {
      "resourceType": "Questionnaire",
      "id": "9c9eb8d1-5c4b-4fe2-82a5-0196b3a14449",
      "identifier": [ {
        "value": "59263"
      } ],
      "version": "2021-04-06T11:29:26.887Z",
      "status": "active",
      "experimental": false,
      "date": "2021-04-06T11:29:26+00:00",
      "publisher": "User ID: 'HADFIELDR' User name: 'Ryan Hadfield' User skill set: 'T3'",
      "lastReviewDate": "2021-04-06",
      "contact": [ {
        "telecom": [ {
          "value": "07777 888888"
        } ]
      } ],
      "subjectType": [ "Patient" ],
      "item": [ {
        "linkId": "59263",
        "prefix": "5",
        "text": "What is the reason for the contact?",
        "type": "choice",
        "required": true,
        "repeats": false,
        "option": [ {
          "valueString": "an injury or other health problem, Selected: true"
        }, {
          "valueString": "labour or childbirth, Selected: false"
        }, {
          "valueString": "a need to access another healthcare service, Selected: false"
        }, {
          "valueString": "a healthcare professional requesting contact with another clinician, Selected: false"
        }, {
          "valueString": "a report of results or tests, Selected: false"
        }, {
          "valueString": "a possible failure of contraception, Selected: false"
        }, {
          "valueString": "more, Selected: false"
        } ]
      } ]
    }
  }, {
    "fullUrl": "urn:uuid:8464e723-1409-4c2c-9b7c-d373ceeeb7b9",
    "resource": {
      "resourceType": "QuestionnaireResponse",
      "id": "8464e723-1409-4c2c-9b7c-d373ceeeb7b9",
      "identifier": {
        "value": "59263"
      },
      "questionnaire": {
        "reference": "urn:uuid:4c30bb93-8456-4f58-8566-b1c4b1a5c876"
      },
      "status": "completed",
      "subject": {
        "reference": "urn:uuid:9428c880-80e1-4619-81f3-f0f93e1bbb60"
      },
      "context": {
        "reference": "urn:uuid:dc16d226-55b4-4c41-b8df-9239c6db9160"
      },
      "authored": "2021-04-06T11:29:26+00:00",
      "item": [ {
        "linkId": "Tx221807",
        "text": "STRING:to'Immediatethreatstolife(SPA/OOHversion)'-'Majorbloodloss'stem",
        "answer": [ {
          "valueString": "\"present\""
        } ]
      } ]
    }
  }, {
    "fullUrl": "urn:uuid:4c30bb93-8456-4f58-8566-b1c4b1a5c876",
    "resource": {
      "resourceType": "Questionnaire",
      "id": "4c30bb93-8456-4f58-8566-b1c4b1a5c876",
      "identifier": [ {
        "value": "59263"
      } ],
      "version": "2021-04-06T11:29:26.887Z",
      "status": "active",
      "experimental": false,
      "date": "2021-04-06T11:29:26+00:00",
      "publisher": "User ID: 'HADFIELDR' User name: 'Ryan Hadfield' User skill set: 'T3'",
      "lastReviewDate": "2021-04-06",
      "contact": [ {
        "telecom": [ {
          "value": "07777 888888"
        } ]
      } ],
      "subjectType": [ "Patient" ],
      "item": [ {
        "linkId": "59263",
        "prefix": "200",
        "text": "STRING:to'Immediatethreatstolife(SPA/OOHversion)'-'Majorbloodloss'stem",
        "type": "choice",
        "required": true,
        "repeats": false,
        "option": [ {
          "valueString": "\"present\", Selected: true"
        } ]
      } ]
    }
  }, {
    "fullUrl": "urn:uuid:d9c4fe7b-d3d8-4e8a-9c7b-d48f6c24a94b",
    "resource": {
      "resourceType": "QuestionnaireResponse",
      "id": "d9c4fe7b-d3d8-4e8a-9c7b-d48f6c24a94b",
      "identifier": {
        "value": "59263"
      },
      "questionnaire": {
        "reference": "urn:uuid:20bd9cfa-0f97-4cb0-8a99-6e57a273b167"
      },
      "status": "completed",
      "subject": {
        "reference": "urn:uuid:9428c880-80e1-4619-81f3-f0f93e1bbb60"
      },
      "context": {
        "reference": "urn:uuid:dc16d226-55b4-4c41-b8df-9239c6db9160"
      },
      "authored": "2021-04-06T11:29:26+00:00"
    }
  }, {
    "fullUrl": "urn:uuid:20bd9cfa-0f97-4cb0-8a99-6e57a273b167",
    "resource": {
      "resourceType": "Questionnaire",
      "id": "20bd9cfa-0f97-4cb0-8a99-6e57a273b167",
      "identifier": [ {
        "value": "59263"
      } ],
      "version": "2021-04-06T11:29:26.887Z",
      "status": "active",
      "experimental": false,
      "date": "2021-04-06T11:29:26+00:00",
      "publisher": "User ID: 'HADFIELDR' User name: 'Ryan Hadfield' User skill set: 'T3'",
      "lastReviewDate": "2021-04-06",
      "contact": [ {
        "telecom": [ {
          "value": "07777 888888"
        } ]
      } ],
      "subjectType": [ "Patient" ]
    }
  }, {
    "fullUrl": "urn:uuid:53bddc0f-eb8b-450e-be05-1ca8227e6df4",
    "resource": {
      "resourceType": "QuestionnaireResponse",
      "id": "53bddc0f-eb8b-450e-be05-1ca8227e6df4",
      "identifier": {
        "value": "59263"
      },
      "questionnaire": {
        "reference": "urn:uuid:05f4545b-4b95-4722-bd25-2cf3dd234d8e"
      },
      "status": "completed",
      "subject": {
        "reference": "urn:uuid:9428c880-80e1-4619-81f3-f0f93e1bbb60"
      },
      "context": {
        "reference": "urn:uuid:dc16d226-55b4-4c41-b8df-9239c6db9160"
      },
      "authored": "2021-04-06T11:29:26+00:00",
      "item": [ {
        "linkId": "Tx221799",
        "text": "STRING:injury,illnessorlabourestablishedinEntryFlow",
        "answer": [ {
          "valueString": "\"present\""
        } ]
      } ]
    }
  }, {
    "fullUrl": "urn:uuid:05f4545b-4b95-4722-bd25-2cf3dd234d8e",
    "resource": {
      "resourceType": "Questionnaire",
      "id": "05f4545b-4b95-4722-bd25-2cf3dd234d8e",
      "identifier": [ {
        "value": "59263"
      } ],
      "version": "2021-04-06T11:29:26.887Z",
      "status": "active",
      "experimental": false,
      "date": "2021-04-06T11:29:26+00:00",
      "publisher": "User ID: 'HADFIELDR' User name: 'Ryan Hadfield' User skill set: 'T3'",
      "lastReviewDate": "2021-04-06",
      "contact": [ {
        "telecom": [ {
          "value": "07777 888888"
        } ]
      } ],
      "subjectType": [ "Patient" ],
      "item": [ {
        "linkId": "59263",
        "prefix": "0",
        "text": "STRING:injury,illnessorlabourestablishedinEntryFlow",
        "type": "choice",
        "required": true,
        "repeats": false,
        "option": [ {
          "valueString": "\"present\", Selected: true"
        } ]
      } ]
    }
  }, {
    "fullUrl": "urn:uuid:2524178f-4407-4c5d-857e-1f78843eed1c",
    "resource": {
      "resourceType": "QuestionnaireResponse",
      "id": "2524178f-4407-4c5d-857e-1f78843eed1c",
      "identifier": {
        "value": "59263"
      },
      "questionnaire": {
        "reference": "urn:uuid:d2950baa-1349-44c5-8538-7cca599a59ae"
      },
      "status": "completed",
      "subject": {
        "reference": "urn:uuid:9428c880-80e1-4619-81f3-f0f93e1bbb60"
      },
      "context": {
        "reference": "urn:uuid:dc16d226-55b4-4c41-b8df-9239c6db9160"
      },
      "authored": "2021-04-06T11:29:26+00:00",
      "item": [ {
        "linkId": "Tx224120",
        "text": "Have you been bleeding RED BLOOD very heavily IN THE LAST 2 HOURS?",
        "answer": [ {
          "valueString": "no"
        } ]
      } ]
    }
  }, {
    "fullUrl": "urn:uuid:d2950baa-1349-44c5-8538-7cca599a59ae",
    "resource": {
      "resourceType": "Questionnaire",
      "id": "d2950baa-1349-44c5-8538-7cca599a59ae",
      "identifier": [ {
        "value": "59263"
      } ],
      "version": "2021-04-06T11:29:26.887Z",
      "status": "active",
      "experimental": false,
      "date": "2021-04-06T11:29:26+00:00",
      "publisher": "User ID: 'HADFIELDR' User name: 'Ryan Hadfield' User skill set: 'T3'",
      "lastReviewDate": "2021-04-06",
      "contact": [ {
        "telecom": [ {
          "value": "07777 888888"
        } ]
      } ],
      "subjectType": [ "Patient" ],
      "item": [ {
        "linkId": "59263",
        "prefix": "10100",
        "text": "Have you been bleeding RED BLOOD very heavily IN THE LAST 2 HOURS?",
        "type": "choice",
        "required": true,
        "repeats": false,
        "option": [ {
          "valueString": "yes, Selected: false"
        }, {
          "valueString": "not sure, Selected: false"
        }, {
          "valueString": "no, Selected: true"
        } ]
      } ]
    }
  }, {
    "fullUrl": "urn:uuid:2fa1b4de-2b9e-48d5-8ab7-4bf853ccc9ce",
    "resource": {
      "resourceType": "QuestionnaireResponse",
      "id": "2fa1b4de-2b9e-48d5-8ab7-4bf853ccc9ce",
      "identifier": {
        "value": "59263"
      },
      "questionnaire": {
        "reference": "urn:uuid:37cab874-4241-4819-a105-65e9c5a5ab8e"
      },
      "status": "completed",
      "subject": {
        "reference": "urn:uuid:9428c880-80e1-4619-81f3-f0f93e1bbb60"
      },
      "context": {
        "reference": "urn:uuid:dc16d226-55b4-4c41-b8df-9239c6db9160"
      },
      "authored": "2021-04-06T11:29:26+00:00",
      "item": [ {
        "linkId": "Tx221343",
        "text": "SocialConcernsExcluded",
        "answer": [ {
          "valueString": "*"
        } ]
      } ]
    }
  }, {
    "fullUrl": "urn:uuid:37cab874-4241-4819-a105-65e9c5a5ab8e",
    "resource": {
      "resourceType": "Questionnaire",
      "id": "37cab874-4241-4819-a105-65e9c5a5ab8e",
      "identifier": [ {
        "value": "59263"
      } ],
      "version": "2021-04-06T11:29:26.887Z",
      "status": "active",
      "experimental": false,
      "date": "2021-04-06T11:29:26+00:00",
      "publisher": "User ID: 'HADFIELDR' User name: 'Ryan Hadfield' User skill set: 'T3'",
      "lastReviewDate": "2021-04-06",
      "contact": [ {
        "telecom": [ {
          "value": "07777 888888"
        } ]
      } ],
      "subjectType": [ "Patient" ],
      "item": [ {
        "linkId": "59263",
        "prefix": "1100",
        "text": "SocialConcernsExcluded",
        "type": "choice",
        "required": true,
        "repeats": false,
        "option": [ {
          "valueString": "==\"present\", Selected: false"
        }, {
          "valueString": "*, Selected: true"
        } ]
      } ]
    }
  }, {
    "fullUrl": "urn:uuid:fe9ccbce-0497-4bdc-af9a-6dfc0a968ba8",
    "resource": {
      "resourceType": "QuestionnaireResponse",
      "id": "fe9ccbce-0497-4bdc-af9a-6dfc0a968ba8",
      "identifier": {
        "value": "59263"
      },
      "questionnaire": {
        "reference": "urn:uuid:44f43776-7d65-4ab0-b7ea-d1088e791a7f"
      },
      "status": "completed",
      "subject": {
        "reference": "urn:uuid:9428c880-80e1-4619-81f3-f0f93e1bbb60"
      },
      "context": {
        "reference": "urn:uuid:dc16d226-55b4-4c41-b8df-9239c6db9160"
      },
      "authored": "2021-04-06T11:29:26+00:00",
      "item": [ {
        "linkId": "Tx130011",
        "text": "What is the main problem?"
      } ]
    }
  }, {
    "fullUrl": "urn:uuid:44f43776-7d65-4ab0-b7ea-d1088e791a7f",
    "resource": {
      "resourceType": "Questionnaire",
      "id": "44f43776-7d65-4ab0-b7ea-d1088e791a7f",
      "identifier": [ {
        "value": "59263"
      } ],
      "version": "2021-04-06T11:29:26.887Z",
      "status": "active",
      "experimental": false,
      "date": "2021-04-06T11:29:26+00:00",
      "publisher": "User ID: 'HADFIELDR' User name: 'Ryan Hadfield' User skill set: 'T3'",
      "lastReviewDate": "2021-04-06",
      "contact": [ {
        "telecom": [ {
          "value": "07777 888888"
        } ]
      } ],
      "subjectType": [ "Patient" ],
      "item": [ {
        "linkId": "59263",
        "prefix": "2300",
        "text": "What is the main problem?",
        "type": "choice",
        "required": true,
        "repeats": false,
        "option": [ {
          "valueString": "the individual has been told to follow a particular course of action (specify), Selected: false"
        }, {
          "valueString": "the individual is an identified frequent caller, Selected: false"
        }, {
          "valueString": "injury (specify), Selected: false"
        }, {
          "valueString": "illness or other health problem (specify), Selected: false"
        }, {
          "valueString": "child protection/vulnerable adult concern, Selected: false"
        }, {
          "valueString": "social or domestic emergency, Selected: false"
        }, {
          "valueString": "the environment potentially poses an immediate threat to life (specify), Selected: false"
        } ]
      } ]
    }
  }, {
    "fullUrl": "urn:uuid:90a25095-9457-4f73-a10c-4c126742f69c",
    "resource": {
      "resourceType": "QuestionnaireResponse",
      "id": "90a25095-9457-4f73-a10c-4c126742f69c",
      "identifier": {
        "value": "59263"
      },
      "questionnaire": {
        "reference": "urn:uuid:2b714fb9-b101-46f2-b43a-80e47f113a92"
      },
      "status": "completed",
      "subject": {
        "reference": "urn:uuid:9428c880-80e1-4619-81f3-f0f93e1bbb60"
      },
      "context": {
        "reference": "urn:uuid:dc16d226-55b4-4c41-b8df-9239c6db9160"
      },
      "authored": "2021-04-06T11:29:26+00:00",
      "item": [ {
        "linkId": "Tx220074",
        "text": "What is the reason for the contact?",
        "answer": [ {
          "valueString": "more"
        } ]
      } ]
    }
  }, {
    "fullUrl": "urn:uuid:2b714fb9-b101-46f2-b43a-80e47f113a92",
    "resource": {
      "resourceType": "Questionnaire",
      "id": "2b714fb9-b101-46f2-b43a-80e47f113a92",
      "identifier": [ {
        "value": "59263"
      } ],
      "version": "2021-04-06T11:29:26.887Z",
      "status": "active",
      "experimental": false,
      "date": "2021-04-06T11:29:26+00:00",
      "publisher": "User ID: 'HADFIELDR' User name: 'Ryan Hadfield' User skill set: 'T3'",
      "lastReviewDate": "2021-04-06",
      "contact": [ {
        "telecom": [ {
          "value": "07777 888888"
        } ]
      } ],
      "subjectType": [ "Patient" ],
      "item": [ {
        "linkId": "59263",
        "prefix": "5",
        "text": "What is the reason for the contact?",
        "type": "choice",
        "required": true,
        "repeats": false,
        "option": [ {
          "valueString": "an injury or other health problem, Selected: false"
        }, {
          "valueString": "labour or childbirth, Selected: false"
        }, {
          "valueString": "a need to access another healthcare service, Selected: false"
        }, {
          "valueString": "a healthcare professional requesting contact with another clinician, Selected: false"
        }, {
          "valueString": "a report of results or tests, Selected: false"
        }, {
          "valueString": "a possible failure of contraception, Selected: false"
        }, {
          "valueString": "more, Selected: true"
        } ]
      } ]
    }
  }, {
    "fullUrl": "urn:uuid:39e3ba45-c9c7-4b30-8d8f-efd2909fdfa4",
    "resource": {
      "resourceType": "QuestionnaireResponse",
      "id": "39e3ba45-c9c7-4b30-8d8f-efd2909fdfa4",
      "identifier": {
        "value": "59263"
      },
      "questionnaire": {
        "reference": "urn:uuid:f0b81369-4a9f-459c-a265-1e452c904e29"
      },
      "status": "completed",
      "subject": {
        "reference": "urn:uuid:9428c880-80e1-4619-81f3-f0f93e1bbb60"
      },
      "context": {
        "reference": "urn:uuid:dc16d226-55b4-4c41-b8df-9239c6db9160"
      },
      "authored": "2021-04-06T11:29:26+00:00",
      "item": [ {
        "linkId": "Tx221793",
        "text": "STRING:to'Social&information'-further'Callreason'menu",
        "answer": [ {
          "valueString": "\"present\""
        } ]
      } ]
    }
  }, {
    "fullUrl": "urn:uuid:f0b81369-4a9f-459c-a265-1e452c904e29",
    "resource": {
      "resourceType": "Questionnaire",
      "id": "f0b81369-4a9f-459c-a265-1e452c904e29",
      "identifier": [ {
        "value": "59263"
      } ],
      "version": "2021-04-06T11:29:26.887Z",
      "status": "active",
      "experimental": false,
      "date": "2021-04-06T11:29:26+00:00",
      "publisher": "User ID: 'HADFIELDR' User name: 'Ryan Hadfield' User skill set: 'T3'",
      "lastReviewDate": "2021-04-06",
      "contact": [ {
        "telecom": [ {
          "value": "07777 888888"
        } ]
      } ],
      "subjectType": [ "Patient" ],
      "item": [ {
        "linkId": "59263",
        "prefix": "600",
        "text": "STRING:to'Social&information'-further'Callreason'menu",
        "type": "choice",
        "required": true,
        "repeats": false,
        "option": [ {
          "valueString": "\"present\", Selected: true"
        } ]
      } ]
    }
  }, {
    "fullUrl": "urn:uuid:96f92a1b-16e1-4b06-8e3c-027cbf9afe5a",
    "resource": {
      "resourceType": "QuestionnaireResponse",
      "id": "96f92a1b-16e1-4b06-8e3c-027cbf9afe5a",
      "identifier": {
        "value": "59263"
      },
      "questionnaire": {
        "reference": "urn:uuid:1fba4e48-0844-48af-bade-b860c35a8dca"
      },
      "status": "completed",
      "subject": {
        "reference": "urn:uuid:9428c880-80e1-4619-81f3-f0f93e1bbb60"
      },
      "context": {
        "reference": "urn:uuid:dc16d226-55b4-4c41-b8df-9239c6db9160"
      },
      "authored": "2021-04-06T11:29:26+00:00"
    }
  }, {
    "fullUrl": "urn:uuid:1fba4e48-0844-48af-bade-b860c35a8dca",
    "resource": {
      "resourceType": "Questionnaire",
      "id": "1fba4e48-0844-48af-bade-b860c35a8dca",
      "identifier": [ {
        "value": "59263"
      } ],
      "version": "2021-04-06T11:29:26.887Z",
      "status": "active",
      "experimental": false,
      "date": "2021-04-06T11:29:26+00:00",
      "publisher": "User ID: 'HADFIELDR' User name: 'Ryan Hadfield' User skill set: 'T3'",
      "lastReviewDate": "2021-04-06",
      "contact": [ {
        "telecom": [ {
          "value": "07777 888888"
        } ]
      } ],
      "subjectType": [ "Patient" ]
    }
  }, {
    "fullUrl": "urn:uuid:691ab886-6996-4a6f-95b6-3ba15f3eeb6e",
    "resource": {
      "resourceType": "QuestionnaireResponse",
      "id": "691ab886-6996-4a6f-95b6-3ba15f3eeb6e",
      "identifier": {
        "value": "59263"
      },
      "questionnaire": {
        "reference": "urn:uuid:44b5c2e0-4fbc-460e-b20f-a3b7e62d46d7"
      },
      "status": "completed",
      "subject": {
        "reference": "urn:uuid:9428c880-80e1-4619-81f3-f0f93e1bbb60"
      },
      "context": {
        "reference": "urn:uuid:dc16d226-55b4-4c41-b8df-9239c6db9160"
      },
      "authored": "2021-04-06T11:29:26+00:00",
      "item": [ {
        "linkId": "Tx221804",
        "text": "STRING:transfertofurthermenuquestionestablishedinEntryFlow",
        "answer": [ {
          "valueString": "\"present\""
        } ]
      } ]
    }
  }, {
    "fullUrl": "urn:uuid:44b5c2e0-4fbc-460e-b20f-a3b7e62d46d7",
    "resource": {
      "resourceType": "Questionnaire",
      "id": "44b5c2e0-4fbc-460e-b20f-a3b7e62d46d7",
      "identifier": [ {
        "value": "59263"
      } ],
      "version": "2021-04-06T11:29:26.887Z",
      "status": "active",
      "experimental": false,
      "date": "2021-04-06T11:29:26+00:00",
      "publisher": "User ID: 'HADFIELDR' User name: 'Ryan Hadfield' User skill set: 'T3'",
      "lastReviewDate": "2021-04-06",
      "contact": [ {
        "telecom": [ {
          "value": "07777 888888"
        } ]
      } ],
      "subjectType": [ "Patient" ],
      "item": [ {
        "linkId": "59263",
        "prefix": "41",
        "text": "STRING:transfertofurthermenuquestionestablishedinEntryFlow",
        "type": "choice",
        "required": true,
        "repeats": false,
        "option": [ {
          "valueString": "\"present\", Selected: true"
        } ]
      } ]
    }
  }, {
    "fullUrl": "urn:uuid:4d983a5d-61e7-4867-b5dd-4660e6a0ea74",
    "resource": {
      "resourceType": "QuestionnaireResponse",
      "id": "4d983a5d-61e7-4867-b5dd-4660e6a0ea74",
      "identifier": {
        "value": "59263"
      },
      "questionnaire": {
        "reference": "urn:uuid:09177036-915e-4560-b4be-f5213fdbeda3"
      },
      "status": "completed",
      "subject": {
        "reference": "urn:uuid:9428c880-80e1-4619-81f3-f0f93e1bbb60"
      },
      "context": {
        "reference": "urn:uuid:dc16d226-55b4-4c41-b8df-9239c6db9160"
      },
      "authored": "2021-04-06T11:29:26+00:00",
      "item": [ {
        "linkId": "Tx224998",
        "text": "SYSTEM_COVIDLEVEL2",
        "answer": [ {
          "valueString": "==\"covidlevel2\""
        } ]
      } ]
    }
  }, {
    "fullUrl": "urn:uuid:09177036-915e-4560-b4be-f5213fdbeda3",
    "resource": {
      "resourceType": "Questionnaire",
      "id": "09177036-915e-4560-b4be-f5213fdbeda3",
      "identifier": [ {
        "value": "59263"
      } ],
      "version": "2021-04-06T11:29:26.887Z",
      "status": "active",
      "experimental": false,
      "date": "2021-04-06T11:29:26+00:00",
      "publisher": "User ID: 'HADFIELDR' User name: 'Ryan Hadfield' User skill set: 'T3'",
      "lastReviewDate": "2021-04-06",
      "contact": [ {
        "telecom": [ {
          "value": "07777 888888"
        } ]
      } ],
      "subjectType": [ "Patient" ],
      "item": [ {
        "linkId": "59263",
        "prefix": "5900",
        "text": "SYSTEM_COVIDLEVEL2",
        "type": "choice",
        "required": true,
        "repeats": false,
        "option": [ {
          "valueString": "==\"covidlevel2\", Selected: true"
        }, {
          "valueString": "*, Selected: false"
        } ]
      } ]
    }
  }, {
    "fullUrl": "urn:uuid:3b594bea-7d79-4b02-8e9c-887832c28897",
    "resource": {
      "resourceType": "QuestionnaireResponse",
      "id": "3b594bea-7d79-4b02-8e9c-887832c28897",
      "identifier": {
        "value": "59263"
      },
      "questionnaire": {
        "reference": "urn:uuid:dbe06d52-ca22-49c0-a5cb-c24030660826"
      },
      "status": "completed",
      "subject": {
        "reference": "urn:uuid:9428c880-80e1-4619-81f3-f0f93e1bbb60"
      },
      "context": {
        "reference": "urn:uuid:dc16d226-55b4-4c41-b8df-9239c6db9160"
      },
      "authored": "2021-04-06T11:29:26+00:00",
      "item": [ {
        "linkId": "Tx225069",
        "text": "What is the reason for the contact?",
        "answer": [ {
          "valueString": "a prescription request"
        } ]
      } ]
    }
  }, {
    "fullUrl": "urn:uuid:dbe06d52-ca22-49c0-a5cb-c24030660826",
    "resource": {
      "resourceType": "Questionnaire",
      "id": "dbe06d52-ca22-49c0-a5cb-c24030660826",
      "identifier": [ {
        "value": "59263"
      } ],
      "version": "2021-04-06T11:29:26.887Z",
      "status": "active",
      "experimental": false,
      "date": "2021-04-06T11:29:26+00:00",
      "publisher": "User ID: 'HADFIELDR' User name: 'Ryan Hadfield' User skill set: 'T3'",
      "lastReviewDate": "2021-04-06",
      "contact": [ {
        "telecom": [ {
          "value": "07777 888888"
        } ]
      } ],
      "subjectType": [ "Patient" ],
      "item": [ {
        "linkId": "59263",
        "prefix": "6000",
        "text": "What is the reason for the contact?",
        "type": "choice",
        "required": true,
        "repeats": false,
        "option": [ {
          "valueString": "a child protection/vulnerable adult concern (specify), Selected: false"
        }, {
          "valueString": "a social or domestic emergency, Selected: false"
        }, {
          "valueString": "a prescription request, Selected: true"
        }, {
          "valueString": "an appointment request, Selected: false"
        }, {
          "valueString": "a request for health or medication information, Selected: false"
        }, {
          "valueString": "public health alert information, Selected: false"
        } ]
      } ]
    }
  }, {
    "fullUrl": "urn:uuid:99b9cd8a-d0d4-4f67-852a-eee50de3716d",
    "resource": {
      "resourceType": "QuestionnaireResponse",
      "id": "99b9cd8a-d0d4-4f67-852a-eee50de3716d",
      "identifier": {
        "value": "59263"
      },
      "questionnaire": {
        "reference": "urn:uuid:d39fd94e-8ac0-453a-9716-4d0135007d1c"
      },
      "status": "completed",
      "subject": {
        "reference": "urn:uuid:9428c880-80e1-4619-81f3-f0f93e1bbb60"
      },
      "context": {
        "reference": "urn:uuid:dc16d226-55b4-4c41-b8df-9239c6db9160"
      },
      "authored": "2021-04-06T11:29:26+00:00",
      "item": [ {
        "linkId": "Tx220957",
        "text": "Is this contact about a new or worsening illness?",
        "answer": [ {
          "valueString": "no"
        } ]
      } ]
    }
  }, {
    "fullUrl": "urn:uuid:d39fd94e-8ac0-453a-9716-4d0135007d1c",
    "resource": {
      "resourceType": "Questionnaire",
      "id": "d39fd94e-8ac0-453a-9716-4d0135007d1c",
      "identifier": [ {
        "value": "59263"
      } ],
      "version": "2021-04-06T11:29:26.887Z",
      "status": "active",
      "experimental": false,
      "date": "2021-04-06T11:29:26+00:00",
      "publisher": "User ID: 'HADFIELDR' User name: 'Ryan Hadfield' User skill set: 'T3'",
      "lastReviewDate": "2021-04-06",
      "contact": [ {
        "telecom": [ {
          "value": "07777 888888"
        } ]
      } ],
      "subjectType": [ "Patient" ],
      "item": [ {
        "linkId": "59263",
        "prefix": "1400",
        "text": "Is this contact about a new or worsening illness?",
        "type": "choice",
        "required": true,
        "repeats": false,
        "option": [ {
          "valueString": "yes, Selected: false"
        }, {
          "valueString": "not sure, Selected: false"
        }, {
          "valueString": "no, Selected: true"
        } ]
      } ]
    }
  }, {
    "fullUrl": "urn:uuid:84011ace-747e-4902-914e-175ce22e995d",
    "resource": {
      "resourceType": "QuestionnaireResponse",
      "id": "84011ace-747e-4902-914e-175ce22e995d",
      "identifier": {
        "value": "59263"
      },
      "questionnaire": {
        "reference": "urn:uuid:89215dbc-87c7-4a32-8eda-8b37e0350af5"
      },
      "status": "completed",
      "subject": {
        "reference": "urn:uuid:9428c880-80e1-4619-81f3-f0f93e1bbb60"
      },
      "context": {
        "reference": "urn:uuid:dc16d226-55b4-4c41-b8df-9239c6db9160"
      },
      "authored": "2021-04-06T11:29:26+00:00",
      "item": [ {
        "linkId": "Tx221352",
        "text": "Have you got enough medication to last until the surgery opens?",
        "answer": [ {
          "valueString": "no"
        } ]
      } ]
    }
  }, {
    "fullUrl": "urn:uuid:89215dbc-87c7-4a32-8eda-8b37e0350af5",
    "resource": {
      "resourceType": "Questionnaire",
      "id": "89215dbc-87c7-4a32-8eda-8b37e0350af5",
      "identifier": [ {
        "value": "59263"
      } ],
      "version": "2021-04-06T11:29:26.887Z",
      "status": "active",
      "experimental": false,
      "date": "2021-04-06T11:29:26+00:00",
      "publisher": "User ID: 'HADFIELDR' User name: 'Ryan Hadfield' User skill set: 'T3'",
      "lastReviewDate": "2021-04-06",
      "contact": [ {
        "telecom": [ {
          "value": "07777 888888"
        } ]
      } ],
      "subjectType": [ "Patient" ],
      "item": [ {
        "linkId": "59263",
        "prefix": "1500",
        "text": "Have you got enough medication to last until the surgery opens?",
        "type": "choice",
        "required": true,
        "repeats": false,
        "option": [ {
          "valueString": "yes, Selected: false"
        }, {
          "valueString": "not sure, Selected: false"
        }, {
          "valueString": "no, Selected: true"
        } ]
      } ]
    }
  }, {
    "fullUrl": "urn:uuid:b52d751c-8ea8-42cf-814b-1844c288385e",
    "resource": {
      "resourceType": "QuestionnaireResponse",
      "id": "b52d751c-8ea8-42cf-814b-1844c288385e",
      "identifier": {
        "value": "59263"
      },
      "questionnaire": {
        "reference": "urn:uuid:b5a6db51-141f-4b36-9fa3-280aa39a3d92"
      },
      "status": "completed",
      "subject": {
        "reference": "urn:uuid:9428c880-80e1-4619-81f3-f0f93e1bbb60"
      },
      "context": {
        "reference": "urn:uuid:dc16d226-55b4-4c41-b8df-9239c6db9160"
      },
      "authored": "2021-04-06T11:29:26+00:00"
    }
  }, {
    "fullUrl": "urn:uuid:b5a6db51-141f-4b36-9fa3-280aa39a3d92",
    "resource": {
      "resourceType": "Questionnaire",
      "id": "b5a6db51-141f-4b36-9fa3-280aa39a3d92",
      "identifier": [ {
        "value": "59263"
      } ],
      "version": "2021-04-06T11:29:26.887Z",
      "status": "active",
      "experimental": false,
      "date": "2021-04-06T11:29:26+00:00",
      "publisher": "User ID: 'HADFIELDR' User name: 'Ryan Hadfield' User skill set: 'T3'",
      "lastReviewDate": "2021-04-06",
      "contact": [ {
        "telecom": [ {
          "value": "07777 888888"
        } ]
      } ],
      "subjectType": [ "Patient" ]
    }
  }, {
    "fullUrl": "urn:uuid:3fd5f749-9acc-47de-9db1-bde27458a211",
    "resource": {
      "resourceType": "QuestionnaireResponse",
      "id": "3fd5f749-9acc-47de-9db1-bde27458a211",
      "identifier": {
        "value": "59263"
      },
      "questionnaire": {
        "reference": "urn:uuid:c53721f1-8c00-44b9-bf66-ecfff46c748b"
      },
      "status": "completed",
      "subject": {
        "reference": "urn:uuid:9428c880-80e1-4619-81f3-f0f93e1bbb60"
      },
      "context": {
        "reference": "urn:uuid:dc16d226-55b4-4c41-b8df-9239c6db9160"
      },
      "authored": "2021-04-06T11:29:26+00:00",
      "item": [ {
        "linkId": "Tx224231",
        "text": "FROM WHAT YOU HAVE HEARD IS A CONSULTATION WITH A PRESCRIBER NEEDED?",
        "answer": [ {
          "valueString": "no"
        } ]
      } ]
    }
  }, {
    "fullUrl": "urn:uuid:c53721f1-8c00-44b9-bf66-ecfff46c748b",
    "resource": {
      "resourceType": "Questionnaire",
      "id": "c53721f1-8c00-44b9-bf66-ecfff46c748b",
      "identifier": [ {
        "value": "59263"
      } ],
      "version": "2021-04-06T11:29:26.887Z",
      "status": "active",
      "experimental": false,
      "date": "2021-04-06T11:29:26+00:00",
      "publisher": "User ID: 'HADFIELDR' User name: 'Ryan Hadfield' User skill set: 'T3'",
      "lastReviewDate": "2021-04-06",
      "contact": [ {
        "telecom": [ {
          "value": "07777 888888"
        } ]
      } ],
      "subjectType": [ "Patient" ],
      "item": [ {
        "linkId": "59263",
        "prefix": "0",
        "text": "FROM WHAT YOU HAVE HEARD IS A CONSULTATION WITH A PRESCRIBER NEEDED?",
        "type": "choice",
        "required": true,
        "repeats": false,
        "option": [ {
          "valueString": "yes, Selected: false"
        }, {
          "valueString": "not sure, Selected: false"
        }, {
          "valueString": "no, Selected: true"
        } ]
      } ]
    }
  }, {
    "fullUrl": "urn:uuid:4890c3b9-892c-4169-b6d4-7e7eb31c70dc",
    "resource": {
      "resourceType": "QuestionnaireResponse",
      "id": "4890c3b9-892c-4169-b6d4-7e7eb31c70dc",
      "identifier": {
        "value": "59263"
      },
      "questionnaire": {
        "reference": "urn:uuid:71cd7e0d-7567-4497-a640-427ec6a5bbd0"
      },
      "status": "completed",
      "subject": {
        "reference": "urn:uuid:9428c880-80e1-4619-81f3-f0f93e1bbb60"
      },
      "context": {
        "reference": "urn:uuid:dc16d226-55b4-4c41-b8df-9239c6db9160"
      },
      "authored": "2021-04-06T11:29:26+00:00",
      "item": [ {
        "linkId": "Tx222687",
        "text": "Have you got any of the medication available at the moment?",
        "answer": [ {
          "valueString": "no"
        } ]
      } ]
    }
  }, {
    "fullUrl": "urn:uuid:71cd7e0d-7567-4497-a640-427ec6a5bbd0",
    "resource": {
      "resourceType": "Questionnaire",
      "id": "71cd7e0d-7567-4497-a640-427ec6a5bbd0",
      "identifier": [ {
        "value": "59263"
      } ],
      "version": "2021-04-06T11:29:26.887Z",
      "status": "active",
      "experimental": false,
      "date": "2021-04-06T11:29:26+00:00",
      "publisher": "User ID: 'HADFIELDR' User name: 'Ryan Hadfield' User skill set: 'T3'",
      "lastReviewDate": "2021-04-06",
      "contact": [ {
        "telecom": [ {
          "value": "07777 888888"
        } ]
      } ],
      "subjectType": [ "Patient" ],
      "item": [ {
        "linkId": "59263",
        "prefix": "200",
        "text": "Have you got any of the medication available at the moment?",
        "type": "choice",
        "required": true,
        "repeats": false,
        "option": [ {
          "valueString": "yes, Selected: false"
        }, {
          "valueString": "not sure, Selected: false"
        }, {
          "valueString": "no, Selected: true"
        } ]
      } ]
    }
  }, {
    "fullUrl": "urn:uuid:2bb328e9-ce86-44bc-83d0-83d00b4fdba6",
    "resource": {
      "resourceType": "QuestionnaireResponse",
      "id": "2bb328e9-ce86-44bc-83d0-83d00b4fdba6",
      "identifier": {
        "value": "59263"
      },
      "questionnaire": {
        "reference": "urn:uuid:d731e1e2-09ec-43a7-ae25-865959309d22"
      },
      "status": "completed",
      "subject": {
        "reference": "urn:uuid:9428c880-80e1-4619-81f3-f0f93e1bbb60"
      },
      "context": {
        "reference": "urn:uuid:dc16d226-55b4-4c41-b8df-9239c6db9160"
      },
      "authored": "2021-04-06T11:29:26+00:00",
      "item": [ {
        "linkId": "Tx221367",
        "text": "When is the next dose due?",
        "answer": [ {
          "valueString": "within the next 12 hours"
        } ]
      } ]
    }
  }, {
    "fullUrl": "urn:uuid:d731e1e2-09ec-43a7-ae25-865959309d22",
    "resource": {
      "resourceType": "Questionnaire",
      "id": "d731e1e2-09ec-43a7-ae25-865959309d22",
      "identifier": [ {
        "value": "59263"
      } ],
      "version": "2021-04-06T11:29:26.887Z",
      "status": "active",
      "experimental": false,
      "date": "2021-04-06T11:29:26+00:00",
      "publisher": "User ID: 'HADFIELDR' User name: 'Ryan Hadfield' User skill set: 'T3'",
      "lastReviewDate": "2021-04-06",
      "contact": [ {
        "telecom": [ {
          "value": "07777 888888"
        } ]
      } ],
      "subjectType": [ "Patient" ],
      "item": [ {
        "linkId": "59263",
        "prefix": "100",
        "text": "When is the next dose due?",
        "type": "choice",
        "required": true,
        "repeats": false,
        "option": [ {
          "valueString": "within the next 2 hours, Selected: false"
        }, {
          "valueString": "within the next 6 hours, Selected: false"
        }, {
          "valueString": "within the next 12 hours, Selected: true"
        }, {
          "valueString": "over 12 hours time, Selected: false"
        }, {
          "valueString": "not sure, Selected: false"
        } ]
      } ]
    }
  }, {
    "fullUrl": "urn:uuid:4f548886-33fc-47dc-80a4-7d061834ece2",
    "resource": {
      "resourceType": "QuestionnaireResponse",
      "id": "4f548886-33fc-47dc-80a4-7d061834ece2",
      "identifier": {
        "value": "59263"
      },
      "questionnaire": {
        "reference": "urn:uuid:c0cbd779-e0c4-49c9-8906-796b26d0b7ae"
      },
      "status": "completed",
      "subject": {
        "reference": "urn:uuid:9428c880-80e1-4619-81f3-f0f93e1bbb60"
      },
      "context": {
        "reference": "urn:uuid:dc16d226-55b4-4c41-b8df-9239c6db9160"
      },
      "authored": "2021-04-06T11:29:26+00:00",
      "item": [ {
        "linkId": "Tx223441",
        "text": "STRING:SDPCRepeatPrescription",
        "answer": [ {
          "valueString": "\"PC repeat prescription\""
        } ]
      } ]
    }
  }, {
    "fullUrl": "urn:uuid:c0cbd779-e0c4-49c9-8906-796b26d0b7ae",
    "resource": {
      "resourceType": "Questionnaire",
      "id": "c0cbd779-e0c4-49c9-8906-796b26d0b7ae",
      "identifier": [ {
        "value": "59263"
      } ],
      "version": "2021-04-06T11:29:26.887Z",
      "status": "active",
      "experimental": false,
      "date": "2021-04-06T11:29:26+00:00",
      "publisher": "User ID: 'HADFIELDR' User name: 'Ryan Hadfield' User skill set: 'T3'",
      "lastReviewDate": "2021-04-06",
      "contact": [ {
        "telecom": [ {
          "value": "07777 888888"
        } ]
      } ],
      "subjectType": [ "Patient" ],
      "item": [ {
        "linkId": "59263",
        "prefix": "1200",
        "text": "STRING:SDPCRepeatPrescription",
        "type": "choice",
        "required": true,
        "repeats": false,
        "option": [ {
          "valueString": "\"PC repeat prescription\", Selected: true"
        } ]
      } ]
    }
  }, {
    "fullUrl": "urn:uuid:c9704d13-aa6c-4aca-9f8c-a4cc106be569",
    "resource": {
      "resourceType": "QuestionnaireResponse",
      "id": "c9704d13-aa6c-4aca-9f8c-a4cc106be569",
      "identifier": {
        "value": "59263"
      },
      "questionnaire": {
        "reference": "urn:uuid:922b376f-2a8f-4f69-b431-3d2fd0f68fb6"
      },
      "status": "completed",
      "subject": {
        "reference": "urn:uuid:9428c880-80e1-4619-81f3-f0f93e1bbb60"
      },
      "context": {
        "reference": "urn:uuid:dc16d226-55b4-4c41-b8df-9239c6db9160"
      },
      "authored": "2021-04-06T11:29:26+00:00"
    }
  }, {
    "fullUrl": "urn:uuid:922b376f-2a8f-4f69-b431-3d2fd0f68fb6",
    "resource": {
      "resourceType": "Questionnaire",
      "id": "922b376f-2a8f-4f69-b431-3d2fd0f68fb6",
      "identifier": [ {
        "value": "59263"
      } ],
      "version": "2021-04-06T11:29:26.887Z",
      "status": "active",
      "experimental": false,
      "date": "2021-04-06T11:29:26+00:00",
      "publisher": "User ID: 'HADFIELDR' User name: 'Ryan Hadfield' User skill set: 'T3'",
      "lastReviewDate": "2021-04-06",
      "contact": [ {
        "telecom": [ {
          "value": "07777 888888"
        } ]
      } ],
      "subjectType": [ "Patient" ]
    }
  }, {
    "fullUrl": "urn:uuid:35103f0f-d3f0-4b32-a176-703d47e39fe2",
    "resource": {
      "resourceType": "QuestionnaireResponse",
      "id": "35103f0f-d3f0-4b32-a176-703d47e39fe2",
      "identifier": {
        "value": "59263"
      },
      "questionnaire": {
        "reference": "urn:uuid:18520da3-ed5f-4fd5-9080-e8c914799e3f"
      },
      "status": "completed",
      "subject": {
        "reference": "urn:uuid:9428c880-80e1-4619-81f3-f0f93e1bbb60"
      },
      "context": {
        "reference": "urn:uuid:dc16d226-55b4-4c41-b8df-9239c6db9160"
      },
      "authored": "2021-04-06T11:29:26+00:00",
      "item": [ {
        "linkId": "Tx220074",
        "text": "What is the reason for the contact?",
        "answer": [ {
          "valueString": "an injury or other health problem"
        } ]
      } ]
    }
  }, {
    "fullUrl": "urn:uuid:18520da3-ed5f-4fd5-9080-e8c914799e3f",
    "resource": {
      "resourceType": "Questionnaire",
      "id": "18520da3-ed5f-4fd5-9080-e8c914799e3f",
      "identifier": [ {
        "value": "59263"
      } ],
      "version": "2021-04-06T11:29:26.887Z",
      "status": "active",
      "experimental": false,
      "date": "2021-04-06T11:29:26+00:00",
      "publisher": "User ID: 'HADFIELDR' User name: 'Ryan Hadfield' User skill set: 'T3'",
      "lastReviewDate": "2021-04-06",
      "contact": [ {
        "telecom": [ {
          "value": "07777 888888"
        } ]
      } ],
      "subjectType": [ "Patient" ],
      "item": [ {
        "linkId": "59263",
        "prefix": "5",
        "text": "What is the reason for the contact?",
        "type": "choice",
        "required": true,
        "repeats": false,
        "option": [ {
          "valueString": "an injury or other health problem, Selected: true"
        }, {
          "valueString": "labour or childbirth, Selected: false"
        }, {
          "valueString": "a need to access another healthcare service, Selected: false"
        }, {
          "valueString": "a healthcare professional requesting contact with another clinician, Selected: false"
        }, {
          "valueString": "a report of results or tests, Selected: false"
        }, {
          "valueString": "a possible failure of contraception, Selected: false"
        }, {
          "valueString": "more, Selected: false"
        } ]
      } ]
    }
  }, {
    "fullUrl": "urn:uuid:5cfda7a6-f16b-48d3-a9d6-9a8ffaac1276",
    "resource": {
      "resourceType": "QuestionnaireResponse",
      "id": "5cfda7a6-f16b-48d3-a9d6-9a8ffaac1276",
      "identifier": {
        "value": "59263"
      },
      "questionnaire": {
        "reference": "urn:uuid:d0c04f9f-a51c-4793-8da4-27fb7daa1e26"
      },
      "status": "completed",
      "subject": {
        "reference": "urn:uuid:9428c880-80e1-4619-81f3-f0f93e1bbb60"
      },
      "context": {
        "reference": "urn:uuid:dc16d226-55b4-4c41-b8df-9239c6db9160"
      },
      "authored": "2021-04-06T11:29:26+00:00",
      "item": [ {
        "linkId": "Tx221807",
        "text": "STRING:to'Immediatethreatstolife(SPA/OOHversion)'-'Majorbloodloss'stem",
        "answer": [ {
          "valueString": "\"present\""
        } ]
      } ]
    }
  }, {
    "fullUrl": "urn:uuid:d0c04f9f-a51c-4793-8da4-27fb7daa1e26",
    "resource": {
      "resourceType": "Questionnaire",
      "id": "d0c04f9f-a51c-4793-8da4-27fb7daa1e26",
      "identifier": [ {
        "value": "59263"
      } ],
      "version": "2021-04-06T11:29:26.887Z",
      "status": "active",
      "experimental": false,
      "date": "2021-04-06T11:29:26+00:00",
      "publisher": "User ID: 'HADFIELDR' User name: 'Ryan Hadfield' User skill set: 'T3'",
      "lastReviewDate": "2021-04-06",
      "contact": [ {
        "telecom": [ {
          "value": "07777 888888"
        } ]
      } ],
      "subjectType": [ "Patient" ],
      "item": [ {
        "linkId": "59263",
        "prefix": "200",
        "text": "STRING:to'Immediatethreatstolife(SPA/OOHversion)'-'Majorbloodloss'stem",
        "type": "choice",
        "required": true,
        "repeats": false,
        "option": [ {
          "valueString": "\"present\", Selected: true"
        } ]
      } ]
    }
  }, {
    "fullUrl": "urn:uuid:37e98fcc-66b0-48a8-b472-e2bb24fb3ad4",
    "resource": {
      "resourceType": "QuestionnaireResponse",
      "id": "37e98fcc-66b0-48a8-b472-e2bb24fb3ad4",
      "identifier": {
        "value": "59263"
      },
      "questionnaire": {
        "reference": "urn:uuid:7b2a34be-9310-47d7-a771-3bd65e17a393"
      },
      "status": "completed",
      "subject": {
        "reference": "urn:uuid:9428c880-80e1-4619-81f3-f0f93e1bbb60"
      },
      "context": {
        "reference": "urn:uuid:dc16d226-55b4-4c41-b8df-9239c6db9160"
      },
      "authored": "2021-04-06T11:29:26+00:00"
    }
  }, {
    "fullUrl": "urn:uuid:7b2a34be-9310-47d7-a771-3bd65e17a393",
    "resource": {
      "resourceType": "Questionnaire",
      "id": "7b2a34be-9310-47d7-a771-3bd65e17a393",
      "identifier": [ {
        "value": "59263"
      } ],
      "version": "2021-04-06T11:29:26.887Z",
      "status": "active",
      "experimental": false,
      "date": "2021-04-06T11:29:26+00:00",
      "publisher": "User ID: 'HADFIELDR' User name: 'Ryan Hadfield' User skill set: 'T3'",
      "lastReviewDate": "2021-04-06",
      "contact": [ {
        "telecom": [ {
          "value": "07777 888888"
        } ]
      } ],
      "subjectType": [ "Patient" ]
    }
  }, {
    "fullUrl": "urn:uuid:e44841aa-39ce-4478-bd49-38653718052f",
    "resource": {
      "resourceType": "QuestionnaireResponse",
      "id": "e44841aa-39ce-4478-bd49-38653718052f",
      "identifier": {
        "value": "59263"
      },
      "questionnaire": {
        "reference": "urn:uuid:aeb36d46-5551-402b-a3b0-3ed1720f0034"
      },
      "status": "completed",
      "subject": {
        "reference": "urn:uuid:9428c880-80e1-4619-81f3-f0f93e1bbb60"
      },
      "context": {
        "reference": "urn:uuid:dc16d226-55b4-4c41-b8df-9239c6db9160"
      },
      "authored": "2021-04-06T11:29:26+00:00",
      "item": [ {
        "linkId": "Tx221799",
        "text": "STRING:injury,illnessorlabourestablishedinEntryFlow",
        "answer": [ {
          "valueString": "\"present\""
        } ]
      } ]
    }
  }, {
    "fullUrl": "urn:uuid:aeb36d46-5551-402b-a3b0-3ed1720f0034",
    "resource": {
      "resourceType": "Questionnaire",
      "id": "aeb36d46-5551-402b-a3b0-3ed1720f0034",
      "identifier": [ {
        "value": "59263"
      } ],
      "version": "2021-04-06T11:29:26.887Z",
      "status": "active",
      "experimental": false,
      "date": "2021-04-06T11:29:26+00:00",
      "publisher": "User ID: 'HADFIELDR' User name: 'Ryan Hadfield' User skill set: 'T3'",
      "lastReviewDate": "2021-04-06",
      "contact": [ {
        "telecom": [ {
          "value": "07777 888888"
        } ]
      } ],
      "subjectType": [ "Patient" ],
      "item": [ {
        "linkId": "59263",
        "prefix": "0",
        "text": "STRING:injury,illnessorlabourestablishedinEntryFlow",
        "type": "choice",
        "required": true,
        "repeats": false,
        "option": [ {
          "valueString": "\"present\", Selected: true"
        } ]
      } ]
    }
  }, {
    "fullUrl": "urn:uuid:34fed9d9-3176-4c9c-aba3-946296676f91",
    "resource": {
      "resourceType": "QuestionnaireResponse",
      "id": "34fed9d9-3176-4c9c-aba3-946296676f91",
      "identifier": {
        "value": "59263"
      },
      "questionnaire": {
        "reference": "urn:uuid:36b5e0b9-0d1d-4a7c-a95e-9ab791251cc7"
      },
      "status": "completed",
      "subject": {
        "reference": "urn:uuid:9428c880-80e1-4619-81f3-f0f93e1bbb60"
      },
      "context": {
        "reference": "urn:uuid:dc16d226-55b4-4c41-b8df-9239c6db9160"
      },
      "authored": "2021-04-06T11:29:26+00:00",
      "item": [ {
        "linkId": "Tx224120",
        "text": "Have you been bleeding RED BLOOD very heavily IN THE LAST 2 HOURS?",
        "answer": [ {
          "valueString": "no"
        } ]
      } ]
    }
  }, {
    "fullUrl": "urn:uuid:36b5e0b9-0d1d-4a7c-a95e-9ab791251cc7",
    "resource": {
      "resourceType": "Questionnaire",
      "id": "36b5e0b9-0d1d-4a7c-a95e-9ab791251cc7",
      "identifier": [ {
        "value": "59263"
      } ],
      "version": "2021-04-06T11:29:26.887Z",
      "status": "active",
      "experimental": false,
      "date": "2021-04-06T11:29:26+00:00",
      "publisher": "User ID: 'HADFIELDR' User name: 'Ryan Hadfield' User skill set: 'T3'",
      "lastReviewDate": "2021-04-06",
      "contact": [ {
        "telecom": [ {
          "value": "07777 888888"
        } ]
      } ],
      "subjectType": [ "Patient" ],
      "item": [ {
        "linkId": "59263",
        "prefix": "10100",
        "text": "Have you been bleeding RED BLOOD very heavily IN THE LAST 2 HOURS?",
        "type": "choice",
        "required": true,
        "repeats": false,
        "option": [ {
          "valueString": "yes, Selected: false"
        }, {
          "valueString": "not sure, Selected: false"
        }, {
          "valueString": "no, Selected: true"
        } ]
      } ]
    }
  }, {
    "fullUrl": "urn:uuid:379d0c76-f7d8-40fa-a061-c16052f060e2",
    "resource": {
      "resourceType": "QuestionnaireResponse",
      "id": "379d0c76-f7d8-40fa-a061-c16052f060e2",
      "identifier": {
        "value": "59263"
      },
      "questionnaire": {
        "reference": "urn:uuid:f02ca7e7-9c1f-44e2-b65a-74dc142a7fe6"
      },
      "status": "completed",
      "subject": {
        "reference": "urn:uuid:9428c880-80e1-4619-81f3-f0f93e1bbb60"
      },
      "context": {
        "reference": "urn:uuid:dc16d226-55b4-4c41-b8df-9239c6db9160"
      },
      "authored": "2021-04-06T11:29:26+00:00",
      "item": [ {
        "linkId": "Tx221343",
        "text": "SocialConcernsExcluded",
        "answer": [ {
          "valueString": "*"
        } ]
      } ]
    }
  }, {
    "fullUrl": "urn:uuid:f02ca7e7-9c1f-44e2-b65a-74dc142a7fe6",
    "resource": {
      "resourceType": "Questionnaire",
      "id": "f02ca7e7-9c1f-44e2-b65a-74dc142a7fe6",
      "identifier": [ {
        "value": "59263"
      } ],
      "version": "2021-04-06T11:29:26.887Z",
      "status": "active",
      "experimental": false,
      "date": "2021-04-06T11:29:26+00:00",
      "publisher": "User ID: 'HADFIELDR' User name: 'Ryan Hadfield' User skill set: 'T3'",
      "lastReviewDate": "2021-04-06",
      "contact": [ {
        "telecom": [ {
          "value": "07777 888888"
        } ]
      } ],
      "subjectType": [ "Patient" ],
      "item": [ {
        "linkId": "59263",
        "prefix": "1100",
        "text": "SocialConcernsExcluded",
        "type": "choice",
        "required": true,
        "repeats": false,
        "option": [ {
          "valueString": "==\"present\", Selected: false"
        }, {
          "valueString": "*, Selected: true"
        } ]
      } ]
    }
  }, {
    "fullUrl": "urn:uuid:1acb0d9c-0f42-4395-8640-bc112ccdeeae",
    "resource": {
      "resourceType": "QuestionnaireResponse",
      "id": "1acb0d9c-0f42-4395-8640-bc112ccdeeae",
      "identifier": {
        "value": "59263"
      },
      "questionnaire": {
        "reference": "urn:uuid:d8b11136-205f-4a2a-951d-82198b9375ce"
      },
      "status": "completed",
      "subject": {
        "reference": "urn:uuid:9428c880-80e1-4619-81f3-f0f93e1bbb60"
      },
      "context": {
        "reference": "urn:uuid:dc16d226-55b4-4c41-b8df-9239c6db9160"
      },
      "authored": "2021-04-06T11:29:26+00:00",
      "item": [ {
        "linkId": "Tx130011",
        "text": "What is the main problem?"
      } ]
    }
  }, {
    "fullUrl": "urn:uuid:d8b11136-205f-4a2a-951d-82198b9375ce",
    "resource": {
      "resourceType": "Questionnaire",
      "id": "d8b11136-205f-4a2a-951d-82198b9375ce",
      "identifier": [ {
        "value": "59263"
      } ],
      "version": "2021-04-06T11:29:26.887Z",
      "status": "active",
      "experimental": false,
      "date": "2021-04-06T11:29:26+00:00",
      "publisher": "User ID: 'HADFIELDR' User name: 'Ryan Hadfield' User skill set: 'T3'",
      "lastReviewDate": "2021-04-06",
      "contact": [ {
        "telecom": [ {
          "value": "07777 888888"
        } ]
      } ],
      "subjectType": [ "Patient" ],
      "item": [ {
        "linkId": "59263",
        "prefix": "2300",
        "text": "What is the main problem?",
        "type": "choice",
        "required": true,
        "repeats": false,
        "option": [ {
          "valueString": "the individual has been told to follow a particular course of action (specify), Selected: false"
        }, {
          "valueString": "the individual is an identified frequent caller, Selected: false"
        }, {
          "valueString": "injury (specify), Selected: false"
        }, {
          "valueString": "illness or other health problem (specify), Selected: false"
        }, {
          "valueString": "child protection/vulnerable adult concern, Selected: false"
        }, {
          "valueString": "social or domestic emergency, Selected: false"
        }, {
          "valueString": "the environment potentially poses an immediate threat to life (specify), Selected: false"
        } ]
      } ]
    }
  }, {
    "fullUrl": "urn:uuid:2b1c020f-9878-436a-af1d-cdc3edcb3db2",
    "resource": {
      "resourceType": "QuestionnaireResponse",
      "id": "2b1c020f-9878-436a-af1d-cdc3edcb3db2",
      "identifier": {
        "value": "59263"
      },
      "questionnaire": {
        "reference": "urn:uuid:9aa1e748-2f96-406a-8ca4-bdd4bd494c82"
      },
      "status": "completed",
      "subject": {
        "reference": "urn:uuid:9428c880-80e1-4619-81f3-f0f93e1bbb60"
      },
      "context": {
        "reference": "urn:uuid:dc16d226-55b4-4c41-b8df-9239c6db9160"
      },
      "authored": "2021-04-06T11:29:26+00:00",
      "item": [ {
        "linkId": "Tx220074",
        "text": "What is the reason for the contact?",
        "answer": [ {
          "valueString": "more"
        } ]
      } ]
    }
  }, {
    "fullUrl": "urn:uuid:9aa1e748-2f96-406a-8ca4-bdd4bd494c82",
    "resource": {
      "resourceType": "Questionnaire",
      "id": "9aa1e748-2f96-406a-8ca4-bdd4bd494c82",
      "identifier": [ {
        "value": "59263"
      } ],
      "version": "2021-04-06T11:29:26.887Z",
      "status": "active",
      "experimental": false,
      "date": "2021-04-06T11:29:26+00:00",
      "publisher": "User ID: 'HADFIELDR' User name: 'Ryan Hadfield' User skill set: 'T3'",
      "lastReviewDate": "2021-04-06",
      "contact": [ {
        "telecom": [ {
          "value": "07777 888888"
        } ]
      } ],
      "subjectType": [ "Patient" ],
      "item": [ {
        "linkId": "59263",
        "prefix": "5",
        "text": "What is the reason for the contact?",
        "type": "choice",
        "required": true,
        "repeats": false,
        "option": [ {
          "valueString": "an injury or other health problem, Selected: false"
        }, {
          "valueString": "labour or childbirth, Selected: false"
        }, {
          "valueString": "a need to access another healthcare service, Selected: false"
        }, {
          "valueString": "a healthcare professional requesting contact with another clinician, Selected: false"
        }, {
          "valueString": "a report of results or tests, Selected: false"
        }, {
          "valueString": "a possible failure of contraception, Selected: false"
        }, {
          "valueString": "more, Selected: true"
        } ]
      } ]
    }
  }, {
    "fullUrl": "urn:uuid:b5d8d257-45ad-4dfe-8fe4-171a31c00fe9",
    "resource": {
      "resourceType": "QuestionnaireResponse",
      "id": "b5d8d257-45ad-4dfe-8fe4-171a31c00fe9",
      "identifier": {
        "value": "59263"
      },
      "questionnaire": {
        "reference": "urn:uuid:0954f7f2-d69a-4b03-b032-683e64a6f0a6"
      },
      "status": "completed",
      "subject": {
        "reference": "urn:uuid:9428c880-80e1-4619-81f3-f0f93e1bbb60"
      },
      "context": {
        "reference": "urn:uuid:dc16d226-55b4-4c41-b8df-9239c6db9160"
      },
      "authored": "2021-04-06T11:29:26+00:00",
      "item": [ {
        "linkId": "Tx221793",
        "text": "STRING:to'Social&information'-further'Callreason'menu",
        "answer": [ {
          "valueString": "\"present\""
        } ]
      } ]
    }
  }, {
    "fullUrl": "urn:uuid:0954f7f2-d69a-4b03-b032-683e64a6f0a6",
    "resource": {
      "resourceType": "Questionnaire",
      "id": "0954f7f2-d69a-4b03-b032-683e64a6f0a6",
      "identifier": [ {
        "value": "59263"
      } ],
      "version": "2021-04-06T11:29:26.887Z",
      "status": "active",
      "experimental": false,
      "date": "2021-04-06T11:29:26+00:00",
      "publisher": "User ID: 'HADFIELDR' User name: 'Ryan Hadfield' User skill set: 'T3'",
      "lastReviewDate": "2021-04-06",
      "contact": [ {
        "telecom": [ {
          "value": "07777 888888"
        } ]
      } ],
      "subjectType": [ "Patient" ],
      "item": [ {
        "linkId": "59263",
        "prefix": "600",
        "text": "STRING:to'Social&information'-further'Callreason'menu",
        "type": "choice",
        "required": true,
        "repeats": false,
        "option": [ {
          "valueString": "\"present\", Selected: true"
        } ]
      } ]
    }
  }, {
    "fullUrl": "urn:uuid:77d18322-e46c-4b1d-821b-a09263989cb1",
    "resource": {
      "resourceType": "QuestionnaireResponse",
      "id": "77d18322-e46c-4b1d-821b-a09263989cb1",
      "identifier": {
        "value": "59263"
      },
      "questionnaire": {
        "reference": "urn:uuid:8097d7ad-db2b-4528-b239-e151758cf2fd"
      },
      "status": "completed",
      "subject": {
        "reference": "urn:uuid:9428c880-80e1-4619-81f3-f0f93e1bbb60"
      },
      "context": {
        "reference": "urn:uuid:dc16d226-55b4-4c41-b8df-9239c6db9160"
      },
      "authored": "2021-04-06T11:29:26+00:00"
    }
  }, {
    "fullUrl": "urn:uuid:8097d7ad-db2b-4528-b239-e151758cf2fd",
    "resource": {
      "resourceType": "Questionnaire",
      "id": "8097d7ad-db2b-4528-b239-e151758cf2fd",
      "identifier": [ {
        "value": "59263"
      } ],
      "version": "2021-04-06T11:29:26.887Z",
      "status": "active",
      "experimental": false,
      "date": "2021-04-06T11:29:26+00:00",
      "publisher": "User ID: 'HADFIELDR' User name: 'Ryan Hadfield' User skill set: 'T3'",
      "lastReviewDate": "2021-04-06",
      "contact": [ {
        "telecom": [ {
          "value": "07777 888888"
        } ]
      } ],
      "subjectType": [ "Patient" ]
    }
  }, {
    "fullUrl": "urn:uuid:6b5c452a-5f75-4cb7-be1b-86f4441e4783",
    "resource": {
      "resourceType": "QuestionnaireResponse",
      "id": "6b5c452a-5f75-4cb7-be1b-86f4441e4783",
      "identifier": {
        "value": "59263"
      },
      "questionnaire": {
        "reference": "urn:uuid:5f9aabec-50a5-4b75-a4f3-ef41b771bd0c"
      },
      "status": "completed",
      "subject": {
        "reference": "urn:uuid:9428c880-80e1-4619-81f3-f0f93e1bbb60"
      },
      "context": {
        "reference": "urn:uuid:dc16d226-55b4-4c41-b8df-9239c6db9160"
      },
      "authored": "2021-04-06T11:29:26+00:00",
      "item": [ {
        "linkId": "Tx221804",
        "text": "STRING:transfertofurthermenuquestionestablishedinEntryFlow",
        "answer": [ {
          "valueString": "\"present\""
        } ]
      } ]
    }
  }, {
    "fullUrl": "urn:uuid:5f9aabec-50a5-4b75-a4f3-ef41b771bd0c",
    "resource": {
      "resourceType": "Questionnaire",
      "id": "5f9aabec-50a5-4b75-a4f3-ef41b771bd0c",
      "identifier": [ {
        "value": "59263"
      } ],
      "version": "2021-04-06T11:29:26.887Z",
      "status": "active",
      "experimental": false,
      "date": "2021-04-06T11:29:26+00:00",
      "publisher": "User ID: 'HADFIELDR' User name: 'Ryan Hadfield' User skill set: 'T3'",
      "lastReviewDate": "2021-04-06",
      "contact": [ {
        "telecom": [ {
          "value": "07777 888888"
        } ]
      } ],
      "subjectType": [ "Patient" ],
      "item": [ {
        "linkId": "59263",
        "prefix": "41",
        "text": "STRING:transfertofurthermenuquestionestablishedinEntryFlow",
        "type": "choice",
        "required": true,
        "repeats": false,
        "option": [ {
          "valueString": "\"present\", Selected: true"
        } ]
      } ]
    }
  }, {
    "fullUrl": "urn:uuid:257f293f-e3e0-4c1b-be54-8bc1b2c17310",
    "resource": {
      "resourceType": "QuestionnaireResponse",
      "id": "257f293f-e3e0-4c1b-be54-8bc1b2c17310",
      "identifier": {
        "value": "59263"
      },
      "questionnaire": {
        "reference": "urn:uuid:31e1679f-587f-4873-9fcf-1ea3afc7a50f"
      },
      "status": "completed",
      "subject": {
        "reference": "urn:uuid:9428c880-80e1-4619-81f3-f0f93e1bbb60"
      },
      "context": {
        "reference": "urn:uuid:dc16d226-55b4-4c41-b8df-9239c6db9160"
      },
      "authored": "2021-04-06T11:29:26+00:00",
      "item": [ {
        "linkId": "Tx224998",
        "text": "SYSTEM_COVIDLEVEL2",
        "answer": [ {
          "valueString": "==\"covidlevel2\""
        } ]
      } ]
    }
  }, {
    "fullUrl": "urn:uuid:31e1679f-587f-4873-9fcf-1ea3afc7a50f",
    "resource": {
      "resourceType": "Questionnaire",
      "id": "31e1679f-587f-4873-9fcf-1ea3afc7a50f",
      "identifier": [ {
        "value": "59263"
      } ],
      "version": "2021-04-06T11:29:26.887Z",
      "status": "active",
      "experimental": false,
      "date": "2021-04-06T11:29:26+00:00",
      "publisher": "User ID: 'HADFIELDR' User name: 'Ryan Hadfield' User skill set: 'T3'",
      "lastReviewDate": "2021-04-06",
      "contact": [ {
        "telecom": [ {
          "value": "07777 888888"
        } ]
      } ],
      "subjectType": [ "Patient" ],
      "item": [ {
        "linkId": "59263",
        "prefix": "5900",
        "text": "SYSTEM_COVIDLEVEL2",
        "type": "choice",
        "required": true,
        "repeats": false,
        "option": [ {
          "valueString": "==\"covidlevel2\", Selected: true"
        }, {
          "valueString": "*, Selected: false"
        } ]
      } ]
    }
  }, {
    "fullUrl": "urn:uuid:127db0e6-1f45-45aa-9119-c320fa2a7779",
    "resource": {
      "resourceType": "QuestionnaireResponse",
      "id": "127db0e6-1f45-45aa-9119-c320fa2a7779",
      "identifier": {
        "value": "59263"
      },
      "questionnaire": {
        "reference": "urn:uuid:87aa1ab8-7f05-4783-b9f5-d44ef8b168fa"
      },
      "status": "completed",
      "subject": {
        "reference": "urn:uuid:9428c880-80e1-4619-81f3-f0f93e1bbb60"
      },
      "context": {
        "reference": "urn:uuid:dc16d226-55b4-4c41-b8df-9239c6db9160"
      },
      "authored": "2021-04-06T11:29:26+00:00",
      "item": [ {
        "linkId": "Tx225069",
        "text": "What is the reason for the contact?",
        "answer": [ {
          "valueString": "a prescription request"
        } ]
      } ]
    }
  }, {
    "fullUrl": "urn:uuid:87aa1ab8-7f05-4783-b9f5-d44ef8b168fa",
    "resource": {
      "resourceType": "Questionnaire",
      "id": "87aa1ab8-7f05-4783-b9f5-d44ef8b168fa",
      "identifier": [ {
        "value": "59263"
      } ],
      "version": "2021-04-06T11:29:26.887Z",
      "status": "active",
      "experimental": false,
      "date": "2021-04-06T11:29:26+00:00",
      "publisher": "User ID: 'HADFIELDR' User name: 'Ryan Hadfield' User skill set: 'T3'",
      "lastReviewDate": "2021-04-06",
      "contact": [ {
        "telecom": [ {
          "value": "07777 888888"
        } ]
      } ],
      "subjectType": [ "Patient" ],
      "item": [ {
        "linkId": "59263",
        "prefix": "6000",
        "text": "What is the reason for the contact?",
        "type": "choice",
        "required": true,
        "repeats": false,
        "option": [ {
          "valueString": "a child protection/vulnerable adult concern (specify), Selected: false"
        }, {
          "valueString": "a social or domestic emergency, Selected: false"
        }, {
          "valueString": "a prescription request, Selected: true"
        }, {
          "valueString": "an appointment request, Selected: false"
        }, {
          "valueString": "a request for health or medication information, Selected: false"
        }, {
          "valueString": "public health alert information, Selected: false"
        } ]
      } ]
    }
  }, {
    "fullUrl": "urn:uuid:2b897e5b-51cd-455f-b800-d421e8012b59",
    "resource": {
      "resourceType": "QuestionnaireResponse",
      "id": "2b897e5b-51cd-455f-b800-d421e8012b59",
      "identifier": {
        "value": "59263"
      },
      "questionnaire": {
        "reference": "urn:uuid:51b3110b-1c07-4e65-92cd-0e478d9d7de1"
      },
      "status": "completed",
      "subject": {
        "reference": "urn:uuid:9428c880-80e1-4619-81f3-f0f93e1bbb60"
      },
      "context": {
        "reference": "urn:uuid:dc16d226-55b4-4c41-b8df-9239c6db9160"
      },
      "authored": "2021-04-06T11:29:26+00:00",
      "item": [ {
        "linkId": "Tx220957",
        "text": "Is this contact about a new or worsening illness?",
        "answer": [ {
          "valueString": "no"
        } ]
      } ]
    }
  }, {
    "fullUrl": "urn:uuid:51b3110b-1c07-4e65-92cd-0e478d9d7de1",
    "resource": {
      "resourceType": "Questionnaire",
      "id": "51b3110b-1c07-4e65-92cd-0e478d9d7de1",
      "identifier": [ {
        "value": "59263"
      } ],
      "version": "2021-04-06T11:29:26.887Z",
      "status": "active",
      "experimental": false,
      "date": "2021-04-06T11:29:26+00:00",
      "publisher": "User ID: 'HADFIELDR' User name: 'Ryan Hadfield' User skill set: 'T3'",
      "lastReviewDate": "2021-04-06",
      "contact": [ {
        "telecom": [ {
          "value": "07777 888888"
        } ]
      } ],
      "subjectType": [ "Patient" ],
      "item": [ {
        "linkId": "59263",
        "prefix": "1400",
        "text": "Is this contact about a new or worsening illness?",
        "type": "choice",
        "required": true,
        "repeats": false,
        "option": [ {
          "valueString": "yes, Selected: false"
        }, {
          "valueString": "not sure, Selected: false"
        }, {
          "valueString": "no, Selected: true"
        } ]
      } ]
    }
  }, {
    "fullUrl": "urn:uuid:08b4b3cc-cc57-4b2e-95b0-c0a0bbac99dc",
    "resource": {
      "resourceType": "QuestionnaireResponse",
      "id": "08b4b3cc-cc57-4b2e-95b0-c0a0bbac99dc",
      "identifier": {
        "value": "59263"
      },
      "questionnaire": {
        "reference": "urn:uuid:de90372a-7aa8-40d2-ad15-2792b4d4aec6"
      },
      "status": "completed",
      "subject": {
        "reference": "urn:uuid:9428c880-80e1-4619-81f3-f0f93e1bbb60"
      },
      "context": {
        "reference": "urn:uuid:dc16d226-55b4-4c41-b8df-9239c6db9160"
      },
      "authored": "2021-04-06T11:29:26+00:00",
      "item": [ {
        "linkId": "Tx221352",
        "text": "Have you got enough medication to last until the surgery opens?",
        "answer": [ {
          "valueString": "no"
        } ]
      } ]
    }
  }, {
    "fullUrl": "urn:uuid:de90372a-7aa8-40d2-ad15-2792b4d4aec6",
    "resource": {
      "resourceType": "Questionnaire",
      "id": "de90372a-7aa8-40d2-ad15-2792b4d4aec6",
      "identifier": [ {
        "value": "59263"
      } ],
      "version": "2021-04-06T11:29:26.887Z",
      "status": "active",
      "experimental": false,
      "date": "2021-04-06T11:29:26+00:00",
      "publisher": "User ID: 'HADFIELDR' User name: 'Ryan Hadfield' User skill set: 'T3'",
      "lastReviewDate": "2021-04-06",
      "contact": [ {
        "telecom": [ {
          "value": "07777 888888"
        } ]
      } ],
      "subjectType": [ "Patient" ],
      "item": [ {
        "linkId": "59263",
        "prefix": "1500",
        "text": "Have you got enough medication to last until the surgery opens?",
        "type": "choice",
        "required": true,
        "repeats": false,
        "option": [ {
          "valueString": "yes, Selected: false"
        }, {
          "valueString": "not sure, Selected: false"
        }, {
          "valueString": "no, Selected: true"
        } ]
      } ]
    }
  }, {
    "fullUrl": "urn:uuid:e25d910d-6f13-4926-b9cf-05bc122418e5",
    "resource": {
      "resourceType": "QuestionnaireResponse",
      "id": "e25d910d-6f13-4926-b9cf-05bc122418e5",
      "identifier": {
        "value": "59263"
      },
      "questionnaire": {
        "reference": "urn:uuid:50426a6c-f38f-4d97-ae10-87850accc837"
      },
      "status": "completed",
      "subject": {
        "reference": "urn:uuid:9428c880-80e1-4619-81f3-f0f93e1bbb60"
      },
      "context": {
        "reference": "urn:uuid:dc16d226-55b4-4c41-b8df-9239c6db9160"
      },
      "authored": "2021-04-06T11:29:26+00:00"
    }
  }, {
    "fullUrl": "urn:uuid:50426a6c-f38f-4d97-ae10-87850accc837",
    "resource": {
      "resourceType": "Questionnaire",
      "id": "50426a6c-f38f-4d97-ae10-87850accc837",
      "identifier": [ {
        "value": "59263"
      } ],
      "version": "2021-04-06T11:29:26.887Z",
      "status": "active",
      "experimental": false,
      "date": "2021-04-06T11:29:26+00:00",
      "publisher": "User ID: 'HADFIELDR' User name: 'Ryan Hadfield' User skill set: 'T3'",
      "lastReviewDate": "2021-04-06",
      "contact": [ {
        "telecom": [ {
          "value": "07777 888888"
        } ]
      } ],
      "subjectType": [ "Patient" ]
    }
  }, {
    "fullUrl": "urn:uuid:82310273-7e17-4392-a32d-3c1f09df9803",
    "resource": {
      "resourceType": "QuestionnaireResponse",
      "id": "82310273-7e17-4392-a32d-3c1f09df9803",
      "identifier": {
        "value": "59263"
      },
      "questionnaire": {
        "reference": "urn:uuid:434adb41-0b2b-4b0c-81dc-61e7db4967e6"
      },
      "status": "completed",
      "subject": {
        "reference": "urn:uuid:9428c880-80e1-4619-81f3-f0f93e1bbb60"
      },
      "context": {
        "reference": "urn:uuid:dc16d226-55b4-4c41-b8df-9239c6db9160"
      },
      "authored": "2021-04-06T11:29:26+00:00",
      "item": [ {
        "linkId": "Tx224231",
        "text": "FROM WHAT YOU HAVE HEARD IS A CONSULTATION WITH A PRESCRIBER NEEDED?",
        "answer": [ {
          "valueString": "no"
        } ]
      } ]
    }
  }, {
    "fullUrl": "urn:uuid:434adb41-0b2b-4b0c-81dc-61e7db4967e6",
    "resource": {
      "resourceType": "Questionnaire",
      "id": "434adb41-0b2b-4b0c-81dc-61e7db4967e6",
      "identifier": [ {
        "value": "59263"
      } ],
      "version": "2021-04-06T11:29:26.887Z",
      "status": "active",
      "experimental": false,
      "date": "2021-04-06T11:29:26+00:00",
      "publisher": "User ID: 'HADFIELDR' User name: 'Ryan Hadfield' User skill set: 'T3'",
      "lastReviewDate": "2021-04-06",
      "contact": [ {
        "telecom": [ {
          "value": "07777 888888"
        } ]
      } ],
      "subjectType": [ "Patient" ],
      "item": [ {
        "linkId": "59263",
        "prefix": "0",
        "text": "FROM WHAT YOU HAVE HEARD IS A CONSULTATION WITH A PRESCRIBER NEEDED?",
        "type": "choice",
        "required": true,
        "repeats": false,
        "option": [ {
          "valueString": "yes, Selected: false"
        }, {
          "valueString": "not sure, Selected: false"
        }, {
          "valueString": "no, Selected: true"
        } ]
      } ]
    }
  }, {
    "fullUrl": "urn:uuid:52f43296-83a7-4e8d-816c-031d76a46361",
    "resource": {
      "resourceType": "QuestionnaireResponse",
      "id": "52f43296-83a7-4e8d-816c-031d76a46361",
      "identifier": {
        "value": "59263"
      },
      "questionnaire": {
        "reference": "urn:uuid:bedaf6f0-9bbe-4126-aab7-f941288a0893"
      },
      "status": "completed",
      "subject": {
        "reference": "urn:uuid:9428c880-80e1-4619-81f3-f0f93e1bbb60"
      },
      "context": {
        "reference": "urn:uuid:dc16d226-55b4-4c41-b8df-9239c6db9160"
      },
      "authored": "2021-04-06T11:29:26+00:00",
      "item": [ {
        "linkId": "Tx222687",
        "text": "Have you got any of the medication available at the moment?",
        "answer": [ {
          "valueString": "no"
        } ]
      } ]
    }
  }, {
    "fullUrl": "urn:uuid:bedaf6f0-9bbe-4126-aab7-f941288a0893",
    "resource": {
      "resourceType": "Questionnaire",
      "id": "bedaf6f0-9bbe-4126-aab7-f941288a0893",
      "identifier": [ {
        "value": "59263"
      } ],
      "version": "2021-04-06T11:29:26.887Z",
      "status": "active",
      "experimental": false,
      "date": "2021-04-06T11:29:26+00:00",
      "publisher": "User ID: 'HADFIELDR' User name: 'Ryan Hadfield' User skill set: 'T3'",
      "lastReviewDate": "2021-04-06",
      "contact": [ {
        "telecom": [ {
          "value": "07777 888888"
        } ]
      } ],
      "subjectType": [ "Patient" ],
      "item": [ {
        "linkId": "59263",
        "prefix": "200",
        "text": "Have you got any of the medication available at the moment?",
        "type": "choice",
        "required": true,
        "repeats": false,
        "option": [ {
          "valueString": "yes, Selected: false"
        }, {
          "valueString": "not sure, Selected: false"
        }, {
          "valueString": "no, Selected: true"
        } ]
      } ]
    }
  }, {
    "fullUrl": "urn:uuid:d04f5e33-d4e7-4235-8cbc-ef8b805b20ed",
    "resource": {
      "resourceType": "QuestionnaireResponse",
      "id": "d04f5e33-d4e7-4235-8cbc-ef8b805b20ed",
      "identifier": {
        "value": "59263"
      },
      "questionnaire": {
        "reference": "urn:uuid:4330f138-d44e-4158-9370-6c8489d699ac"
      },
      "status": "completed",
      "subject": {
        "reference": "urn:uuid:9428c880-80e1-4619-81f3-f0f93e1bbb60"
      },
      "context": {
        "reference": "urn:uuid:dc16d226-55b4-4c41-b8df-9239c6db9160"
      },
      "authored": "2021-04-06T11:29:26+00:00",
      "item": [ {
        "linkId": "Tx221367",
        "text": "When is the next dose due?",
        "answer": [ {
          "valueString": "within the next 12 hours"
        } ]
      } ]
    }
  }, {
    "fullUrl": "urn:uuid:4330f138-d44e-4158-9370-6c8489d699ac",
    "resource": {
      "resourceType": "Questionnaire",
      "id": "4330f138-d44e-4158-9370-6c8489d699ac",
      "identifier": [ {
        "value": "59263"
      } ],
      "version": "2021-04-06T11:29:26.887Z",
      "status": "active",
      "experimental": false,
      "date": "2021-04-06T11:29:26+00:00",
      "publisher": "User ID: 'HADFIELDR' User name: 'Ryan Hadfield' User skill set: 'T3'",
      "lastReviewDate": "2021-04-06",
      "contact": [ {
        "telecom": [ {
          "value": "07777 888888"
        } ]
      } ],
      "subjectType": [ "Patient" ],
      "item": [ {
        "linkId": "59263",
        "prefix": "100",
        "text": "When is the next dose due?",
        "type": "choice",
        "required": true,
        "repeats": false,
        "option": [ {
          "valueString": "within the next 2 hours, Selected: false"
        }, {
          "valueString": "within the next 6 hours, Selected: false"
        }, {
          "valueString": "within the next 12 hours, Selected: true"
        }, {
          "valueString": "over 12 hours time, Selected: false"
        }, {
          "valueString": "not sure, Selected: false"
        } ]
      } ]
    }
  }, {
    "fullUrl": "urn:uuid:397332d6-fa79-49cc-8467-61e56b53276d",
    "resource": {
      "resourceType": "QuestionnaireResponse",
      "id": "397332d6-fa79-49cc-8467-61e56b53276d",
      "identifier": {
        "value": "59263"
      },
      "questionnaire": {
        "reference": "urn:uuid:0f6a185d-11b2-4306-94db-e2dab83610c8"
      },
      "status": "completed",
      "subject": {
        "reference": "urn:uuid:9428c880-80e1-4619-81f3-f0f93e1bbb60"
      },
      "context": {
        "reference": "urn:uuid:dc16d226-55b4-4c41-b8df-9239c6db9160"
      },
      "authored": "2021-04-06T11:29:26+00:00",
      "item": [ {
        "linkId": "Tx223441",
        "text": "STRING:SDPCRepeatPrescription",
        "answer": [ {
          "valueString": "\"PC repeat prescription\""
        } ]
      } ]
    }
  }, {
    "fullUrl": "urn:uuid:0f6a185d-11b2-4306-94db-e2dab83610c8",
    "resource": {
      "resourceType": "Questionnaire",
      "id": "0f6a185d-11b2-4306-94db-e2dab83610c8",
      "identifier": [ {
        "value": "59263"
      } ],
      "version": "2021-04-06T11:29:26.887Z",
      "status": "active",
      "experimental": false,
      "date": "2021-04-06T11:29:26+00:00",
      "publisher": "User ID: 'HADFIELDR' User name: 'Ryan Hadfield' User skill set: 'T3'",
      "lastReviewDate": "2021-04-06",
      "contact": [ {
        "telecom": [ {
          "value": "07777 888888"
        } ]
      } ],
      "subjectType": [ "Patient" ],
      "item": [ {
        "linkId": "59263",
        "prefix": "1200",
        "text": "STRING:SDPCRepeatPrescription",
        "type": "choice",
        "required": true,
        "repeats": false,
        "option": [ {
          "valueString": "\"PC repeat prescription\", Selected: true"
        } ]
      } ]
    }
  }, {
    "fullUrl": "urn:uuid:087e0d28-98dc-4f7d-bf4c-4fff25a156ea",
    "resource": {
      "resourceType": "QuestionnaireResponse",
      "id": "087e0d28-98dc-4f7d-bf4c-4fff25a156ea",
      "identifier": {
        "value": "59263"
      },
      "questionnaire": {
        "reference": "urn:uuid:112ec83e-c9a4-4020-a06f-5ecd3e3d091b"
      },
      "status": "completed",
      "subject": {
        "reference": "urn:uuid:9428c880-80e1-4619-81f3-f0f93e1bbb60"
      },
      "context": {
        "reference": "urn:uuid:dc16d226-55b4-4c41-b8df-9239c6db9160"
      },
      "authored": "2021-04-06T11:29:26+00:00"
    }
  }, {
    "fullUrl": "urn:uuid:112ec83e-c9a4-4020-a06f-5ecd3e3d091b",
    "resource": {
      "resourceType": "Questionnaire",
      "id": "112ec83e-c9a4-4020-a06f-5ecd3e3d091b",
      "identifier": [ {
        "value": "59263"
      } ],
      "version": "2021-04-06T11:29:26.887Z",
      "status": "active",
      "experimental": false,
      "date": "2021-04-06T11:29:26+00:00",
      "publisher": "User ID: 'HADFIELDR' User name: 'Ryan Hadfield' User skill set: 'T3'",
      "lastReviewDate": "2021-04-06",
      "contact": [ {
        "telecom": [ {
          "value": "07777 888888"
        } ]
      } ],
      "subjectType": [ "Patient" ]
    }
  }, {
    "fullUrl": "urn:uuid:252d36bf-b482-4251-9339-4e5aed1c6695",
    "resource": {
      "resourceType": "QuestionnaireResponse",
      "id": "252d36bf-b482-4251-9339-4e5aed1c6695",
      "identifier": {
        "value": "59263"
      },
      "questionnaire": {
        "reference": "urn:uuid:ffeb4d17-3614-4d6c-83bc-bae4fee6c9d7"
      },
      "status": "completed",
      "subject": {
        "reference": "urn:uuid:9428c880-80e1-4619-81f3-f0f93e1bbb60"
      },
      "context": {
        "reference": "urn:uuid:dc16d226-55b4-4c41-b8df-9239c6db9160"
      },
      "authored": "2021-04-06T11:29:26+00:00"
    }
  }, {
    "fullUrl": "urn:uuid:ffeb4d17-3614-4d6c-83bc-bae4fee6c9d7",
    "resource": {
      "resourceType": "Questionnaire",
      "id": "ffeb4d17-3614-4d6c-83bc-bae4fee6c9d7",
      "identifier": [ {
        "value": "59263"
      } ],
      "version": "2021-04-06T11:29:26.887Z",
      "status": "active",
      "experimental": false,
      "date": "2021-04-06T11:29:26+00:00",
      "publisher": "User ID: 'HADFIELDR' User name: 'Ryan Hadfield' User skill set: 'T3'",
      "lastReviewDate": "2021-04-06",
      "contact": [ {
        "telecom": [ {
          "value": "07777 888888"
        } ]
      } ],
      "subjectType": [ "Patient" ]
    }
  }, {
    "fullUrl": "urn:uuid:1e6edeec-1083-4784-a39c-8143209948b5",
    "resource": {
      "resourceType": "Observation",
      "id": "1e6edeec-1083-4784-a39c-8143209948b5",
      "status": "final",
      "code": {
        "coding": [ {
          "system": "http://snomed.info/sct",
          "code": "33962009",
          "display": "Presenting complaint"
        } ]
      },
      "subject": {
        "reference": "urn:uuid:9428c880-80e1-4619-81f3-f0f93e1bbb60"
      },
      "context": {
        "reference": "urn:uuid:dc16d226-55b4-4c41-b8df-9239c6db9160"
      },
      "valueString": "test"
    }
  }, {
    "fullUrl": "urn:uuid:c16a59ca-29e1-4ffb-bba2-bef7fba8b769",
    "resource": {
      "resourceType": "PractitionerRole",
      "id": "c16a59ca-29e1-4ffb-bba2-bef7fba8b769",
      "practitioner": {
        "reference": "urn:uuid:719d44c8-9115-46ff-a386-0bf41b9c3757"
      },
      "organization": {
        "reference": "urn:uuid:ce1a979a-fe60-40fc-af22-a2142e37d5eb"
      },
      "code": [ {
        "coding": [ {
          "system": "2.16.840.1.113883.2.1.3.2.4.17.339",
          "code": "DOCTOR",
          "display": "Doctor"
        } ]
      } ]
    }
  }, {
    "fullUrl": "urn:uuid:ce1a979a-fe60-40fc-af22-a2142e37d5eb",
    "resource": {
      "resourceType": "Organization",
      "id": "ce1a979a-fe60-40fc-af22-a2142e37d5eb",
      "identifier": [ {
        "value": "RYE"
      } ],
      "name": "1.SCAS Administrator (SCAS111)"
    }
  }, {
    "fullUrl": "urn:uuid:426916d1-3a11-43f8-8791-f5670c34c17d",
    "resource": {
      "resourceType": "PractitionerRole",
      "id": "426916d1-3a11-43f8-8791-f5670c34c17d",
      "practitioner": {
        "reference": "urn:uuid:808f84be-b2f2-4643-9f0a-abb8e3cb20fa"
      },
      "organization": {
        "reference": "urn:uuid:5df3a7c3-c15c-4aea-a05e-f039725e133a"
      },
      "code": [ {
        "coding": [ {
          "system": "2.16.840.1.113883.2.1.3.2.4.17.196",
          "code": "R0010",
          "display": "Medical Director"
        } ]
      } ]
    }
  }, {
    "fullUrl": "urn:uuid:5df3a7c3-c15c-4aea-a05e-f039725e133a",
    "resource": {
      "resourceType": "Organization",
      "id": "5df3a7c3-c15c-4aea-a05e-f039725e133a",
      "identifier": [ {
        "value": "RYE"
      } ],
      "name": "SCAS111"
    }
  }, {
    "fullUrl": "urn:uuid:546fba72-c9ba-4465-b805-5d9b0c59c155",
    "resource": {
      "resourceType": "RelatedPerson",
      "id": "546fba72-c9ba-4465-b805-5d9b0c59c155",
      "patient": {
        "reference": "urn:uuid:9428c880-80e1-4619-81f3-f0f93e1bbb60"
      },
      "relationship": {
        "coding": [ {
          "system": "http://hl7.org/fhir/v2/0131",
          "code": "C",
          "display": "Emergency Contact"
        } ]
      },
      "telecom": [ {
        "system": "phone",
        "value": "tel:000000000000"
      } ]
    }
  }, {
    "fullUrl": "urn:uuid:017f7ea8-f107-44ab-a024-fbb17ec3b748",
    "resource": {
      "resourceType": "Device",
      "id": "017f7ea8-f107-44ab-a024-fbb17ec3b748",
      "model": "111 Adaptor",
      "version": "0.8.0"
    }
  }, {
    "fullUrl": "urn:uuid:2cdbeda8-d03b-4909-aca4-811b9d3022e8",
    "resource": {
      "resourceType": "List",
      "id": "2cdbeda8-d03b-4909-aca4-811b9d3022e8",
      "status": "current",
      "mode": "working",
      "title": "111 Report List",
      "code": {
        "coding": [ {
          "system": "http://snomed.info/sct",
          "code": "225390008",
          "display": "Triage"
        } ]
      },
      "subject": {
        "reference": "urn:uuid:9428c880-80e1-4619-81f3-f0f93e1bbb60"
      },
      "encounter": {
        "reference": "urn:uuid:dc16d226-55b4-4c41-b8df-9239c6db9160"
      },
      "date": "2021-09-14T09:23:25+00:00",
      "source": {
        "reference": "urn:uuid:017f7ea8-f107-44ab-a024-fbb17ec3b748"
      },
      "orderedBy": {
        "coding": [ {
          "system": "http://hl7.org/fhir/list-order",
          "code": "event-date",
          "display": "Sorted by Event Date"
        } ]
      },
      "entry": [ {
        "item": {
          "reference": "urn:uuid:ac323306-bb74-4647-b152-e1fabbd0eae7"
        }
      }, {
        "item": {
          "reference": "urn:uuid:66d4023a-1ece-401e-84a6-706532c1d6c7"
        }
      }, {
        "item": {
          "reference": "urn:uuid:808f84be-b2f2-4643-9f0a-abb8e3cb20fa"
        }
      }, {
        "item": {
          "reference": "urn:uuid:5df3a7c3-c15c-4aea-a05e-f039725e133a"
        }
      }, {
        "item": {
          "reference": "urn:uuid:719d44c8-9115-46ff-a386-0bf41b9c3757"
        }
      }, {
        "item": {
          "reference": "urn:uuid:ce1a979a-fe60-40fc-af22-a2142e37d5eb"
        }
      }, {
        "item": {
          "reference": "urn:uuid:546fba72-c9ba-4465-b805-5d9b0c59c155"
        }
      }, {
        "item": {
          "reference": "urn:uuid:d0781df2-4180-4499-81f1-b494fe6f8d90"
        }
      }, {
        "item": {
          "reference": "urn:uuid:1e6edeec-1083-4784-a39c-8143209948b5"
        }
      }, {
        "item": {
          "reference": "urn:uuid:7d0e64d2-2554-4188-8f91-8ba41f6f3de5"
        }
      }, {
        "item": {
          "reference": "urn:uuid:dbce0121-9c9e-4360-84bd-881ef0e753e3"
        }
      }, {
        "item": {
          "reference": "urn:uuid:39e3ba45-c9c7-4b30-8d8f-efd2909fdfa4"
        }
      }, {
        "item": {
          "reference": "urn:uuid:71cd7e0d-7567-4497-a640-427ec6a5bbd0"
        }
      }, {
        "item": {
          "reference": "urn:uuid:fe9ccbce-0497-4bdc-af9a-6dfc0a968ba8"
        }
      }, {
        "item": {
          "reference": "urn:uuid:d39fd94e-8ac0-453a-9716-4d0135007d1c"
        }
      }, {
        "item": {
          "reference": "urn:uuid:d04f5e33-d4e7-4235-8cbc-ef8b805b20ed"
        }
      }, {
        "item": {
          "reference": "urn:uuid:2524178f-4407-4c5d-857e-1f78843eed1c"
        }
      }, {
        "item": {
          "reference": "urn:uuid:5201ba89-e3dd-4f4d-9100-ada4cd29ca75"
        }
      }, {
        "item": {
          "reference": "urn:uuid:92f76d05-b2f2-40bb-9aa8-45fd44b0fa78"
        }
      }, {
        "item": {
          "reference": "urn:uuid:112ec83e-c9a4-4020-a06f-5ecd3e3d091b"
        }
      }, {
        "item": {
          "reference": "urn:uuid:3fd5f749-9acc-47de-9db1-bde27458a211"
        }
      }, {
        "item": {
          "reference": "urn:uuid:20bd9cfa-0f97-4cb0-8a99-6e57a273b167"
        }
      }, {
        "item": {
          "reference": "urn:uuid:257f293f-e3e0-4c1b-be54-8bc1b2c17310"
        }
      }, {
        "item": {
          "reference": "urn:uuid:3851d04d-868c-48a2-a465-82beeac5922c"
        }
      }, {
        "item": {
          "reference": "urn:uuid:2bb328e9-ce86-44bc-83d0-83d00b4fdba6"
        }
      }, {
        "item": {
          "reference": "urn:uuid:0954f7f2-d69a-4b03-b032-683e64a6f0a6"
        }
      }, {
        "item": {
          "reference": "urn:uuid:a6acf8f4-00be-478b-9d2a-a40faf260bea"
        }
      }, {
        "item": {
          "reference": "urn:uuid:36b5e0b9-0d1d-4a7c-a95e-9ab791251cc7"
        }
      }, {
        "item": {
          "reference": "urn:uuid:34fed9d9-3176-4c9c-aba3-946296676f91"
        }
      }, {
        "item": {
          "reference": "urn:uuid:db2f85dc-a719-4cdc-a5fa-dc9a259de6f7"
        }
      }, {
        "item": {
          "reference": "urn:uuid:e25d910d-6f13-4926-b9cf-05bc122418e5"
        }
      }, {
        "item": {
          "reference": "urn:uuid:8464e723-1409-4c2c-9b7c-d373ceeeb7b9"
        }
      }, {
        "item": {
          "reference": "urn:uuid:3a09df74-f8e0-4443-bcb1-e322d6a21eae"
        }
      }, {
        "item": {
          "reference": "urn:uuid:b5a6db51-141f-4b36-9fa3-280aa39a3d92"
        }
      }, {
        "item": {
          "reference": "urn:uuid:96f92a1b-16e1-4b06-8e3c-027cbf9afe5a"
        }
      }, {
        "item": {
          "reference": "urn:uuid:44f43776-7d65-4ab0-b7ea-d1088e791a7f"
        }
      }, {
        "item": {
          "reference": "urn:uuid:3d85e81b-d8a6-4d47-bc07-ac22ef711c0c"
        }
      }, {
        "item": {
          "reference": "urn:uuid:37e98fcc-66b0-48a8-b472-e2bb24fb3ad4"
        }
      }, {
        "item": {
          "reference": "urn:uuid:fd8d09ac-e90a-483d-b03d-75e244e2d3e2"
        }
      }, {
        "item": {
          "reference": "urn:uuid:dbe06d52-ca22-49c0-a5cb-c24030660826"
        }
      }, {
        "item": {
          "reference": "urn:uuid:53bddc0f-eb8b-450e-be05-1ca8227e6df4"
        }
      }, {
        "item": {
          "reference": "urn:uuid:691ab886-6996-4a6f-95b6-3ba15f3eeb6e"
        }
      }, {
        "item": {
          "reference": "urn:uuid:de90372a-7aa8-40d2-ad15-2792b4d4aec6"
        }
      }, {
        "item": {
          "reference": "urn:uuid:379d0c76-f7d8-40fa-a061-c16052f060e2"
        }
      }, {
        "item": {
          "reference": "urn:uuid:397332d6-fa79-49cc-8467-61e56b53276d"
        }
      }, {
        "item": {
          "reference": "urn:uuid:d317ca04-598f-4bf3-86a8-ee82c74642b7"
        }
      }, {
        "item": {
          "reference": "urn:uuid:d9c4fe7b-d3d8-4e8a-9c7b-d48f6c24a94b"
        }
      }, {
        "item": {
          "reference": "urn:uuid:35103f0f-d3f0-4b32-a176-703d47e39fe2"
        }
      }, {
        "item": {
          "reference": "urn:uuid:52f43296-83a7-4e8d-816c-031d76a46361"
        }
      }, {
        "item": {
          "reference": "urn:uuid:632ea59f-f415-4f0d-ac00-f8a2c2a5f854"
        }
      }, {
        "item": {
          "reference": "urn:uuid:2a899493-63d9-4a76-b2b7-252dad984926"
        }
      }, {
        "item": {
          "reference": "urn:uuid:c9704d13-aa6c-4aca-9f8c-a4cc106be569"
        }
      }, {
        "item": {
          "reference": "urn:uuid:89215dbc-87c7-4a32-8eda-8b37e0350af5"
        }
      }, {
        "item": {
          "reference": "urn:uuid:4ac94a0d-0619-4bb5-8407-fafaffa9405b"
        }
      }, {
        "item": {
          "reference": "urn:uuid:82310273-7e17-4392-a32d-3c1f09df9803"
        }
      }, {
        "item": {
          "reference": "urn:uuid:37cab874-4241-4819-a105-65e9c5a5ab8e"
        }
      }, {
        "item": {
          "reference": "urn:uuid:1fba4e48-0844-48af-bade-b860c35a8dca"
        }
      }, {
        "item": {
          "reference": "urn:uuid:d2950baa-1349-44c5-8538-7cca599a59ae"
        }
      }, {
        "item": {
          "reference": "urn:uuid:d0c04f9f-a51c-4793-8da4-27fb7daa1e26"
        }
      }, {
        "item": {
          "reference": "urn:uuid:2b714fb9-b101-46f2-b43a-80e47f113a92"
        }
      }, {
        "item": {
          "reference": "urn:uuid:1e165473-a6c0-4aae-9126-5b2f09fdddd3"
        }
      }, {
        "item": {
          "reference": "urn:uuid:1ba14c7f-2e65-49e6-aa15-c60078cf9516"
        }
      }, {
        "item": {
          "reference": "urn:uuid:c0cbd779-e0c4-49c9-8906-796b26d0b7ae"
        }
      }, {
        "item": {
          "reference": "urn:uuid:5f9aabec-50a5-4b75-a4f3-ef41b771bd0c"
        }
      }, {
        "item": {
          "reference": "urn:uuid:795bcc2a-3eb4-4ce1-b1e3-e5016de55a94"
        }
      }, {
        "item": {
          "reference": "urn:uuid:4a9f5e3f-f82b-44a5-81fc-03a1c8fc47df"
        }
      }, {
        "item": {
          "reference": "urn:uuid:d8b11136-205f-4a2a-951d-82198b9375ce"
        }
      }, {
        "item": {
          "reference": "urn:uuid:c53721f1-8c00-44b9-bf66-ecfff46c748b"
        }
      }, {
        "item": {
          "reference": "urn:uuid:922d0a45-e9ff-45cf-9f47-70cc22ceb0e0"
        }
      }, {
        "item": {
          "reference": "urn:uuid:e38a8ba7-a134-429e-bbee-5f2f1936f2ec"
        }
      }, {
        "item": {
          "reference": "urn:uuid:cf2f3700-7944-4dd0-ab11-4980593bd3f9"
        }
      }, {
        "item": {
          "reference": "urn:uuid:f02ca7e7-9c1f-44e2-b65a-74dc142a7fe6"
        }
      }, {
        "item": {
          "reference": "urn:uuid:087e0d28-98dc-4f7d-bf4c-4fff25a156ea"
        }
      }, {
        "item": {
          "reference": "urn:uuid:ffeb4d17-3614-4d6c-83bc-bae4fee6c9d7"
        }
      }, {
        "item": {
          "reference": "urn:uuid:4d983a5d-61e7-4867-b5dd-4660e6a0ea74"
        }
      }, {
        "item": {
          "reference": "urn:uuid:da55fee9-d899-4a4a-9bbc-cd4373c59b54"
        }
      }, {
        "item": {
          "reference": "urn:uuid:e44841aa-39ce-4478-bd49-38653718052f"
        }
      }, {
        "item": {
          "reference": "urn:uuid:aeb36d46-5551-402b-a3b0-3ed1720f0034"
        }
      }, {
        "item": {
          "reference": "urn:uuid:87aa1ab8-7f05-4783-b9f5-d44ef8b168fa"
        }
      }, {
        "item": {
          "reference": "urn:uuid:bedaf6f0-9bbe-4126-aab7-f941288a0893"
        }
      }, {
        "item": {
          "reference": "urn:uuid:09177036-915e-4560-b4be-f5213fdbeda3"
        }
      }, {
        "item": {
          "reference": "urn:uuid:a3c2c75e-a87e-48dc-9875-63fdf6574b69"
        }
      }, {
        "item": {
          "reference": "urn:uuid:c663c5f1-b2de-435c-b7ab-6c908d383559"
        }
      }, {
        "item": {
          "reference": "urn:uuid:4c30bb93-8456-4f58-8566-b1c4b1a5c876"
        }
      }, {
        "item": {
          "reference": "urn:uuid:4890c3b9-892c-4169-b6d4-7e7eb31c70dc"
        }
      }, {
        "item": {
          "reference": "urn:uuid:77d18322-e46c-4b1d-821b-a09263989cb1"
        }
      }, {
        "item": {
          "reference": "urn:uuid:2b1c020f-9878-436a-af1d-cdc3edcb3db2"
        }
      }, {
        "item": {
          "reference": "urn:uuid:bd4a9697-717b-4d79-aec7-c9d4b2428464"
        }
      }, {
        "item": {
          "reference": "urn:uuid:44941cb2-c383-42aa-9f0d-149ec4186734"
        }
      }, {
        "item": {
          "reference": "urn:uuid:99b9cd8a-d0d4-4f67-852a-eee50de3716d"
        }
      }, {
        "item": {
          "reference": "urn:uuid:1acb0d9c-0f42-4395-8640-bc112ccdeeae"
        }
      }, {
        "item": {
          "reference": "urn:uuid:7baae512-f049-4a4c-a415-f3d4b222fafc"
        }
      }, {
        "item": {
          "reference": "urn:uuid:9aa1e748-2f96-406a-8ca4-bdd4bd494c82"
        }
      }, {
        "item": {
          "reference": "urn:uuid:0f6a185d-11b2-4306-94db-e2dab83610c8"
        }
      }, {
        "item": {
          "reference": "urn:uuid:4f548886-33fc-47dc-80a4-7d061834ece2"
        }
      }, {
        "item": {
          "reference": "urn:uuid:2b93f5c4-24d4-4dff-9a60-820d81c2fb65"
        }
      }, {
        "item": {
          "reference": "urn:uuid:eef75075-af75-49fb-9d17-a30969f3410d"
        }
      }, {
        "item": {
          "reference": "urn:uuid:05f4545b-4b95-4722-bd25-2cf3dd234d8e"
        }
      }, {
        "item": {
          "reference": "urn:uuid:3b594bea-7d79-4b02-8e9c-887832c28897"
        }
      }, {
        "item": {
          "reference": "urn:uuid:31e1679f-587f-4873-9fcf-1ea3afc7a50f"
        }
      }, {
        "item": {
          "reference": "urn:uuid:b5d8d257-45ad-4dfe-8fe4-171a31c00fe9"
        }
      }, {
        "item": {
          "reference": "urn:uuid:434adb41-0b2b-4b0c-81dc-61e7db4967e6"
        }
      }, {
        "item": {
          "reference": "urn:uuid:5cfda7a6-f16b-48d3-a9d6-9a8ffaac1276"
        }
      }, {
        "item": {
          "reference": "urn:uuid:f0b81369-4a9f-459c-a265-1e452c904e29"
        }
      }, {
        "item": {
          "reference": "urn:uuid:8097d7ad-db2b-4528-b239-e151758cf2fd"
        }
      }, {
        "item": {
          "reference": "urn:uuid:e24d78d4-7a31-4476-b0e1-c5638b556d82"
        }
      }, {
        "item": {
          "reference": "urn:uuid:90a25095-9457-4f73-a10c-4c126742f69c"
        }
      }, {
        "item": {
          "reference": "urn:uuid:6b5c452a-5f75-4cb7-be1b-86f4441e4783"
        }
      }, {
        "item": {
          "reference": "urn:uuid:7b2a34be-9310-47d7-a771-3bd65e17a393"
        }
      }, {
        "item": {
          "reference": "urn:uuid:234e841f-d4e6-4cd2-84a0-65f1ae3a308a"
        }
      }, {
        "item": {
          "reference": "urn:uuid:18520da3-ed5f-4fd5-9080-e8c914799e3f"
        }
      }, {
        "item": {
          "reference": "urn:uuid:922b376f-2a8f-4f69-b431-3d2fd0f68fb6"
        }
      }, {
        "item": {
          "reference": "urn:uuid:9c9eb8d1-5c4b-4fe2-82a5-0196b3a14449"
        }
      }, {
        "item": {
          "reference": "urn:uuid:84011ace-747e-4902-914e-175ce22e995d"
        }
      }, {
        "item": {
          "reference": "urn:uuid:4330f138-d44e-4158-9370-6c8489d699ac"
        }
      }, {
        "item": {
          "reference": "urn:uuid:b52d751c-8ea8-42cf-814b-1844c288385e"
        }
      }, {
        "item": {
          "reference": "urn:uuid:dc017e64-5174-4fc9-9874-2f2e8c680924"
        }
      }, {
        "item": {
          "reference": "urn:uuid:2fa1b4de-2b9e-48d5-8ab7-4bf853ccc9ce"
        }
      }, {
        "item": {
          "reference": "urn:uuid:c5f57349-eb1d-4967-9ff4-e915f142ac56"
        }
      }, {
        "item": {
          "reference": "urn:uuid:44b5c2e0-4fbc-460e-b20f-a3b7e62d46d7"
        }
      }, {
        "item": {
          "reference": "urn:uuid:50426a6c-f38f-4d97-ae10-87850accc837"
        }
      }, {
        "item": {
          "reference": "urn:uuid:08b4b3cc-cc57-4b2e-95b0-c0a0bbac99dc"
        }
      }, {
        "item": {
          "reference": "urn:uuid:252d36bf-b482-4251-9339-4e5aed1c6695"
        }
      }, {
        "item": {
          "reference": "urn:uuid:04687379-11a0-4829-97bb-8b27ca2d437d"
        }
      }, {
        "item": {
          "reference": "urn:uuid:e67d92cb-1fa9-4854-90eb-7e30320222ed"
        }
      }, {
        "item": {
          "reference": "urn:uuid:c7824f65-2475-4dc8-b7ac-dd8c0afa08e4"
        }
      }, {
        "item": {
          "reference": "urn:uuid:9c7bcb10-18a0-4f4b-86cd-83fadfabd8d6"
        }
      }, {
        "item": {
          "reference": "urn:uuid:51b3110b-1c07-4e65-92cd-0e478d9d7de1"
        }
      }, {
        "item": {
          "reference": "urn:uuid:2b897e5b-51cd-455f-b800-d421e8012b59"
        }
      }, {
        "item": {
          "reference": "urn:uuid:127db0e6-1f45-45aa-9119-c320fa2a7779"
        }
      }, {
        "item": {
          "reference": "urn:uuid:8209c3e3-4ff8-4734-ad46-207cb2ddba05"
        }
      }, {
        "item": {
          "reference": "urn:uuid:d731e1e2-09ec-43a7-ae25-865959309d22"
        }
      }, {
        "item": {
          "reference": "urn:uuid:48dae028-d7cd-4be9-9a15-b253ae8930a2"
        }
      } ]
    }
  } ]
}