{
  "resourceType": "Bundle",
  "identifier": {
    "type": {
      "text": "ClinicalDocument VersionNumber"
    },
    "value": "1"
  },
  "type": "message",
  "entry": [ {
    "fullUrl": "urn:uuid:7AEFFED7-78AF-4940-9EE2-5FAA3920ECFE",
    "resource": {
      "resourceType": "MessageHeader",
      "id": "7AEFFED7-78AF-4940-9EE2-5FAA3920ECFE",
      "event": {
        "system": "https://fhir.nhs.uk/STU3/CodeSystem/EventType-1",
        "code": "referral-1",
        "display": "Referral"
      },
      "destination": [ {
        "endpoint": "urn:nhs-uk:addressing:ods:RSHSO14A:DOSServiceID:2000006423"
      } ],
      "timestamp": "2021-04-06T11:33:35.000+00:00",
      "source": {
        "name": "NHS 111 Adaptor",
        "endpoint": "http://localhost:8080/report"
      },
      "reason": {
        "coding": [ {
          "system": "urn:nhs-itk:ns:201005:interaction",
          "code": "urn:nhs-itk:interaction:primaryEmergencyDepartmentRecipientNHS111CDADocument-v2-0"
        } ]
      }
    }
  }, {
    "fullUrl": "urn:uuid:d5ae7d0f-c30d-4060-a7fb-390873858e23",
    "resource": {
      "resourceType": "Encounter",
      "id": "d5ae7d0f-c30d-4060-a7fb-390873858e23",
      "identifier": [ {
        "system": "2.16.840.1.113883.2.1.3.2.4.18.34",
        "value": "029EE79C-BBD3-478A-93EE-979CB300212E"
      }, {
        "system": "2.16.840.1.113883.2.1.3.2.4.18.35",
        "value": "59132"
      }, {
        "system": "2.16.840.1.113883.2.1.3.2.4.18.49",
        "value": "029EE79C-BBD3-478A-93EE-979CB300212E"
      } ],
      "status": "finished",
      "type": [ {
        "text": "111 Encounter Referral"
      } ],
      "subject": {
        "reference": "urn:uuid:faeba344-03fb-4bb6-b9d6-55525057a9e0"
      },
      "participant": [ {
        "type": [ {
          "coding": [ {
            "system": "http://hl7.org/fhir/ValueSet/encounter-participant-type",
            "code": "PPRF",
            "display": "Author"
          } ]
        } ],
        "individual": {
          "reference": "urn:uuid:5dcecfa9-a24f-450a-9f65-a4012f1b6c3d"
        }
      }, {
        "type": [ {
          "coding": [ {
            "system": "http://hl7.org/fhir/ValueSet/encounter-participant-type",
            "code": "ATND",
            "display": "Responsible Party"
          } ]
        } ],
        "individual": {
          "reference": "urn:uuid:9a4974cd-1400-4833-8611-4bada802128f"
        }
      } ],
      "period": {
        "start": "2021-04-06T11:33:35+00:00"
      },
      "location": [ {
        "location": {
          "reference": "urn:uuid:116e167c-39ef-44c2-a1c3-626a756afdd3"
        },
        "status": "active"
      }, {
        "location": {
          "reference": "urn:uuid:ffbd0b80-ed60-4d17-835c-42fb4b5194d2"
        },
        "status": "completed"
      } ],
      "serviceProvider": {
        "reference": "urn:uuid:5c6a8434-620a-4173-b3e9-9c57d0ca5d51"
      }
    }
  }, {
    "fullUrl": "urn:uuid:5c6a8434-620a-4173-b3e9-9c57d0ca5d51",
    "resource": {
      "resourceType": "Organization",
      "id": "5c6a8434-620a-4173-b3e9-9c57d0ca5d51",
      "active": true,
      "type": [ {
        "text": "CST"
      } ],
      "name": "SCAS111"
    }
  }, {
    "fullUrl": "urn:uuid:5dcecfa9-a24f-450a-9f65-a4012f1b6c3d",
    "resource": {
      "resourceType": "Practitioner",
      "id": "5dcecfa9-a24f-450a-9f65-a4012f1b6c3d",
      "active": true,
      "name": [ {
        "use": "official",
        "family": "McDonald",
        "given": [ "Denzle" ]
      } ]
    }
  }, {
    "fullUrl": "urn:uuid:9a4974cd-1400-4833-8611-4bada802128f",
    "resource": {
      "resourceType": "Practitioner",
      "id": "9a4974cd-1400-4833-8611-4bada802128f",
      "active": true,
      "name": [ {
        "use": "official",
        "family": "Black",
        "given": [ "John" ]
      } ]
    }
  }, {
    "fullUrl": "urn:uuid:116e167c-39ef-44c2-a1c3-626a756afdd3",
    "resource": {
      "resourceType": "Location",
      "id": "116e167c-39ef-44c2-a1c3-626a756afdd3",
      "managingOrganization": {
        "reference": "urn:uuid:a11fa583-3891-484d-a4be-8c69eb1d0bad"
      }
    }
  }, {
    "fullUrl": "urn:uuid:a11fa583-3891-484d-a4be-8c69eb1d0bad",
    "resource": {
      "resourceType": "Organization",
      "id": "a11fa583-3891-484d-a4be-8c69eb1d0bad",
      "identifier": [ {
        "value": "J82633"
      } ],
      "type": [ {
        "text": "GP Practice"
      } ],
      "name": "The Riverside Partnership ( Riverside Kelsey)",
      "telecom": [ {
        "system": "phone",
        "value": "tel:01730892412",
        "use": "work"
      } ],
      "address": [ {
        "use": "work",
        "line": [ "Riverside Kelsey Surgery", "75 Station Road", "Liss", "Hampshire" ],
        "postalCode": "GU33 7AD"
      } ]
    }
  }, {
    "fullUrl": "urn:uuid:ffbd0b80-ed60-4d17-835c-42fb4b5194d2",
    "resource": {
      "resourceType": "Location",
      "id": "ffbd0b80-ed60-4d17-835c-42fb4b5194d2",
      "name": "Incident Location",
      "address": {
        "type": "physical",
        "line": [ "Hampshire Partnership NHS Trust", "Tatchbury Mount Hospital Horseshoe Drive", "Calmore", "Southampton", "Hampshire" ],
        "postalCode": "SO40 2RZ"
      }
    }
  }, {
    "fullUrl": "urn:uuid:faeba344-03fb-4bb6-b9d6-55525057a9e0",
    "resource": {
      "resourceType": "Patient",
      "id": "faeba344-03fb-4bb6-b9d6-55525057a9e0",
      "identifier": [ {
        "extension": [ {
          "url": "https://fhir.hl7.org.uk/STU3/StructureDefinition/Extension-CareConnect-NHSNumberVerificationStatus-1",
          "valueCodeableConcept": {
            "coding": [ {
              "system": "https://fhir.hl7.org.uk/STU3/StructureDefinition/Extension-CareConnect-NHSNumberVerificationStatus-1",
              "code": "01"
            } ]
          }
        } ],
        "system": "https://fhir.nhs.uk/Id/nhs-number",
        "value": "9990004951"
      } ],
      "active": true,
      "name": [ {
        "use": "official",
        "family": "Xxtestpatientdfae",
        "given": [ "Btl-Donotuse" ]
      } ],
      "telecom": [ {
        "system": "phone",
        "value": "tel:07948625625",
        "use": "home"
      }, {
        "system": "phone",
        "value": "tel:07948625625"
      } ],
      "gender": "female",
      "birthDate": "2015-04-01",
      "address": [ {
        "use": "home",
        "line": [ "Hampshire Partnership NHS Trust", "Tatchbury Mount Hospital Horseshoe Drive", "Calmore", "Southampton", "Hampshire" ],
        "postalCode": "SO40 2RZ"
      } ],
      "generalPractitioner": [ {
        "reference": "urn:uuid:2e0ae92f-cf4d-47a4-b137-7fb69b8712d7"
      } ]
    }
  }, {
    "fullUrl": "urn:uuid:2e0ae92f-cf4d-47a4-b137-7fb69b8712d7",
    "resource": {
      "resourceType": "Organization",
      "id": "2e0ae92f-cf4d-47a4-b137-7fb69b8712d7",
      "identifier": [ {
        "value": "J82633"
      } ],
      "type": [ {
        "text": "GP Practice"
      } ],
      "name": "The Riverside Partnership ( Riverside Kelsey)",
      "telecom": [ {
        "system": "phone",
        "value": "tel:01730892412",
        "use": "work"
      } ],
      "address": [ {
        "use": "work",
        "line": [ "Riverside Kelsey Surgery", "75 Station Road", "Liss", "Hampshire" ],
        "postalCode": "GU33 7AD"
      } ]
    }
  }, {
    "fullUrl": "urn:uuid:4603ccc0-f784-4cbb-aa85-5f6b0c23ec18",
    "resource": {
      "resourceType": "HealthcareService",
      "id": "4603ccc0-f784-4cbb-aa85-5f6b0c23ec18",
      "active": true,
      "providedBy": {
        "reference": "urn:uuid:cb83bcd9-5668-444c-a268-b8cb9bf204e1"
      },
      "location": [ {
        "reference": "urn:uuid:0368b024-2c1e-4ba8-a7de-ac80a96a8cc9"
      } ],
      "name": "Urgent Treatment Centre (GP led), Royal South Hants Hospital"
    }
  }, {
    "fullUrl": "urn:uuid:0368b024-2c1e-4ba8-a7de-ac80a96a8cc9",
    "resource": {
      "resourceType": "Location",
      "id": "0368b024-2c1e-4ba8-a7de-ac80a96a8cc9",
      "managingOrganization": {
        "reference": "urn:uuid:cb83bcd9-5668-444c-a268-b8cb9bf204e1"
      }
    }
  }, {
    "fullUrl": "urn:uuid:cb83bcd9-5668-444c-a268-b8cb9bf204e1",
    "resource": {
      "resourceType": "Organization",
      "id": "cb83bcd9-5668-444c-a268-b8cb9bf204e1",
      "identifier": [ {
        "value": "RSHSO14A"
      } ],
      "type": [ {
        "coding": [ {
          "code": "PRCP",
          "display": "Urgent Treatment Centre (GP led), Royal South Hants Hospital"
        } ]
      } ],
      "name": "Urgent Treatment Centre (GP led), Royal South Hants Hospital"
    }
  }, {
    "fullUrl": "urn:uuid:8fa71161-bfc3-4b59-b980-0199c13baac5",
    "resource": {
      "resourceType": "ReferralRequest",
      "id": "8fa71161-bfc3-4b59-b980-0199c13baac5",
      "status": "active",
      "intent": "plan",
      "priority": "routine",
      "subject": {
        "reference": "urn:uuid:faeba344-03fb-4bb6-b9d6-55525057a9e0"
      },
      "context": {
        "reference": "urn:uuid:d5ae7d0f-c30d-4060-a7fb-390873858e23"
      },
      "occurrencePeriod": {
        "start": "2021-09-29T10:03:05+00:00",
        "end": "2021-09-29T11:03:05+00:00"
      },
      "authoredOn": "2021-04-06T11:33:27+00:00",
      "requester": {
        "agent": {
          "reference": "urn:uuid:fdcbb629-65fe-481f-bf18-4dffee627cdd"
        },
        "onBehalfOf": {
          "reference": "urn:uuid:5c6a8434-620a-4173-b3e9-9c57d0ca5d51"
        }
      },
      "recipient": [ {
        "reference": "urn:uuid:4603ccc0-f784-4cbb-aa85-5f6b0c23ec18"
      } ],
      "reasonReference": [ {
        "reference": "urn:uuid:71b39ab2-32d9-41a1-9c3b-77b22980019f"
      } ],
      "supportingInfo": [ {
        "reference": "urn:uuid:cfab0e34-8b76-45ce-b838-b00ce6f82bf0"
      } ]
    }
  }, {
    "fullUrl": "urn:uuid:cfab0e34-8b76-45ce-b838-b00ce6f82bf0",
    "resource": {
      "resourceType": "ProcedureRequest",
      "id": "cfab0e34-8b76-45ce-b838-b00ce6f82bf0",
      "status": "active",
      "intent": "plan",
      "priority": "routine",
      "doNotPerform": false,
      "code": {
        "coding": [ {
          "system": "2.16.840.1.113883.2.1.3.2.4.17.325",
          "code": "Dx06",
          "display": "To contact a local service within 6 hours"
        } ]
      },
      "subject": {
        "reference": "urn:uuid:faeba344-03fb-4bb6-b9d6-55525057a9e0"
      },
      "occurrencePeriod": {
        "start": "2021-09-29T10:03:05+00:00",
        "end": "2021-09-29T11:03:05+00:00"
      },
      "reasonReference": [ {
        "reference": "urn:uuid:71b39ab2-32d9-41a1-9c3b-77b22980019f"
      } ]
    }
  }, {
    "fullUrl": "urn:uuid:459e2add-e257-4b68-8829-65644b21b75c",
    "resource": {
      "resourceType": "Composition",
      "id": "459e2add-e257-4b68-8829-65644b21b75c",
      "identifier": {
        "use": "usual",
        "value": "A8E3FB32-6805-4191-B071-EA540A9318CD"
      },
      "status": "final",
      "type": {
        "coding": [ {
          "system": "http://snomed.info/sct",
          "code": "371531000",
          "display": "Report of clinical encounter (record artifact)"
        } ]
      },
      "subject": {
        "reference": "urn:uuid:faeba344-03fb-4bb6-b9d6-55525057a9e0"
      },
      "encounter": {
        "reference": "urn:uuid:d5ae7d0f-c30d-4060-a7fb-390873858e23"
      },
      "date": "2021-09-29T10:03:05+00:00",
      "author": [ {
        "reference": "urn:uuid:5dcecfa9-a24f-450a-9f65-a4012f1b6c3d"
      } ],
      "title": "111 Report",
      "confidentiality": "N",
      "section": [ {
        "section": [ {
          "title": "Patient's Reported Condition",
          "text": {
            "status": "generated",
            "div": "<div xmlns=\"http://www.w3.org/1999/xhtml\">&lt;content&gt;Pharmacy ITK Testing&lt;/content&gt;\n                                                    &lt;br/&gt;</div>"
          }
        }, {
          "title": "Pathways Disposition",
          "text": {
            "status": "generated",
            "div": "<div xmlns=\"http://www.w3.org/1999/xhtml\">To contact a local service within 6 hours (Dx06)                                         &lt;br/&gt;\n                                                    &lt;br/&gt;                                         Selected service: Urgent Treatment Centre (GP led), Royal South Hant&lt;br/&gt;</div>"
          }
        }, {
          "title": "Consultation Summary",
          "text": {
            "status": "generated",
            "div": "<div xmlns=\"http://www.w3.org/1999/xhtml\">Illness&lt;br/&gt;Warm to touch&lt;br/&gt;Nausea without vomiting&lt;br/&gt;Abdominal pain also present&lt;br/&gt;Moderately severe pain&lt;br/&gt;Flank pain&lt;br/&gt;Fever at time of assessment or in last 12 hours&lt;br/&gt;</div>"
          }
        }, {
          "title": "Pathways Assessment",
          "text": {
            "status": "generated",
            "div": "<div xmlns=\"http://www.w3.org/1999/xhtml\">An injury or health problem was the reason for the contact.&lt;br/&gt;Heavy bleeding had not occurred in the previous 30 minutes.&lt;br/&gt;An illness or health problem was the main problem.&lt;br/&gt;User Comments: Pharmacy ITK Testing&lt;br/&gt;The individual was not fighting for breath.&lt;br/&gt;The main reason for the contact was not an allergic reaction, chest/upper back pain, recent fit/seizure, suicide attempt, new confusion or suspected stroke.&lt;br/&gt;The main reason for contact was not declared diabetic hypo/hyperglycaemia or ICD shock.&lt;br/&gt;The skin on the torso felt normal, warm or hot.&lt;br/&gt;Pathway selected - Vomiting and/or Nausea&lt;br/&gt;The individual had not vomited.&lt;br/&gt;The individual did not also have diarrhoea.&lt;br/&gt;The symptoms did not follow drinking alcohol.&lt;br/&gt;Abdominal pain was also present.&lt;br/&gt;The pain interfered with normal activity.&lt;br/&gt;The individual was able to carry out most or all normal activities.&lt;br/&gt;The individual had not ingested a harmful or toxic substance.&lt;br/&gt;There had been no black and tarry or red/maroon bowel motions.&lt;br/&gt;There was no new or worsening confusion.&lt;br/&gt;Breathing harder or faster when doing nothing was not described.&lt;br/&gt;There was no new shoulder tip pain or pain in the lower right abdomen.&lt;br/&gt;The individual had not been in constant pain for 4 hours or more.&lt;br/&gt;There was no previous history of diabetes.&lt;br/&gt;There was flank pain.&lt;br/&gt;There was a fever at the time of assessment or within the previous 12 hours.&lt;br/&gt;There was no new, widespread, red rash.&lt;br/&gt;Instructions given were: The individual needs to contact a local service within 6 hours.&lt;br/&gt;Directory of Services referral: Urgent Treatment Centre (GP led), Royal South Hants Hospital&lt;br/&gt;</div>"
          }
        }, {
          "title": "Advice Given",
          "text": {
            "status": "generated",
            "div": "<div xmlns=\"http://www.w3.org/1999/xhtml\">I will arrange for a clinician to contact the individual. I need to ask some further questions in order to determine the best way to do this.&lt;br/&gt;If there are any new symptoms, or if the condition gets worse, changes or you have any other concerns, call us back.&lt;br/&gt;\n                                                    &lt;br/&gt;</div>"
          }
        }, {
          "title": "Information And Advice Given"
        }, {
          "title": "Disposition",
          "text": {
            "status": "generated",
            "div": "<div xmlns=\"http://www.w3.org/1999/xhtml\">&lt;content&gt;To contact a local service within 6 hours&lt;br/&gt;\n                                                    &lt;/content&gt;\n                                                    &lt;br/&gt;\n                                                    &lt;br/&gt;</div>"
          }
        } ]
      }, {
        "title": "CarePlan",
        "entry": [ {
          "reference": "urn:uuid:53235b66-6cf9-4a37-b497-93337b52201d"
        } ]
      }, {
        "title": "ReferralRequest",
        "entry": [ {
          "reference": "urn:uuid:8fa71161-bfc3-4b59-b980-0199c13baac5"
        } ]
      }, {
        "title": "QuestionnaireResponse",
        "entry": [ {
          "reference": "urn:uuid:6d3dd733-7c95-49e3-9495-e10ce51fc210"
        } ]
      }, {
        "title": "QuestionnaireResponse",
        "entry": [ {
          "reference": "urn:uuid:b0b8b674-5ca0-4651-98fd-d0af1226b7de"
        } ]
      }, {
        "title": "QuestionnaireResponse",
        "entry": [ {
          "reference": "urn:uuid:873e96fa-c7d3-4350-8145-519ed21b8d15"
        } ]
      }, {
        "title": "QuestionnaireResponse",
        "entry": [ {
          "reference": "urn:uuid:964b916c-b9a5-4349-bbea-10d518a1f3af"
        } ]
      }, {
        "title": "QuestionnaireResponse",
        "entry": [ {
          "reference": "urn:uuid:044141a9-c019-4589-a7e4-7f2baf18b953"
        } ]
      }, {
        "title": "QuestionnaireResponse",
        "entry": [ {
          "reference": "urn:uuid:04328cd7-6300-43aa-b6ed-ba130abec672"
        } ]
      }, {
        "title": "QuestionnaireResponse",
        "entry": [ {
          "reference": "urn:uuid:0ccab070-87af-424b-bf7c-bb2f7e16d429"
        } ]
      }, {
        "title": "QuestionnaireResponse",
        "entry": [ {
          "reference": "urn:uuid:73409141-589c-4726-b4c1-05db1c06cd47"
        } ]
      }, {
        "title": "QuestionnaireResponse",
        "entry": [ {
          "reference": "urn:uuid:ab1e427e-616e-4031-8f56-b452fd9e6dde"
        } ]
      }, {
        "title": "QuestionnaireResponse",
        "entry": [ {
          "reference": "urn:uuid:0916bd41-a27f-4997-b872-cc585c8a0028"
        } ]
      }, {
        "title": "QuestionnaireResponse",
        "entry": [ {
          "reference": "urn:uuid:5b343805-b38e-479e-b8d1-0680e8767ef4"
        } ]
      }, {
        "title": "QuestionnaireResponse",
        "entry": [ {
          "reference": "urn:uuid:92e4509b-cc1b-470f-bddc-504473771b01"
        } ]
      }, {
        "title": "QuestionnaireResponse",
        "entry": [ {
          "reference": "urn:uuid:09674ac9-f524-43cd-af36-8182b65f52cb"
        } ]
      }, {
        "title": "QuestionnaireResponse",
        "entry": [ {
          "reference": "urn:uuid:0ca93a9c-2785-4638-9b86-209c176a9ba6"
        } ]
      }, {
        "title": "QuestionnaireResponse",
        "entry": [ {
          "reference": "urn:uuid:6e0f91ee-5552-44c2-86a4-96cb9e61fb2a"
        } ]
      }, {
        "title": "QuestionnaireResponse",
        "entry": [ {
          "reference": "urn:uuid:aaf52d61-44aa-4578-9a1a-d46410384a90"
        } ]
      }, {
        "title": "QuestionnaireResponse",
        "entry": [ {
          "reference": "urn:uuid:d7516633-e1f5-4528-8635-1db43e30a584"
        } ]
      }, {
        "title": "QuestionnaireResponse",
        "entry": [ {
          "reference": "urn:uuid:9d12472b-fba3-402d-83fd-e81b933e0f24"
        } ]
      }, {
        "title": "QuestionnaireResponse",
        "entry": [ {
          "reference": "urn:uuid:6ef170c6-235e-4475-8388-93e752e0ffdb"
        } ]
      }, {
        "title": "QuestionnaireResponse",
        "entry": [ {
          "reference": "urn:uuid:04074c6e-6b2a-41d6-a44a-80c38bb4a6e5"
        } ]
      }, {
        "title": "QuestionnaireResponse",
        "entry": [ {
          "reference": "urn:uuid:c951685d-d2a5-425d-b25b-805a837cf5f1"
        } ]
      }, {
        "title": "QuestionnaireResponse",
        "entry": [ {
          "reference": "urn:uuid:cb31779b-ed2e-4ff0-8485-efbe74580fac"
        } ]
      }, {
        "title": "QuestionnaireResponse",
        "entry": [ {
          "reference": "urn:uuid:641036c6-fb3c-494f-8e43-1fc85a1ef415"
        } ]
      }, {
        "title": "QuestionnaireResponse",
        "entry": [ {
          "reference": "urn:uuid:83bbde9e-1163-46a0-b595-27aed3fb90a1"
        } ]
      }, {
        "title": "QuestionnaireResponse",
        "entry": [ {
          "reference": "urn:uuid:11e34fc5-acc5-42cc-a4df-53d03f58f590"
        } ]
      }, {
        "title": "QuestionnaireResponse",
        "entry": [ {
          "reference": "urn:uuid:b959777c-ffc6-42cf-98f0-6be8724b7e53"
        } ]
      }, {
        "title": "QuestionnaireResponse",
        "entry": [ {
          "reference": "urn:uuid:9d64df78-2a46-4ebc-9de5-ef9fc993652a"
        } ]
      }, {
        "title": "QuestionnaireResponse",
        "entry": [ {
          "reference": "urn:uuid:1f443841-bc7c-4104-8a1a-07c32bcd0046"
        } ]
      }, {
        "title": "QuestionnaireResponse",
        "entry": [ {
          "reference": "urn:uuid:857912a4-76a3-4624-a959-4e77c20332c6"
        } ]
      }, {
        "title": "QuestionnaireResponse",
        "entry": [ {
          "reference": "urn:uuid:eb1c7876-1b68-49d6-8fe4-6cc8bee52297"
        } ]
      }, {
        "title": "QuestionnaireResponse",
        "entry": [ {
          "reference": "urn:uuid:a9d87f30-72ac-4b90-a713-c7e4ad10182b"
        } ]
      }, {
        "title": "QuestionnaireResponse",
        "entry": [ {
          "reference": "urn:uuid:ff25e753-1d3e-4a03-926c-a6cad64117c2"
        } ]
      }, {
        "title": "QuestionnaireResponse",
        "entry": [ {
          "reference": "urn:uuid:8d2fcb7a-7d6d-4e20-b868-d980e78ef310"
        } ]
      }, {
        "title": "QuestionnaireResponse",
        "entry": [ {
          "reference": "urn:uuid:58f703f1-1f69-4324-a719-8fe132c01242"
        } ]
      }, {
        "title": "QuestionnaireResponse",
        "entry": [ {
          "reference": "urn:uuid:77006727-d338-471a-aa5a-a9839fe299c0"
        } ]
      }, {
        "title": "QuestionnaireResponse",
        "entry": [ {
          "reference": "urn:uuid:a8122413-7368-4c70-88dd-5f6e2ec36e2a"
        } ]
      }, {
        "title": "QuestionnaireResponse",
        "entry": [ {
          "reference": "urn:uuid:897d95f4-5c69-4f01-8395-b9babcc626f3"
        } ]
      }, {
        "title": "QuestionnaireResponse",
        "entry": [ {
          "reference": "urn:uuid:14805c34-1a94-4190-9d1d-3be7960432c9"
        } ]
      }, {
        "title": "QuestionnaireResponse",
        "entry": [ {
          "reference": "urn:uuid:91533467-86bb-4db3-ac36-08aca6df2ef9"
        } ]
      }, {
        "title": "QuestionnaireResponse",
        "entry": [ {
          "reference": "urn:uuid:94066817-0dba-4c3e-ba9b-bf3b06c74823"
        } ]
      }, {
        "title": "QuestionnaireResponse",
        "entry": [ {
          "reference": "urn:uuid:c1d4157b-2121-49e9-82b4-fa15599be5bf"
        } ]
      }, {
        "title": "QuestionnaireResponse",
        "entry": [ {
          "reference": "urn:uuid:4177efa7-0df0-4a51-ae67-775240c6df0d"
        } ]
      }, {
        "title": "QuestionnaireResponse",
        "entry": [ {
          "reference": "urn:uuid:49a3b525-1dad-4c91-b560-0799a14e409f"
        } ]
      }, {
        "title": "QuestionnaireResponse",
        "entry": [ {
          "reference": "urn:uuid:8e113e48-bb2d-418e-8395-619b5e71bddf"
        } ]
      }, {
        "title": "QuestionnaireResponse",
        "entry": [ {
          "reference": "urn:uuid:53922d6d-6908-492f-bcdc-b19405f751e2"
        } ]
      }, {
        "title": "QuestionnaireResponse",
        "entry": [ {
          "reference": "urn:uuid:fc75407c-908b-4f07-93e7-98f74d2cb88f"
        } ]
      }, {
        "title": "QuestionnaireResponse",
        "entry": [ {
          "reference": "urn:uuid:448ef271-c017-440e-9c32-520268c54c4c"
        } ]
      }, {
        "title": "QuestionnaireResponse",
        "entry": [ {
          "reference": "urn:uuid:cc12b483-99a1-4be8-8558-17986bd834ba"
        } ]
      }, {
        "title": "QuestionnaireResponse",
        "entry": [ {
          "reference": "urn:uuid:81e96f2c-28de-4835-9bb2-8779aeda3b76"
        } ]
      }, {
        "title": "QuestionnaireResponse",
        "entry": [ {
          "reference": "urn:uuid:143fe1ee-ab1c-45ae-9291-b7bde5c79e1a"
        } ]
      }, {
        "title": "QuestionnaireResponse",
        "entry": [ {
          "reference": "urn:uuid:2a0ab6eb-cfda-4789-82a6-9ec77eecf687"
        } ]
      }, {
        "title": "QuestionnaireResponse",
        "entry": [ {
          "reference": "urn:uuid:baeba37c-356e-4978-85c2-b8bba43480a3"
        } ]
      }, {
        "title": "QuestionnaireResponse",
        "entry": [ {
          "reference": "urn:uuid:d86ca660-b623-4cb1-be06-02ac1f29ae68"
        } ]
      }, {
        "title": "QuestionnaireResponse",
        "entry": [ {
          "reference": "urn:uuid:cb929781-70da-4dd3-b6f6-36ad134f588b"
        } ]
      }, {
        "title": "QuestionnaireResponse",
        "entry": [ {
          "reference": "urn:uuid:f820e25b-3bfc-4f44-86bb-a40bcb3f5d06"
        } ]
      }, {
        "title": "QuestionnaireResponse",
        "entry": [ {
          "reference": "urn:uuid:71fd3a5a-c3d3-4066-b616-845166153918"
        } ]
      }, {
        "title": "QuestionnaireResponse",
        "entry": [ {
          "reference": "urn:uuid:6106f662-26f6-482f-828c-7777a05c9d8e"
        } ]
      }, {
        "title": "QuestionnaireResponse",
        "entry": [ {
          "reference": "urn:uuid:22a26b26-66bb-45b5-a833-52ec27739c63"
        } ]
      }, {
        "title": "QuestionnaireResponse",
        "entry": [ {
          "reference": "urn:uuid:d73d32c0-6f36-49b5-b063-8039230859cd"
        } ]
      }, {
        "title": "QuestionnaireResponse",
        "entry": [ {
          "reference": "urn:uuid:699b864b-7e32-4b0c-a13a-e5288dc8d682"
        } ]
      }, {
        "title": "QuestionnaireResponse",
        "entry": [ {
          "reference": "urn:uuid:98a31548-6e10-42fb-9d31-599a2451e5c6"
        } ]
      }, {
        "title": "QuestionnaireResponse",
        "entry": [ {
          "reference": "urn:uuid:661a7a24-cc36-4c9b-a0b0-2be6cb157c7f"
        } ]
      }, {
        "title": "QuestionnaireResponse",
        "entry": [ {
          "reference": "urn:uuid:6f5f9086-866f-497e-b579-e665a2ea64b0"
        } ]
      }, {
        "title": "QuestionnaireResponse",
        "entry": [ {
          "reference": "urn:uuid:4c59a61b-0c2a-4ec9-b29d-771b9aa2c001"
        } ]
      }, {
        "title": "QuestionnaireResponse",
        "entry": [ {
          "reference": "urn:uuid:f9ca769e-419a-420e-a0aa-fa2b19fdf317"
        } ]
      }, {
        "title": "QuestionnaireResponse",
        "entry": [ {
          "reference": "urn:uuid:70795ea0-ee1f-4f2c-a318-19efbc0a8e71"
        } ]
      }, {
        "title": "QuestionnaireResponse",
        "entry": [ {
          "reference": "urn:uuid:ddf7f092-36c3-407c-ab2f-dbd080a87c3a"
        } ]
      }, {
        "title": "QuestionnaireResponse",
        "entry": [ {
          "reference": "urn:uuid:122a7776-7817-441a-978b-50596ddb0e1e"
        } ]
      }, {
        "title": "QuestionnaireResponse",
        "entry": [ {
          "reference": "urn:uuid:db23a8ff-eeae-4807-ae6a-ce89b2214879"
        } ]
      }, {
        "title": "QuestionnaireResponse",
        "entry": [ {
          "reference": "urn:uuid:e7fd86f3-722c-4eb2-9f98-2aad749d3ad4"
        } ]
      }, {
        "title": "QuestionnaireResponse",
        "entry": [ {
          "reference": "urn:uuid:979dfb31-0ddb-4075-8a45-a4272e5c0ab0"
        } ]
      }, {
        "title": "QuestionnaireResponse",
        "entry": [ {
          "reference": "urn:uuid:77a5da8b-2a29-4aca-970b-84958ed5b72f"
        } ]
      }, {
        "title": "QuestionnaireResponse",
        "entry": [ {
          "reference": "urn:uuid:5206ee45-6d8c-42db-9c6f-c8d121ffcaca"
        } ]
      } ]
    }
  }, {
    "fullUrl": "urn:uuid:53235b66-6cf9-4a37-b497-93337b52201d",
    "resource": {
      "resourceType": "CarePlan",
      "id": "53235b66-6cf9-4a37-b497-93337b52201d",
      "status": "completed",
      "intent": "plan",
      "title": "Information And Advice Given",
      "subject": {
        "reference": "urn:uuid:faeba344-03fb-4bb6-b9d6-55525057a9e0"
      },
      "context": {
        "reference": "urn:uuid:d5ae7d0f-c30d-4060-a7fb-390873858e23"
      },
      "period": {
        "start": "2021-04-06T11:33:35+00:00"
      },
      "author": [ {
        "reference": "urn:uuid:a11fa583-3891-484d-a4be-8c69eb1d0bad"
      } ],
      "addresses": [ {
        "reference": "urn:uuid:71b39ab2-32d9-41a1-9c3b-77b22980019f"
      } ]
    }
  }, {
    "fullUrl": "urn:uuid:e41e0fe2-62bd-4779-99b1-8084b28333a4",
    "resource": {
      "resourceType": "Consent",
      "id": "e41e0fe2-62bd-4779-99b1-8084b28333a4",
      "identifier": {
        "use": "usual",
        "value": "A8E3FB32-6805-4191-B071-EA540A9318CD"
      },
      "status": "active",
      "patient": {
        "reference": "urn:uuid:faeba344-03fb-4bb6-b9d6-55525057a9e0"
      },
      "period": {
        "start": "2021-04-06T11:33:35+00:00"
      },
      "consentingParty": [ {
        "reference": "urn:uuid:faeba344-03fb-4bb6-b9d6-55525057a9e0"
      } ],
      "action": [ {
        "coding": [ {
          "system": "http://snomed.info/sct",
          "code": "425691002",
          "display": "Consent given for electronic record sharing"
        } ],
        "text": "Consent given for electronic record sharing"
      } ],
      "organization": [ {
        "reference": "urn:uuid:5c6a8434-620a-4173-b3e9-9c57d0ca5d51"
      } ],
      "policyRule": "http://hl7.org/fhir/ConsentPolicy/opt-out",
      "data": [ {
        "meaning": "related",
        "reference": {
          "reference": "urn:uuid:d5ae7d0f-c30d-4060-a7fb-390873858e23"
        }
      } ]
    }
  }, {
    "fullUrl": "urn:uuid:71b39ab2-32d9-41a1-9c3b-77b22980019f",
    "resource": {
      "resourceType": "Condition",
      "id": "71b39ab2-32d9-41a1-9c3b-77b22980019f",
      "clinicalStatus": "active",
      "verificationStatus": "unknown",
      "subject": {
        "reference": "urn:uuid:faeba344-03fb-4bb6-b9d6-55525057a9e0"
      },
      "context": {
        "reference": "urn:uuid:d5ae7d0f-c30d-4060-a7fb-390873858e23"
      },
      "evidence": [ {
        "detail": [ {
          "reference": "urn:uuid:6d3dd733-7c95-49e3-9495-e10ce51fc210"
        } ]
      }, {
        "detail": [ {
          "reference": "urn:uuid:b0b8b674-5ca0-4651-98fd-d0af1226b7de"
        } ]
      }, {
        "detail": [ {
          "reference": "urn:uuid:873e96fa-c7d3-4350-8145-519ed21b8d15"
        } ]
      }, {
        "detail": [ {
          "reference": "urn:uuid:964b916c-b9a5-4349-bbea-10d518a1f3af"
        } ]
      }, {
        "detail": [ {
          "reference": "urn:uuid:044141a9-c019-4589-a7e4-7f2baf18b953"
        } ]
      }, {
        "detail": [ {
          "reference": "urn:uuid:04328cd7-6300-43aa-b6ed-ba130abec672"
        } ]
      }, {
        "detail": [ {
          "reference": "urn:uuid:0ccab070-87af-424b-bf7c-bb2f7e16d429"
        } ]
      }, {
        "detail": [ {
          "reference": "urn:uuid:73409141-589c-4726-b4c1-05db1c06cd47"
        } ]
      }, {
        "detail": [ {
          "reference": "urn:uuid:ab1e427e-616e-4031-8f56-b452fd9e6dde"
        } ]
      }, {
        "detail": [ {
          "reference": "urn:uuid:0916bd41-a27f-4997-b872-cc585c8a0028"
        } ]
      }, {
        "detail": [ {
          "reference": "urn:uuid:5b343805-b38e-479e-b8d1-0680e8767ef4"
        } ]
      }, {
        "detail": [ {
          "reference": "urn:uuid:92e4509b-cc1b-470f-bddc-504473771b01"
        } ]
      }, {
        "detail": [ {
          "reference": "urn:uuid:09674ac9-f524-43cd-af36-8182b65f52cb"
        } ]
      }, {
        "detail": [ {
          "reference": "urn:uuid:0ca93a9c-2785-4638-9b86-209c176a9ba6"
        } ]
      }, {
        "detail": [ {
          "reference": "urn:uuid:6e0f91ee-5552-44c2-86a4-96cb9e61fb2a"
        } ]
      }, {
        "detail": [ {
          "reference": "urn:uuid:aaf52d61-44aa-4578-9a1a-d46410384a90"
        } ]
      }, {
        "detail": [ {
          "reference": "urn:uuid:d7516633-e1f5-4528-8635-1db43e30a584"
        } ]
      }, {
        "detail": [ {
          "reference": "urn:uuid:9d12472b-fba3-402d-83fd-e81b933e0f24"
        } ]
      }, {
        "detail": [ {
          "reference": "urn:uuid:6ef170c6-235e-4475-8388-93e752e0ffdb"
        } ]
      }, {
        "detail": [ {
          "reference": "urn:uuid:04074c6e-6b2a-41d6-a44a-80c38bb4a6e5"
        } ]
      }, {
        "detail": [ {
          "reference": "urn:uuid:c951685d-d2a5-425d-b25b-805a837cf5f1"
        } ]
      }, {
        "detail": [ {
          "reference": "urn:uuid:cb31779b-ed2e-4ff0-8485-efbe74580fac"
        } ]
      }, {
        "detail": [ {
          "reference": "urn:uuid:641036c6-fb3c-494f-8e43-1fc85a1ef415"
        } ]
      }, {
        "detail": [ {
          "reference": "urn:uuid:83bbde9e-1163-46a0-b595-27aed3fb90a1"
        } ]
      }, {
        "detail": [ {
          "reference": "urn:uuid:11e34fc5-acc5-42cc-a4df-53d03f58f590"
        } ]
      }, {
        "detail": [ {
          "reference": "urn:uuid:b959777c-ffc6-42cf-98f0-6be8724b7e53"
        } ]
      }, {
        "detail": [ {
          "reference": "urn:uuid:9d64df78-2a46-4ebc-9de5-ef9fc993652a"
        } ]
      }, {
        "detail": [ {
          "reference": "urn:uuid:1f443841-bc7c-4104-8a1a-07c32bcd0046"
        } ]
      }, {
        "detail": [ {
          "reference": "urn:uuid:857912a4-76a3-4624-a959-4e77c20332c6"
        } ]
      }, {
        "detail": [ {
          "reference": "urn:uuid:eb1c7876-1b68-49d6-8fe4-6cc8bee52297"
        } ]
      }, {
        "detail": [ {
          "reference": "urn:uuid:a9d87f30-72ac-4b90-a713-c7e4ad10182b"
        } ]
      }, {
        "detail": [ {
          "reference": "urn:uuid:ff25e753-1d3e-4a03-926c-a6cad64117c2"
        } ]
      }, {
        "detail": [ {
          "reference": "urn:uuid:8d2fcb7a-7d6d-4e20-b868-d980e78ef310"
        } ]
      }, {
        "detail": [ {
          "reference": "urn:uuid:58f703f1-1f69-4324-a719-8fe132c01242"
        } ]
      }, {
        "detail": [ {
          "reference": "urn:uuid:77006727-d338-471a-aa5a-a9839fe299c0"
        } ]
      }, {
        "detail": [ {
          "reference": "urn:uuid:a8122413-7368-4c70-88dd-5f6e2ec36e2a"
        } ]
      }, {
        "detail": [ {
          "reference": "urn:uuid:897d95f4-5c69-4f01-8395-b9babcc626f3"
        } ]
      }, {
        "detail": [ {
          "reference": "urn:uuid:14805c34-1a94-4190-9d1d-3be7960432c9"
        } ]
      }, {
        "detail": [ {
          "reference": "urn:uuid:91533467-86bb-4db3-ac36-08aca6df2ef9"
        } ]
      }, {
        "detail": [ {
          "reference": "urn:uuid:94066817-0dba-4c3e-ba9b-bf3b06c74823"
        } ]
      }, {
        "detail": [ {
          "reference": "urn:uuid:c1d4157b-2121-49e9-82b4-fa15599be5bf"
        } ]
      }, {
        "detail": [ {
          "reference": "urn:uuid:4177efa7-0df0-4a51-ae67-775240c6df0d"
        } ]
      }, {
        "detail": [ {
          "reference": "urn:uuid:49a3b525-1dad-4c91-b560-0799a14e409f"
        } ]
      }, {
        "detail": [ {
          "reference": "urn:uuid:8e113e48-bb2d-418e-8395-619b5e71bddf"
        } ]
      }, {
        "detail": [ {
          "reference": "urn:uuid:53922d6d-6908-492f-bcdc-b19405f751e2"
        } ]
      }, {
        "detail": [ {
          "reference": "urn:uuid:fc75407c-908b-4f07-93e7-98f74d2cb88f"
        } ]
      }, {
        "detail": [ {
          "reference": "urn:uuid:448ef271-c017-440e-9c32-520268c54c4c"
        } ]
      }, {
        "detail": [ {
          "reference": "urn:uuid:cc12b483-99a1-4be8-8558-17986bd834ba"
        } ]
      }, {
        "detail": [ {
          "reference": "urn:uuid:81e96f2c-28de-4835-9bb2-8779aeda3b76"
        } ]
      }, {
        "detail": [ {
          "reference": "urn:uuid:143fe1ee-ab1c-45ae-9291-b7bde5c79e1a"
        } ]
      }, {
        "detail": [ {
          "reference": "urn:uuid:2a0ab6eb-cfda-4789-82a6-9ec77eecf687"
        } ]
      }, {
        "detail": [ {
          "reference": "urn:uuid:baeba37c-356e-4978-85c2-b8bba43480a3"
        } ]
      }, {
        "detail": [ {
          "reference": "urn:uuid:d86ca660-b623-4cb1-be06-02ac1f29ae68"
        } ]
      }, {
        "detail": [ {
          "reference": "urn:uuid:cb929781-70da-4dd3-b6f6-36ad134f588b"
        } ]
      }, {
        "detail": [ {
          "reference": "urn:uuid:f820e25b-3bfc-4f44-86bb-a40bcb3f5d06"
        } ]
      }, {
        "detail": [ {
          "reference": "urn:uuid:71fd3a5a-c3d3-4066-b616-845166153918"
        } ]
      }, {
        "detail": [ {
          "reference": "urn:uuid:6106f662-26f6-482f-828c-7777a05c9d8e"
        } ]
      }, {
        "detail": [ {
          "reference": "urn:uuid:22a26b26-66bb-45b5-a833-52ec27739c63"
        } ]
      }, {
        "detail": [ {
          "reference": "urn:uuid:d73d32c0-6f36-49b5-b063-8039230859cd"
        } ]
      }, {
        "detail": [ {
          "reference": "urn:uuid:699b864b-7e32-4b0c-a13a-e5288dc8d682"
        } ]
      }, {
        "detail": [ {
          "reference": "urn:uuid:98a31548-6e10-42fb-9d31-599a2451e5c6"
        } ]
      }, {
        "detail": [ {
          "reference": "urn:uuid:661a7a24-cc36-4c9b-a0b0-2be6cb157c7f"
        } ]
      }, {
        "detail": [ {
          "reference": "urn:uuid:6f5f9086-866f-497e-b579-e665a2ea64b0"
        } ]
      }, {
        "detail": [ {
          "reference": "urn:uuid:4c59a61b-0c2a-4ec9-b29d-771b9aa2c001"
        } ]
      }, {
        "detail": [ {
          "reference": "urn:uuid:f9ca769e-419a-420e-a0aa-fa2b19fdf317"
        } ]
      }, {
        "detail": [ {
          "reference": "urn:uuid:70795ea0-ee1f-4f2c-a318-19efbc0a8e71"
        } ]
      }, {
        "detail": [ {
          "reference": "urn:uuid:ddf7f092-36c3-407c-ab2f-dbd080a87c3a"
        } ]
      }, {
        "detail": [ {
          "reference": "urn:uuid:122a7776-7817-441a-978b-50596ddb0e1e"
        } ]
      }, {
        "detail": [ {
          "reference": "urn:uuid:db23a8ff-eeae-4807-ae6a-ce89b2214879"
        } ]
      }, {
        "detail": [ {
          "reference": "urn:uuid:e7fd86f3-722c-4eb2-9f98-2aad749d3ad4"
        } ]
      }, {
        "detail": [ {
          "reference": "urn:uuid:979dfb31-0ddb-4075-8a45-a4272e5c0ab0"
        } ]
      }, {
        "detail": [ {
          "reference": "urn:uuid:77a5da8b-2a29-4aca-970b-84958ed5b72f"
        } ]
      }, {
        "detail": [ {
          "reference": "urn:uuid:5206ee45-6d8c-42db-9c6f-c8d121ffcaca"
        } ]
      } ]
    }
  }, {
    "fullUrl": "urn:uuid:6d3dd733-7c95-49e3-9495-e10ce51fc210",
    "resource": {
      "resourceType": "QuestionnaireResponse",
      "id": "6d3dd733-7c95-49e3-9495-e10ce51fc210",
      "identifier": {
        "value": "59132"
      },
      "questionnaire": {
        "reference": "urn:uuid:164d98f2-c702-4e1c-b9b6-59293dc981bb"
      },
      "status": "completed",
      "subject": {
        "reference": "urn:uuid:faeba344-03fb-4bb6-b9d6-55525057a9e0"
      },
      "context": {
        "reference": "urn:uuid:d5ae7d0f-c30d-4060-a7fb-390873858e23"
      },
      "authored": "2021-04-06T11:33:34+00:00",
      "item": [ {
        "linkId": "Tx220074",
        "text": "What is the reason for the contact?",
        "answer": [ {
          "valueString": "an injury or other health problem"
        } ]
      } ]
    }
  }, {
    "fullUrl": "urn:uuid:164d98f2-c702-4e1c-b9b6-59293dc981bb",
    "resource": {
      "resourceType": "Questionnaire",
      "id": "164d98f2-c702-4e1c-b9b6-59293dc981bb",
      "identifier": [ {
        "value": "59132"
      } ],
      "version": "2021-04-06T11:33:34.963Z",
      "status": "active",
      "experimental": false,
      "date": "2021-04-06T11:33:34+00:00",
      "publisher": "User ID: 'MCDONALDD' User name: 'Denzle McDonald' User skill set: 'T3'",
      "lastReviewDate": "2021-04-06",
      "subjectType": [ "Patient" ],
      "item": [ {
        "linkId": "59132",
        "prefix": "5",
        "text": "What is the reason for the contact?",
        "type": "choice",
        "required": true,
        "repeats": false,
        "option": [ {
          "valueString": "an injury or other health problem, Selected: true"
        }, {
          "valueString": "labour or childbirth, Selected: false"
        }, {
          "valueString": "a need to access another healthcare service, Selected: false"
        }, {
          "valueString": "a healthcare professional requesting contact with another clinician, Selected: false"
        }, {
          "valueString": "a report of results or tests, Selected: false"
        }, {
          "valueString": "a possible failure of contraception, Selected: false"
        }, {
          "valueString": "more, Selected: false"
        } ]
      } ]
    }
  }, {
    "fullUrl": "urn:uuid:b0b8b674-5ca0-4651-98fd-d0af1226b7de",
    "resource": {
      "resourceType": "QuestionnaireResponse",
      "id": "b0b8b674-5ca0-4651-98fd-d0af1226b7de",
      "identifier": {
        "value": "59132"
      },
      "questionnaire": {
        "reference": "urn:uuid:2ed7cd9a-05b7-4c97-87af-832ee8d6f713"
      },
      "status": "completed",
      "subject": {
        "reference": "urn:uuid:faeba344-03fb-4bb6-b9d6-55525057a9e0"
      },
      "context": {
        "reference": "urn:uuid:d5ae7d0f-c30d-4060-a7fb-390873858e23"
      },
      "authored": "2021-04-06T11:33:34+00:00",
      "item": [ {
        "linkId": "Tx221807",
        "text": "STRING:to'Immediatethreatstolife(SPA/OOHversion)'-'Majorbloodloss'stem",
        "answer": [ {
          "valueString": "\"present\""
        } ]
      } ]
    }
  }, {
    "fullUrl": "urn:uuid:2ed7cd9a-05b7-4c97-87af-832ee8d6f713",
    "resource": {
      "resourceType": "Questionnaire",
      "id": "2ed7cd9a-05b7-4c97-87af-832ee8d6f713",
      "identifier": [ {
        "value": "59132"
      } ],
      "version": "2021-04-06T11:33:34.963Z",
      "status": "active",
      "experimental": false,
      "date": "2021-04-06T11:33:34+00:00",
      "publisher": "User ID: 'MCDONALDD' User name: 'Denzle McDonald' User skill set: 'T3'",
      "lastReviewDate": "2021-04-06",
      "subjectType": [ "Patient" ],
      "item": [ {
        "linkId": "59132",
        "prefix": "400",
        "text": "STRING:to'Immediatethreatstolife(SPA/OOHversion)'-'Majorbloodloss'stem",
        "type": "choice",
        "required": true,
        "repeats": false,
        "option": [ {
          "valueString": "\"present\", Selected: true"
        } ]
      } ]
    }
  }, {
    "fullUrl": "urn:uuid:873e96fa-c7d3-4350-8145-519ed21b8d15",
    "resource": {
      "resourceType": "QuestionnaireResponse",
      "id": "873e96fa-c7d3-4350-8145-519ed21b8d15",
      "identifier": {
        "value": "59132"
      },
      "questionnaire": {
        "reference": "urn:uuid:866a0d09-78e1-4e9e-9e69-15bc21d45a11"
      },
      "status": "completed",
      "subject": {
        "reference": "urn:uuid:faeba344-03fb-4bb6-b9d6-55525057a9e0"
      },
      "context": {
        "reference": "urn:uuid:d5ae7d0f-c30d-4060-a7fb-390873858e23"
      },
      "authored": "2021-04-06T11:33:34+00:00"
    }
  }, {
    "fullUrl": "urn:uuid:866a0d09-78e1-4e9e-9e69-15bc21d45a11",
    "resource": {
      "resourceType": "Questionnaire",
      "id": "866a0d09-78e1-4e9e-9e69-15bc21d45a11",
      "identifier": [ {
        "value": "59132"
      } ],
      "version": "2021-04-06T11:33:34.963Z",
      "status": "active",
      "experimental": false,
      "date": "2021-04-06T11:33:34+00:00",
      "publisher": "User ID: 'MCDONALDD' User name: 'Denzle McDonald' User skill set: 'T3'",
      "lastReviewDate": "2021-04-06",
      "subjectType": [ "Patient" ]
    }
  }, {
    "fullUrl": "urn:uuid:964b916c-b9a5-4349-bbea-10d518a1f3af",
    "resource": {
      "resourceType": "QuestionnaireResponse",
      "id": "964b916c-b9a5-4349-bbea-10d518a1f3af",
      "identifier": {
        "value": "59132"
      },
      "questionnaire": {
        "reference": "urn:uuid:98dec258-e232-489c-8c5e-4d31cbd42660"
      },
      "status": "completed",
      "subject": {
        "reference": "urn:uuid:faeba344-03fb-4bb6-b9d6-55525057a9e0"
      },
      "context": {
        "reference": "urn:uuid:d5ae7d0f-c30d-4060-a7fb-390873858e23"
      },
      "authored": "2021-04-06T11:33:34+00:00",
      "item": [ {
        "linkId": "Tx221799",
        "text": "STRING:injury,illnessorlabourestablishedinEntryFlow",
        "answer": [ {
          "valueString": "\"present\""
        } ]
      } ]
    }
  }, {
    "fullUrl": "urn:uuid:98dec258-e232-489c-8c5e-4d31cbd42660",
    "resource": {
      "resourceType": "Questionnaire",
      "id": "98dec258-e232-489c-8c5e-4d31cbd42660",
      "identifier": [ {
        "value": "59132"
      } ],
      "version": "2021-04-06T11:33:34.963Z",
      "status": "active",
      "experimental": false,
      "date": "2021-04-06T11:33:34+00:00",
      "publisher": "User ID: 'MCDONALDD' User name: 'Denzle McDonald' User skill set: 'T3'",
      "lastReviewDate": "2021-04-06",
      "subjectType": [ "Patient" ],
      "item": [ {
        "linkId": "59132",
        "prefix": "0",
        "text": "STRING:injury,illnessorlabourestablishedinEntryFlow",
        "type": "choice",
        "required": true,
        "repeats": false,
        "option": [ {
          "valueString": "\"present\", Selected: true"
        } ]
      } ]
    }
  }, {
    "fullUrl": "urn:uuid:044141a9-c019-4589-a7e4-7f2baf18b953",
    "resource": {
      "resourceType": "QuestionnaireResponse",
      "id": "044141a9-c019-4589-a7e4-7f2baf18b953",
      "identifier": {
        "value": "59132"
      },
      "questionnaire": {
        "reference": "urn:uuid:82f3525f-ff5f-49af-a150-3e9dd9becb9d"
      },
      "status": "completed",
      "subject": {
        "reference": "urn:uuid:faeba344-03fb-4bb6-b9d6-55525057a9e0"
      },
      "context": {
        "reference": "urn:uuid:d5ae7d0f-c30d-4060-a7fb-390873858e23"
      },
      "authored": "2021-04-06T11:33:34+00:00",
      "item": [ {
        "linkId": "Tx221421",
        "text": "Have you been bleeding RED BLOOD very heavily IN THE LAST 30 MINUTES?",
        "answer": [ {
          "valueString": "no"
        } ]
      } ]
    }
  }, {
    "fullUrl": "urn:uuid:82f3525f-ff5f-49af-a150-3e9dd9becb9d",
    "resource": {
      "resourceType": "Questionnaire",
      "id": "82f3525f-ff5f-49af-a150-3e9dd9becb9d",
      "identifier": [ {
        "value": "59132"
      } ],
      "version": "2021-04-06T11:33:34.963Z",
      "status": "active",
      "experimental": false,
      "date": "2021-04-06T11:33:34+00:00",
      "publisher": "User ID: 'MCDONALDD' User name: 'Denzle McDonald' User skill set: 'T3'",
      "lastReviewDate": "2021-04-06",
      "subjectType": [ "Patient" ],
      "item": [ {
        "linkId": "59132",
        "prefix": "200",
        "text": "Have you been bleeding RED BLOOD very heavily IN THE LAST 30 MINUTES?",
        "type": "choice",
        "required": true,
        "repeats": false,
        "option": [ {
          "valueString": "yes, Selected: false"
        }, {
          "valueString": "not sure, Selected: false"
        }, {
          "valueString": "no, Selected: true"
        } ]
      } ]
    }
  }, {
    "fullUrl": "urn:uuid:04328cd7-6300-43aa-b6ed-ba130abec672",
    "resource": {
      "resourceType": "QuestionnaireResponse",
      "id": "04328cd7-6300-43aa-b6ed-ba130abec672",
      "identifier": {
        "value": "59132"
      },
      "questionnaire": {
        "reference": "urn:uuid:973859fe-a2a7-4c04-a040-daf5d439d577"
      },
      "status": "completed",
      "subject": {
        "reference": "urn:uuid:faeba344-03fb-4bb6-b9d6-55525057a9e0"
      },
      "context": {
        "reference": "urn:uuid:d5ae7d0f-c30d-4060-a7fb-390873858e23"
      },
      "authored": "2021-04-06T11:33:34+00:00",
      "item": [ {
        "linkId": "Tx221343",
        "text": "SocialConcernsExcluded",
        "answer": [ {
          "valueString": "*"
        } ]
      } ]
    }
  }, {
    "fullUrl": "urn:uuid:973859fe-a2a7-4c04-a040-daf5d439d577",
    "resource": {
      "resourceType": "Questionnaire",
      "id": "973859fe-a2a7-4c04-a040-daf5d439d577",
      "identifier": [ {
        "value": "59132"
      } ],
      "version": "2021-04-06T11:33:34.963Z",
      "status": "active",
      "experimental": false,
      "date": "2021-04-06T11:33:34+00:00",
      "publisher": "User ID: 'MCDONALDD' User name: 'Denzle McDonald' User skill set: 'T3'",
      "lastReviewDate": "2021-04-06",
      "subjectType": [ "Patient" ],
      "item": [ {
        "linkId": "59132",
        "prefix": "2600",
        "text": "SocialConcernsExcluded",
        "type": "choice",
        "required": true,
        "repeats": false,
        "option": [ {
          "valueString": "==\"present\", Selected: false"
        }, {
          "valueString": "*, Selected: true"
        } ]
      } ]
    }
  }, {
    "fullUrl": "urn:uuid:0ccab070-87af-424b-bf7c-bb2f7e16d429",
    "resource": {
      "resourceType": "QuestionnaireResponse",
      "id": "0ccab070-87af-424b-bf7c-bb2f7e16d429",
      "identifier": {
        "value": "59132"
      },
      "questionnaire": {
        "reference": "urn:uuid:3a2614a3-1fd7-4db9-988e-6074b8c6fe18"
      },
      "status": "completed",
      "subject": {
        "reference": "urn:uuid:faeba344-03fb-4bb6-b9d6-55525057a9e0"
      },
      "context": {
        "reference": "urn:uuid:d5ae7d0f-c30d-4060-a7fb-390873858e23"
      },
      "authored": "2021-04-06T11:33:34+00:00",
      "item": [ {
        "linkId": "Tx130011",
        "text": "What is the main problem?",
        "answer": [ {
          "valueString": "illness or other health problem (specify)"
        } ]
      } ]
    }
  }, {
    "fullUrl": "urn:uuid:3a2614a3-1fd7-4db9-988e-6074b8c6fe18",
    "resource": {
      "resourceType": "Questionnaire",
      "id": "3a2614a3-1fd7-4db9-988e-6074b8c6fe18",
      "identifier": [ {
        "value": "59132"
      } ],
      "version": "2021-04-06T11:33:34.963Z",
      "status": "active",
      "experimental": false,
      "date": "2021-04-06T11:33:34+00:00",
      "publisher": "User ID: 'MCDONALDD' User name: 'Denzle McDonald' User skill set: 'T3'",
      "lastReviewDate": "2021-04-06",
      "subjectType": [ "Patient" ],
      "item": [ {
        "linkId": "59132",
        "prefix": "2500",
        "text": "What is the main problem?",
        "type": "choice",
        "required": true,
        "repeats": false,
        "option": [ {
          "valueString": "the individual has been told to follow a particular course of action (specify), Selected: false"
        }, {
          "valueString": "the individual is an identified frequent caller, Selected: false"
        }, {
          "valueString": "injury (specify), Selected: false"
        }, {
          "valueString": "illness or other health problem (specify), Selected: true"
        }, {
          "valueString": "child protection/vulnerable adult concern, Selected: false"
        }, {
          "valueString": "social or domestic emergency, Selected: false"
        }, {
          "valueString": "the environment potentially poses an immediate threat to life (specify), Selected: false"
        } ]
      } ]
    }
  }, {
    "fullUrl": "urn:uuid:73409141-589c-4726-b4c1-05db1c06cd47",
    "resource": {
      "resourceType": "QuestionnaireResponse",
      "id": "73409141-589c-4726-b4c1-05db1c06cd47",
      "identifier": {
        "value": "59132"
      },
      "questionnaire": {
        "reference": "urn:uuid:9b22106a-c92f-4ef7-ba56-aca5d77eb6dc"
      },
      "status": "completed",
      "subject": {
        "reference": "urn:uuid:faeba344-03fb-4bb6-b9d6-55525057a9e0"
      },
      "context": {
        "reference": "urn:uuid:d5ae7d0f-c30d-4060-a7fb-390873858e23"
      },
      "authored": "2021-04-06T11:33:34+00:00"
    }
  }, {
    "fullUrl": "urn:uuid:9b22106a-c92f-4ef7-ba56-aca5d77eb6dc",
    "resource": {
      "resourceType": "Questionnaire",
      "id": "9b22106a-c92f-4ef7-ba56-aca5d77eb6dc",
      "identifier": [ {
        "value": "59132"
      } ],
      "version": "2021-04-06T11:33:34.963Z",
      "status": "active",
      "experimental": false,
      "date": "2021-04-06T11:33:34+00:00",
      "publisher": "User ID: 'MCDONALDD' User name: 'Denzle McDonald' User skill set: 'T3'",
      "lastReviewDate": "2021-04-06",
      "subjectType": [ "Patient" ]
    }
  }, {
    "fullUrl": "urn:uuid:ab1e427e-616e-4031-8f56-b452fd9e6dde",
    "resource": {
      "resourceType": "QuestionnaireResponse",
      "id": "ab1e427e-616e-4031-8f56-b452fd9e6dde",
      "identifier": {
        "value": "59132"
      },
      "questionnaire": {
        "reference": "urn:uuid:19c6a295-bd4f-4a00-afc8-427481dadd31"
      },
      "status": "completed",
      "subject": {
        "reference": "urn:uuid:faeba344-03fb-4bb6-b9d6-55525057a9e0"
      },
      "context": {
        "reference": "urn:uuid:d5ae7d0f-c30d-4060-a7fb-390873858e23"
      },
      "authored": "2021-04-06T11:33:34+00:00",
      "item": [ {
        "linkId": "Tx61025",
        "text": "Are you so breathless that speaking more than a few words is impossible?",
        "answer": [ {
          "valueString": "no"
        } ]
      } ]
    }
  }, {
    "fullUrl": "urn:uuid:19c6a295-bd4f-4a00-afc8-427481dadd31",
    "resource": {
      "resourceType": "Questionnaire",
      "id": "19c6a295-bd4f-4a00-afc8-427481dadd31",
      "identifier": [ {
        "value": "59132"
      } ],
      "version": "2021-04-06T11:33:34.963Z",
      "status": "active",
      "experimental": false,
      "date": "2021-04-06T11:33:34+00:00",
      "publisher": "User ID: 'MCDONALDD' User name: 'Denzle McDonald' User skill set: 'T3'",
      "lastReviewDate": "2021-04-06",
      "subjectType": [ "Patient" ],
      "item": [ {
        "linkId": "59132",
        "prefix": "0",
        "text": "Are you so breathless that speaking more than a few words is impossible?",
        "type": "choice",
        "required": true,
        "repeats": false,
        "option": [ {
          "valueString": "yes, Selected: false"
        }, {
          "valueString": "not sure, Selected: false"
        }, {
          "valueString": "no, Selected: true"
        } ]
      } ]
    }
  }, {
    "fullUrl": "urn:uuid:0916bd41-a27f-4997-b872-cc585c8a0028",
    "resource": {
      "resourceType": "QuestionnaireResponse",
      "id": "0916bd41-a27f-4997-b872-cc585c8a0028",
      "identifier": {
        "value": "59132"
      },
      "questionnaire": {
        "reference": "urn:uuid:9cccaa1e-1f8e-4e1d-b219-81c8a09d1394"
      },
      "status": "completed",
      "subject": {
        "reference": "urn:uuid:faeba344-03fb-4bb6-b9d6-55525057a9e0"
      },
      "context": {
        "reference": "urn:uuid:d5ae7d0f-c30d-4060-a7fb-390873858e23"
      },
      "authored": "2021-04-06T11:33:34+00:00",
      "item": [ {
        "linkId": "Tx220845",
        "text": "SYSTEM_FLUPANDEMIC",
        "answer": [ {
          "valueString": "*"
        } ]
      } ]
    }
  }, {
    "fullUrl": "urn:uuid:9cccaa1e-1f8e-4e1d-b219-81c8a09d1394",
    "resource": {
      "resourceType": "Questionnaire",
      "id": "9cccaa1e-1f8e-4e1d-b219-81c8a09d1394",
      "identifier": [ {
        "value": "59132"
      } ],
      "version": "2021-04-06T11:33:34.963Z",
      "status": "active",
      "experimental": false,
      "date": "2021-04-06T11:33:34+00:00",
      "publisher": "User ID: 'MCDONALDD' User name: 'Denzle McDonald' User skill set: 'T3'",
      "lastReviewDate": "2021-04-06",
      "subjectType": [ "Patient" ],
      "item": [ {
        "linkId": "59132",
        "prefix": "100",
        "text": "SYSTEM_FLUPANDEMIC",
        "type": "choice",
        "required": true,
        "repeats": false,
        "option": [ {
          "valueString": "==\"pandemic\", Selected: false"
        }, {
          "valueString": "*, Selected: true"
        } ]
      } ]
    }
  }, {
    "fullUrl": "urn:uuid:5b343805-b38e-479e-b8d1-0680e8767ef4",
    "resource": {
      "resourceType": "QuestionnaireResponse",
      "id": "5b343805-b38e-479e-b8d1-0680e8767ef4",
      "identifier": {
        "value": "59132"
      },
      "questionnaire": {
        "reference": "urn:uuid:5979a42a-3ce4-431e-b5b7-9d018359c7da"
      },
      "status": "completed",
      "subject": {
        "reference": "urn:uuid:faeba344-03fb-4bb6-b9d6-55525057a9e0"
      },
      "context": {
        "reference": "urn:uuid:d5ae7d0f-c30d-4060-a7fb-390873858e23"
      },
      "authored": "2021-04-06T11:33:34+00:00",
      "item": [ {
        "linkId": "Tx220044",
        "text": "WHAT IS SAID TO BE THE MAIN REASON FOR THIS CONTACT?",
        "answer": [ {
          "valueString": "more"
        } ]
      } ]
    }
  }, {
    "fullUrl": "urn:uuid:5979a42a-3ce4-431e-b5b7-9d018359c7da",
    "resource": {
      "resourceType": "Questionnaire",
      "id": "5979a42a-3ce4-431e-b5b7-9d018359c7da",
      "identifier": [ {
        "value": "59132"
      } ],
      "version": "2021-04-06T11:33:34.963Z",
      "status": "active",
      "experimental": false,
      "date": "2021-04-06T11:33:34+00:00",
      "publisher": "User ID: 'MCDONALDD' User name: 'Denzle McDonald' User skill set: 'T3'",
      "lastReviewDate": "2021-04-06",
      "subjectType": [ "Patient" ],
      "item": [ {
        "linkId": "59132",
        "prefix": "5000",
        "text": "WHAT IS SAID TO BE THE MAIN REASON FOR THIS CONTACT?",
        "type": "choice",
        "required": true,
        "repeats": false,
        "option": [ {
          "valueString": "a probable allergic reaction now, Selected: false"
        }, {
          "valueString": "chest or upper back pain, Selected: false"
        }, {
          "valueString": "a probable fit or seizure within the last 12 hours, Selected: false"
        }, {
          "valueString": "a suicide attempt, Selected: false"
        }, {
          "valueString": "new confusion now, Selected: false"
        }, {
          "valueString": "a probable stroke or mini stroke, Selected: false"
        }, {
          "valueString": "more, Selected: true"
        } ]
      } ]
    }
  }, {
    "fullUrl": "urn:uuid:92e4509b-cc1b-470f-bddc-504473771b01",
    "resource": {
      "resourceType": "QuestionnaireResponse",
      "id": "92e4509b-cc1b-470f-bddc-504473771b01",
      "identifier": {
        "value": "59132"
      },
      "questionnaire": {
        "reference": "urn:uuid:6a5e2257-fd91-4f6a-864c-0c63f80c9b95"
      },
      "status": "completed",
      "subject": {
        "reference": "urn:uuid:faeba344-03fb-4bb6-b9d6-55525057a9e0"
      },
      "context": {
        "reference": "urn:uuid:d5ae7d0f-c30d-4060-a7fb-390873858e23"
      },
      "authored": "2021-04-06T11:33:34+00:00",
      "item": [ {
        "linkId": "Tx223029",
        "text": "WHAT IS SAID TO BE THE MAIN REASON FOR THIS CONTACT?",
        "answer": [ {
          "valueString": "none of the above"
        } ]
      } ]
    }
  }, {
    "fullUrl": "urn:uuid:6a5e2257-fd91-4f6a-864c-0c63f80c9b95",
    "resource": {
      "resourceType": "Questionnaire",
      "id": "6a5e2257-fd91-4f6a-864c-0c63f80c9b95",
      "identifier": [ {
        "value": "59132"
      } ],
      "version": "2021-04-06T11:33:34.963Z",
      "status": "active",
      "experimental": false,
      "date": "2021-04-06T11:33:34+00:00",
      "publisher": "User ID: 'MCDONALDD' User name: 'Denzle McDonald' User skill set: 'T3'",
      "lastReviewDate": "2021-04-06",
      "subjectType": [ "Patient" ],
      "item": [ {
        "linkId": "59132",
        "prefix": "4100",
        "text": "WHAT IS SAID TO BE THE MAIN REASON FOR THIS CONTACT?",
        "type": "choice",
        "required": true,
        "repeats": false,
        "option": [ {
          "valueString": "a diabetic hypo (low blood sugar) or a diabetic hyper (high blood sugar), Selected: false"
        }, {
          "valueString": "recovery from an ICD (implanted cardioverter defibrillator) shock, Selected: false"
        }, {
          "valueString": "none of the above, Selected: true"
        } ]
      } ]
    }
  }, {
    "fullUrl": "urn:uuid:09674ac9-f524-43cd-af36-8182b65f52cb",
    "resource": {
      "resourceType": "QuestionnaireResponse",
      "id": "09674ac9-f524-43cd-af36-8182b65f52cb",
      "identifier": {
        "value": "59132"
      },
      "questionnaire": {
        "reference": "urn:uuid:d1949862-2306-4fcd-b77f-49fa3da50327"
      },
      "status": "completed",
      "subject": {
        "reference": "urn:uuid:faeba344-03fb-4bb6-b9d6-55525057a9e0"
      },
      "context": {
        "reference": "urn:uuid:d5ae7d0f-c30d-4060-a7fb-390873858e23"
      },
      "authored": "2021-04-06T11:33:34+00:00",
      "item": [ {
        "linkId": "Tx223142",
        "text": "Does the skin on the chest, back or abdomen feel a normal temperature?",
        "answer": [ {
          "valueString": "yes - normal, warm or hot"
        } ]
      } ]
    }
  }, {
    "fullUrl": "urn:uuid:d1949862-2306-4fcd-b77f-49fa3da50327",
    "resource": {
      "resourceType": "Questionnaire",
      "id": "d1949862-2306-4fcd-b77f-49fa3da50327",
      "identifier": [ {
        "value": "59132"
      } ],
      "version": "2021-04-06T11:33:34.963Z",
      "status": "active",
      "experimental": false,
      "date": "2021-04-06T11:33:34+00:00",
      "publisher": "User ID: 'MCDONALDD' User name: 'Denzle McDonald' User skill set: 'T3'",
      "lastReviewDate": "2021-04-06",
      "subjectType": [ "Patient" ],
      "item": [ {
        "linkId": "59132",
        "prefix": "4400",
        "text": "Does the skin on the chest, back or abdomen feel a normal temperature?",
        "type": "choice",
        "required": true,
        "repeats": false,
        "option": [ {
          "valueString": "yes - normal, warm or hot, Selected: true"
        }, {
          "valueString": "not sure, Selected: false"
        }, {
          "valueString": "no - cool OR cold, Selected: false"
        }, {
          "valueString": "not safe to touch, Selected: false"
        } ]
      } ]
    }
  }, {
    "fullUrl": "urn:uuid:0ca93a9c-2785-4638-9b86-209c176a9ba6",
    "resource": {
      "resourceType": "QuestionnaireResponse",
      "id": "0ca93a9c-2785-4638-9b86-209c176a9ba6",
      "identifier": {
        "value": "59132"
      },
      "questionnaire": {
        "reference": "urn:uuid:57a0616c-31be-453f-ab41-82714716c985"
      },
      "status": "completed",
      "subject": {
        "reference": "urn:uuid:faeba344-03fb-4bb6-b9d6-55525057a9e0"
      },
      "context": {
        "reference": "urn:uuid:d5ae7d0f-c30d-4060-a7fb-390873858e23"
      },
      "authored": "2021-04-06T11:33:34+00:00",
      "item": [ {
        "linkId": "Tx221724",
        "text": "STRING:ShockAsked",
        "answer": [ {
          "valueString": "\"present\""
        } ]
      } ]
    }
  }, {
    "fullUrl": "urn:uuid:57a0616c-31be-453f-ab41-82714716c985",
    "resource": {
      "resourceType": "Questionnaire",
      "id": "57a0616c-31be-453f-ab41-82714716c985",
      "identifier": [ {
        "value": "59132"
      } ],
      "version": "2021-04-06T11:33:34.963Z",
      "status": "active",
      "experimental": false,
      "date": "2021-04-06T11:33:34+00:00",
      "publisher": "User ID: 'MCDONALDD' User name: 'Denzle McDonald' User skill set: 'T3'",
      "lastReviewDate": "2021-04-06",
      "subjectType": [ "Patient" ],
      "item": [ {
        "linkId": "59132",
        "prefix": "3300",
        "text": "STRING:ShockAsked",
        "type": "choice",
        "required": true,
        "repeats": false,
        "option": [ {
          "valueString": "\"present\", Selected: true"
        } ]
      } ]
    }
  }, {
    "fullUrl": "urn:uuid:6e0f91ee-5552-44c2-86a4-96cb9e61fb2a",
    "resource": {
      "resourceType": "QuestionnaireResponse",
      "id": "6e0f91ee-5552-44c2-86a4-96cb9e61fb2a",
      "identifier": {
        "value": "59132"
      },
      "questionnaire": {
        "reference": "urn:uuid:1feea6cf-705d-45db-bfe3-3a33bb8dc2a1"
      },
      "status": "completed",
      "subject": {
        "reference": "urn:uuid:faeba344-03fb-4bb6-b9d6-55525057a9e0"
      },
      "context": {
        "reference": "urn:uuid:d5ae7d0f-c30d-4060-a7fb-390873858e23"
      },
      "authored": "2021-04-06T11:33:34+00:00"
    }
  }, {
    "fullUrl": "urn:uuid:1feea6cf-705d-45db-bfe3-3a33bb8dc2a1",
    "resource": {
      "resourceType": "Questionnaire",
      "id": "1feea6cf-705d-45db-bfe3-3a33bb8dc2a1",
      "identifier": [ {
        "value": "59132"
      } ],
      "version": "2021-04-06T11:33:34.963Z",
      "status": "active",
      "experimental": false,
      "date": "2021-04-06T11:33:34+00:00",
      "publisher": "User ID: 'MCDONALDD' User name: 'Denzle McDonald' User skill set: 'T3'",
      "lastReviewDate": "2021-04-06",
      "subjectType": [ "Patient" ]
    }
  }, {
    "fullUrl": "urn:uuid:aaf52d61-44aa-4578-9a1a-d46410384a90",
    "resource": {
      "resourceType": "QuestionnaireResponse",
      "id": "aaf52d61-44aa-4578-9a1a-d46410384a90",
      "identifier": {
        "value": "59132"
      },
      "questionnaire": {
        "reference": "urn:uuid:173e1c8a-36a2-4c19-b6a0-e8947a4ad022"
      },
      "status": "completed",
      "subject": {
        "reference": "urn:uuid:faeba344-03fb-4bb6-b9d6-55525057a9e0"
      },
      "context": {
        "reference": "urn:uuid:d5ae7d0f-c30d-4060-a7fb-390873858e23"
      },
      "authored": "2021-04-06T11:33:34+00:00",
      "item": [ {
        "linkId": "Tx223272",
        "text": "SYSTEM_VHF",
        "answer": [ {
          "valueString": "*"
        } ]
      } ]
    }
  }, {
    "fullUrl": "urn:uuid:173e1c8a-36a2-4c19-b6a0-e8947a4ad022",
    "resource": {
      "resourceType": "Questionnaire",
      "id": "173e1c8a-36a2-4c19-b6a0-e8947a4ad022",
      "identifier": [ {
        "value": "59132"
      } ],
      "version": "2021-04-06T11:33:34.963Z",
      "status": "active",
      "experimental": false,
      "date": "2021-04-06T11:33:34+00:00",
      "publisher": "User ID: 'MCDONALDD' User name: 'Denzle McDonald' User skill set: 'T3'",
      "lastReviewDate": "2021-04-06",
      "subjectType": [ "Patient" ],
      "item": [ {
        "linkId": "59132",
        "prefix": "0",
        "text": "SYSTEM_VHF",
        "type": "choice",
        "required": true,
        "repeats": false,
        "option": [ {
          "valueString": "==\"vhf\", Selected: false"
        }, {
          "valueString": "*, Selected: true"
        } ]
      } ]
    }
  }, {
    "fullUrl": "urn:uuid:d7516633-e1f5-4528-8635-1db43e30a584",
    "resource": {
      "resourceType": "QuestionnaireResponse",
      "id": "d7516633-e1f5-4528-8635-1db43e30a584",
      "identifier": {
        "value": "59132"
      },
      "questionnaire": {
        "reference": "urn:uuid:6547d501-42ec-48d9-bd1f-b0950a6327e9"
      },
      "status": "completed",
      "subject": {
        "reference": "urn:uuid:faeba344-03fb-4bb6-b9d6-55525057a9e0"
      },
      "context": {
        "reference": "urn:uuid:d5ae7d0f-c30d-4060-a7fb-390873858e23"
      },
      "authored": "2021-04-06T11:33:34+00:00",
      "item": [ {
        "linkId": "Tx222416",
        "text": "Have you actually vomited?",
        "answer": [ {
          "valueString": "no"
        } ]
      } ]
    }
  }, {
    "fullUrl": "urn:uuid:6547d501-42ec-48d9-bd1f-b0950a6327e9",
    "resource": {
      "resourceType": "Questionnaire",
      "id": "6547d501-42ec-48d9-bd1f-b0950a6327e9",
      "identifier": [ {
        "value": "59132"
      } ],
      "version": "2021-04-06T11:33:34.963Z",
      "status": "active",
      "experimental": false,
      "date": "2021-04-06T11:33:34+00:00",
      "publisher": "User ID: 'MCDONALDD' User name: 'Denzle McDonald' User skill set: 'T3'",
      "lastReviewDate": "2021-04-06",
      "subjectType": [ "Patient" ],
      "item": [ {
        "linkId": "59132",
        "prefix": "30400",
        "text": "Have you actually vomited?",
        "type": "choice",
        "required": true,
        "repeats": false,
        "option": [ {
          "valueString": "yes, Selected: false"
        }, {
          "valueString": "not sure, Selected: false"
        }, {
          "valueString": "no, Selected: true"
        } ]
      } ]
    }
  }, {
    "fullUrl": "urn:uuid:9d12472b-fba3-402d-83fd-e81b933e0f24",
    "resource": {
      "resourceType": "QuestionnaireResponse",
      "id": "9d12472b-fba3-402d-83fd-e81b933e0f24",
      "identifier": {
        "value": "59132"
      },
      "questionnaire": {
        "reference": "urn:uuid:965463ac-fef8-4a10-b99f-d3b98347923b"
      },
      "status": "completed",
      "subject": {
        "reference": "urn:uuid:faeba344-03fb-4bb6-b9d6-55525057a9e0"
      },
      "context": {
        "reference": "urn:uuid:d5ae7d0f-c30d-4060-a7fb-390873858e23"
      },
      "authored": "2021-04-06T11:33:34+00:00",
      "item": [ {
        "linkId": "Tx220964",
        "text": "Have you got diarrhoea as well?",
        "answer": [ {
          "valueString": "no"
        } ]
      } ]
    }
  }, {
    "fullUrl": "urn:uuid:965463ac-fef8-4a10-b99f-d3b98347923b",
    "resource": {
      "resourceType": "Questionnaire",
      "id": "965463ac-fef8-4a10-b99f-d3b98347923b",
      "identifier": [ {
        "value": "59132"
      } ],
      "version": "2021-04-06T11:33:34.963Z",
      "status": "active",
      "experimental": false,
      "date": "2021-04-06T11:33:34+00:00",
      "publisher": "User ID: 'MCDONALDD' User name: 'Denzle McDonald' User skill set: 'T3'",
      "lastReviewDate": "2021-04-06",
      "subjectType": [ "Patient" ],
      "item": [ {
        "linkId": "59132",
        "prefix": "100",
        "text": "Have you got diarrhoea as well?",
        "type": "choice",
        "required": true,
        "repeats": false,
        "option": [ {
          "valueString": "yes, Selected: false"
        }, {
          "valueString": "not sure, Selected: false"
        }, {
          "valueString": "no, Selected: true"
        } ]
      } ]
    }
  }, {
    "fullUrl": "urn:uuid:6ef170c6-235e-4475-8388-93e752e0ffdb",
    "resource": {
      "resourceType": "QuestionnaireResponse",
      "id": "6ef170c6-235e-4475-8388-93e752e0ffdb",
      "identifier": {
        "value": "59132"
      },
      "questionnaire": {
        "reference": "urn:uuid:465004e2-10ba-4905-8ae1-e381600d115c"
      },
      "status": "completed",
      "subject": {
        "reference": "urn:uuid:faeba344-03fb-4bb6-b9d6-55525057a9e0"
      },
      "context": {
        "reference": "urn:uuid:d5ae7d0f-c30d-4060-a7fb-390873858e23"
      },
      "authored": "2021-04-06T11:33:34+00:00",
      "item": [ {
        "linkId": "Tx221277",
        "text": "Vomiting",
        "answer": [ {
          "valueString": "*"
        } ]
      } ]
    }
  }, {
    "fullUrl": "urn:uuid:465004e2-10ba-4905-8ae1-e381600d115c",
    "resource": {
      "resourceType": "Questionnaire",
      "id": "465004e2-10ba-4905-8ae1-e381600d115c",
      "identifier": [ {
        "value": "59132"
      } ],
      "version": "2021-04-06T11:33:34.963Z",
      "status": "active",
      "experimental": false,
      "date": "2021-04-06T11:33:34+00:00",
      "publisher": "User ID: 'MCDONALDD' User name: 'Denzle McDonald' User skill set: 'T3'",
      "lastReviewDate": "2021-04-06",
      "subjectType": [ "Patient" ],
      "item": [ {
        "linkId": "59132",
        "prefix": "400",
        "text": "Vomiting",
        "type": "choice",
        "required": true,
        "repeats": false,
        "option": [ {
          "valueString": "==\"present\", Selected: false"
        }, {
          "valueString": "*, Selected: true"
        } ]
      } ]
    }
  }, {
    "fullUrl": "urn:uuid:04074c6e-6b2a-41d6-a44a-80c38bb4a6e5",
    "resource": {
      "resourceType": "QuestionnaireResponse",
      "id": "04074c6e-6b2a-41d6-a44a-80c38bb4a6e5",
      "identifier": {
        "value": "59132"
      },
      "questionnaire": {
        "reference": "urn:uuid:5865632b-0f64-40c3-a7c5-ba2ad73aea6a"
      },
      "status": "completed",
      "subject": {
        "reference": "urn:uuid:faeba344-03fb-4bb6-b9d6-55525057a9e0"
      },
      "context": {
        "reference": "urn:uuid:d5ae7d0f-c30d-4060-a7fb-390873858e23"
      },
      "authored": "2021-04-06T11:33:34+00:00",
      "item": [ {
        "linkId": "Tx221183",
        "text": "Did the symptoms come on after drinking alcohol?",
        "answer": [ {
          "valueString": "no"
        } ]
      } ]
    }
  }, {
    "fullUrl": "urn:uuid:5865632b-0f64-40c3-a7c5-ba2ad73aea6a",
    "resource": {
      "resourceType": "Questionnaire",
      "id": "5865632b-0f64-40c3-a7c5-ba2ad73aea6a",
      "identifier": [ {
        "value": "59132"
      } ],
      "version": "2021-04-06T11:33:34.963Z",
      "status": "active",
      "experimental": false,
      "date": "2021-04-06T11:33:34+00:00",
      "publisher": "User ID: 'MCDONALDD' User name: 'Denzle McDonald' User skill set: 'T3'",
      "lastReviewDate": "2021-04-06",
      "subjectType": [ "Patient" ],
      "item": [ {
        "linkId": "59132",
        "prefix": "300",
        "text": "Did the symptoms come on after drinking alcohol?",
        "type": "choice",
        "required": true,
        "repeats": false,
        "option": [ {
          "valueString": "yes, Selected: false"
        }, {
          "valueString": "not sure, Selected: false"
        }, {
          "valueString": "no, Selected: true"
        } ]
      } ]
    }
  }, {
    "fullUrl": "urn:uuid:c951685d-d2a5-425d-b25b-805a837cf5f1",
    "resource": {
      "resourceType": "QuestionnaireResponse",
      "id": "c951685d-d2a5-425d-b25b-805a837cf5f1",
      "identifier": {
        "value": "59132"
      },
      "questionnaire": {
        "reference": "urn:uuid:fa792190-d8de-4613-acc7-b356c9989eb1"
      },
      "status": "completed",
      "subject": {
        "reference": "urn:uuid:faeba344-03fb-4bb6-b9d6-55525057a9e0"
      },
      "context": {
        "reference": "urn:uuid:d5ae7d0f-c30d-4060-a7fb-390873858e23"
      },
      "authored": "2021-04-06T11:33:34+00:00",
      "item": [ {
        "linkId": "Tx221277",
        "text": "Vomiting",
        "answer": [ {
          "valueString": "*"
        } ]
      } ]
    }
  }, {
    "fullUrl": "urn:uuid:fa792190-d8de-4613-acc7-b356c9989eb1",
    "resource": {
      "resourceType": "Questionnaire",
      "id": "fa792190-d8de-4613-acc7-b356c9989eb1",
      "identifier": [ {
        "value": "59132"
      } ],
      "version": "2021-04-06T11:33:34.963Z",
      "status": "active",
      "experimental": false,
      "date": "2021-04-06T11:33:34+00:00",
      "publisher": "User ID: 'MCDONALDD' User name: 'Denzle McDonald' User skill set: 'T3'",
      "lastReviewDate": "2021-04-06",
      "subjectType": [ "Patient" ],
      "item": [ {
        "linkId": "59132",
        "prefix": "1000",
        "text": "Vomiting",
        "type": "choice",
        "required": true,
        "repeats": false,
        "option": [ {
          "valueString": "==\"present\", Selected: false"
        }, {
          "valueString": "*, Selected: true"
        } ]
      } ]
    }
  }, {
    "fullUrl": "urn:uuid:cb31779b-ed2e-4ff0-8485-efbe74580fac",
    "resource": {
      "resourceType": "QuestionnaireResponse",
      "id": "cb31779b-ed2e-4ff0-8485-efbe74580fac",
      "identifier": {
        "value": "59132"
      },
      "questionnaire": {
        "reference": "urn:uuid:e5d7bc0f-1bcd-4259-b21c-d00cb8d53e3a"
      },
      "status": "completed",
      "subject": {
        "reference": "urn:uuid:faeba344-03fb-4bb6-b9d6-55525057a9e0"
      },
      "context": {
        "reference": "urn:uuid:d5ae7d0f-c30d-4060-a7fb-390873858e23"
      },
      "authored": "2021-04-06T11:33:34+00:00",
      "item": [ {
        "linkId": "Tx220825",
        "text": "Have you also got any pain in the abdomen?",
        "answer": [ {
          "valueString": "yes"
        } ]
      } ]
    }
  }, {
    "fullUrl": "urn:uuid:e5d7bc0f-1bcd-4259-b21c-d00cb8d53e3a",
    "resource": {
      "resourceType": "Questionnaire",
      "id": "e5d7bc0f-1bcd-4259-b21c-d00cb8d53e3a",
      "identifier": [ {
        "value": "59132"
      } ],
      "version": "2021-04-06T11:33:34.963Z",
      "status": "active",
      "experimental": false,
      "date": "2021-04-06T11:33:34+00:00",
      "publisher": "User ID: 'MCDONALDD' User name: 'Denzle McDonald' User skill set: 'T3'",
      "lastReviewDate": "2021-04-06",
      "subjectType": [ "Patient" ],
      "item": [ {
        "linkId": "59132",
        "prefix": "1500",
        "text": "Have you also got any pain in the abdomen?",
        "type": "choice",
        "required": true,
        "repeats": false,
        "option": [ {
          "valueString": "yes, Selected: true"
        }, {
          "valueString": "not sure, Selected: false"
        }, {
          "valueString": "no, Selected: false"
        } ]
      } ]
    }
  }, {
    "fullUrl": "urn:uuid:641036c6-fb3c-494f-8e43-1fc85a1ef415",
    "resource": {
      "resourceType": "QuestionnaireResponse",
      "id": "641036c6-fb3c-494f-8e43-1fc85a1ef415",
      "identifier": {
        "value": "59132"
      },
      "questionnaire": {
        "reference": "urn:uuid:8880f52c-6863-4baf-9f9e-f0ddfbb4b0f9"
      },
      "status": "completed",
      "subject": {
        "reference": "urn:uuid:faeba344-03fb-4bb6-b9d6-55525057a9e0"
      },
      "context": {
        "reference": "urn:uuid:d5ae7d0f-c30d-4060-a7fb-390873858e23"
      },
      "authored": "2021-04-06T11:33:34+00:00",
      "item": [ {
        "linkId": "Tx224927",
        "text": "STRING:VomitingAnd/OrNauseaWithAbdominalPainPW",
        "answer": [ {
          "valueString": "\"present\""
        } ]
      } ]
    }
  }, {
    "fullUrl": "urn:uuid:8880f52c-6863-4baf-9f9e-f0ddfbb4b0f9",
    "resource": {
      "resourceType": "Questionnaire",
      "id": "8880f52c-6863-4baf-9f9e-f0ddfbb4b0f9",
      "identifier": [ {
        "value": "59132"
      } ],
      "version": "2021-04-06T11:33:34.963Z",
      "status": "active",
      "experimental": false,
      "date": "2021-04-06T11:33:34+00:00",
      "publisher": "User ID: 'MCDONALDD' User name: 'Denzle McDonald' User skill set: 'T3'",
      "lastReviewDate": "2021-04-06",
      "subjectType": [ "Patient" ],
      "item": [ {
        "linkId": "59132",
        "prefix": "64600",
        "text": "STRING:VomitingAnd/OrNauseaWithAbdominalPainPW",
        "type": "choice",
        "required": true,
        "repeats": false,
        "option": [ {
          "valueString": "\"present\", Selected: true"
        } ]
      } ]
    }
  }, {
    "fullUrl": "urn:uuid:83bbde9e-1163-46a0-b595-27aed3fb90a1",
    "resource": {
      "resourceType": "QuestionnaireResponse",
      "id": "83bbde9e-1163-46a0-b595-27aed3fb90a1",
      "identifier": {
        "value": "59132"
      },
      "questionnaire": {
        "reference": "urn:uuid:b4124775-0ed7-4b14-a8ab-09dbcf94d156"
      },
      "status": "completed",
      "subject": {
        "reference": "urn:uuid:faeba344-03fb-4bb6-b9d6-55525057a9e0"
      },
      "context": {
        "reference": "urn:uuid:d5ae7d0f-c30d-4060-a7fb-390873858e23"
      },
      "authored": "2021-04-06T11:33:34+00:00",
      "item": [ {
        "linkId": "Tx224907",
        "text": "STRING:GITSymptomWithAbdominalPain",
        "answer": [ {
          "valueString": "\"present\""
        } ]
      } ]
    }
  }, {
    "fullUrl": "urn:uuid:b4124775-0ed7-4b14-a8ab-09dbcf94d156",
    "resource": {
      "resourceType": "Questionnaire",
      "id": "b4124775-0ed7-4b14-a8ab-09dbcf94d156",
      "identifier": [ {
        "value": "59132"
      } ],
      "version": "2021-04-06T11:33:34.963Z",
      "status": "active",
      "experimental": false,
      "date": "2021-04-06T11:33:34+00:00",
      "publisher": "User ID: 'MCDONALDD' User name: 'Denzle McDonald' User skill set: 'T3'",
      "lastReviewDate": "2021-04-06",
      "subjectType": [ "Patient" ],
      "item": [ {
        "linkId": "59132",
        "prefix": "64700",
        "text": "STRING:GITSymptomWithAbdominalPain",
        "type": "choice",
        "required": true,
        "repeats": false,
        "option": [ {
          "valueString": "\"present\", Selected: true"
        } ]
      } ]
    }
  }, {
    "fullUrl": "urn:uuid:11e34fc5-acc5-42cc-a4df-53d03f58f590",
    "resource": {
      "resourceType": "QuestionnaireResponse",
      "id": "11e34fc5-acc5-42cc-a4df-53d03f58f590",
      "identifier": {
        "value": "59132"
      },
      "questionnaire": {
        "reference": "urn:uuid:fcecc344-ab3f-4589-87e6-d3ef9dede34c"
      },
      "status": "completed",
      "subject": {
        "reference": "urn:uuid:faeba344-03fb-4bb6-b9d6-55525057a9e0"
      },
      "context": {
        "reference": "urn:uuid:d5ae7d0f-c30d-4060-a7fb-390873858e23"
      },
      "authored": "2021-04-06T11:33:34+00:00"
    }
  }, {
    "fullUrl": "urn:uuid:fcecc344-ab3f-4589-87e6-d3ef9dede34c",
    "resource": {
      "resourceType": "Questionnaire",
      "id": "fcecc344-ab3f-4589-87e6-d3ef9dede34c",
      "identifier": [ {
        "value": "59132"
      } ],
      "version": "2021-04-06T11:33:34.963Z",
      "status": "active",
      "experimental": false,
      "date": "2021-04-06T11:33:34+00:00",
      "publisher": "User ID: 'MCDONALDD' User name: 'Denzle McDonald' User skill set: 'T3'",
      "lastReviewDate": "2021-04-06",
      "subjectType": [ "Patient" ]
    }
  }, {
    "fullUrl": "urn:uuid:b959777c-ffc6-42cf-98f0-6be8724b7e53",
    "resource": {
      "resourceType": "QuestionnaireResponse",
      "id": "b959777c-ffc6-42cf-98f0-6be8724b7e53",
      "identifier": {
        "value": "59132"
      },
      "questionnaire": {
        "reference": "urn:uuid:4d744481-7f73-4c9f-9805-d295802358b5"
      },
      "status": "completed",
      "subject": {
        "reference": "urn:uuid:faeba344-03fb-4bb6-b9d6-55525057a9e0"
      },
      "context": {
        "reference": "urn:uuid:d5ae7d0f-c30d-4060-a7fb-390873858e23"
      },
      "authored": "2021-04-06T11:33:34+00:00",
      "item": [ {
        "linkId": "Tx221039",
        "text": "PATIENT_AGEGROUP",
        "answer": [ {
          "valueString": "==\"CHILD\""
        } ]
      } ]
    }
  }, {
    "fullUrl": "urn:uuid:4d744481-7f73-4c9f-9805-d295802358b5",
    "resource": {
      "resourceType": "Questionnaire",
      "id": "4d744481-7f73-4c9f-9805-d295802358b5",
      "identifier": [ {
        "value": "59132"
      } ],
      "version": "2021-04-06T11:33:34.963Z",
      "status": "active",
      "experimental": false,
      "date": "2021-04-06T11:33:34+00:00",
      "publisher": "User ID: 'MCDONALDD' User name: 'Denzle McDonald' User skill set: 'T3'",
      "lastReviewDate": "2021-04-06",
      "subjectType": [ "Patient" ],
      "item": [ {
        "linkId": "59132",
        "prefix": "0",
        "text": "PATIENT_AGEGROUP",
        "type": "choice",
        "required": true,
        "repeats": false,
        "option": [ {
          "valueString": "==\"ADULT\", Selected: false"
        }, {
          "valueString": "==\"CHILD\", Selected: true"
        }, {
          "valueString": "==\"TODDLER\", Selected: false"
        }, {
          "valueString": "==\"INFANT\", Selected: false"
        }, {
          "valueString": "==\"NEONATE\", Selected: false"
        }, {
          "valueString": "*, Selected: false"
        } ]
      } ]
    }
  }, {
    "fullUrl": "urn:uuid:9d64df78-2a46-4ebc-9de5-ef9fc993652a",
    "resource": {
      "resourceType": "QuestionnaireResponse",
      "id": "9d64df78-2a46-4ebc-9de5-ef9fc993652a",
      "identifier": {
        "value": "59132"
      },
      "questionnaire": {
        "reference": "urn:uuid:baaa8439-6eb8-490c-92c7-41177cac90d5"
      },
      "status": "completed",
      "subject": {
        "reference": "urn:uuid:faeba344-03fb-4bb6-b9d6-55525057a9e0"
      },
      "context": {
        "reference": "urn:uuid:d5ae7d0f-c30d-4060-a7fb-390873858e23"
      },
      "authored": "2021-04-06T11:33:34+00:00",
      "item": [ {
        "linkId": "Tx224919",
        "text": "PATIENT_AGE",
        "answer": [ {
          "valueString": "<11"
        } ]
      } ]
    }
  }, {
    "fullUrl": "urn:uuid:baaa8439-6eb8-490c-92c7-41177cac90d5",
    "resource": {
      "resourceType": "Questionnaire",
      "id": "baaa8439-6eb8-490c-92c7-41177cac90d5",
      "identifier": [ {
        "value": "59132"
      } ],
      "version": "2021-04-06T11:33:34.963Z",
      "status": "active",
      "experimental": false,
      "date": "2021-04-06T11:33:34+00:00",
      "publisher": "User ID: 'MCDONALDD' User name: 'Denzle McDonald' User skill set: 'T3'",
      "lastReviewDate": "2021-04-06",
      "subjectType": [ "Patient" ],
      "item": [ {
        "linkId": "59132",
        "prefix": "15300",
        "text": "PATIENT_AGE",
        "type": "choice",
        "required": true,
        "repeats": false,
        "option": [ {
          "valueString": "<11, Selected: true"
        }, {
          "valueString": "<13, Selected: false"
        }, {
          "valueString": ">=13, Selected: false"
        }, {
          "valueString": "*, Selected: false"
        } ]
      } ]
    }
  }, {
    "fullUrl": "urn:uuid:1f443841-bc7c-4104-8a1a-07c32bcd0046",
    "resource": {
      "resourceType": "QuestionnaireResponse",
      "id": "1f443841-bc7c-4104-8a1a-07c32bcd0046",
      "identifier": {
        "value": "59132"
      },
      "questionnaire": {
        "reference": "urn:uuid:bd60f7c8-0ab1-4437-a6da-dae54b260304"
      },
      "status": "completed",
      "subject": {
        "reference": "urn:uuid:faeba344-03fb-4bb6-b9d6-55525057a9e0"
      },
      "context": {
        "reference": "urn:uuid:d5ae7d0f-c30d-4060-a7fb-390873858e23"
      },
      "authored": "2021-04-06T11:33:34+00:00",
      "item": [ {
        "linkId": "Tx224498",
        "text": "STRING:Under11",
        "answer": [ {
          "valueString": "\"present\""
        } ]
      } ]
    }
  }, {
    "fullUrl": "urn:uuid:bd60f7c8-0ab1-4437-a6da-dae54b260304",
    "resource": {
      "resourceType": "Questionnaire",
      "id": "bd60f7c8-0ab1-4437-a6da-dae54b260304",
      "identifier": [ {
        "value": "59132"
      } ],
      "version": "2021-04-06T11:33:34.963Z",
      "status": "active",
      "experimental": false,
      "date": "2021-04-06T11:33:34+00:00",
      "publisher": "User ID: 'MCDONALDD' User name: 'Denzle McDonald' User skill set: 'T3'",
      "lastReviewDate": "2021-04-06",
      "subjectType": [ "Patient" ],
      "item": [ {
        "linkId": "59132",
        "prefix": "14800",
        "text": "STRING:Under11",
        "type": "choice",
        "required": true,
        "repeats": false,
        "option": [ {
          "valueString": "\"present\", Selected: true"
        } ]
      } ]
    }
  }, {
    "fullUrl": "urn:uuid:857912a4-76a3-4624-a959-4e77c20332c6",
    "resource": {
      "resourceType": "QuestionnaireResponse",
      "id": "857912a4-76a3-4624-a959-4e77c20332c6",
      "identifier": {
        "value": "59132"
      },
      "questionnaire": {
        "reference": "urn:uuid:4bf02ccd-90fe-4fed-bc0f-1893bd8cf5a8"
      },
      "status": "completed",
      "subject": {
        "reference": "urn:uuid:faeba344-03fb-4bb6-b9d6-55525057a9e0"
      },
      "context": {
        "reference": "urn:uuid:d5ae7d0f-c30d-4060-a7fb-390873858e23"
      },
      "authored": "2021-04-06T11:33:34+00:00",
      "item": [ {
        "linkId": "Tx224906",
        "text": "AbdominalPainPW",
        "answer": [ {
          "valueString": "*"
        } ]
      } ]
    }
  }, {
    "fullUrl": "urn:uuid:4bf02ccd-90fe-4fed-bc0f-1893bd8cf5a8",
    "resource": {
      "resourceType": "Questionnaire",
      "id": "4bf02ccd-90fe-4fed-bc0f-1893bd8cf5a8",
      "identifier": [ {
        "value": "59132"
      } ],
      "version": "2021-04-06T11:33:34.963Z",
      "status": "active",
      "experimental": false,
      "date": "2021-04-06T11:33:34+00:00",
      "publisher": "User ID: 'MCDONALDD' User name: 'Denzle McDonald' User skill set: 'T3'",
      "lastReviewDate": "2021-04-06",
      "subjectType": [ "Patient" ],
      "item": [ {
        "linkId": "59132",
        "prefix": "15600",
        "text": "AbdominalPainPW",
        "type": "choice",
        "required": true,
        "repeats": false,
        "option": [ {
          "valueString": "==\"present\", Selected: false"
        }, {
          "valueString": "*, Selected: true"
        } ]
      } ]
    }
  }, {
    "fullUrl": "urn:uuid:eb1c7876-1b68-49d6-8fe4-6cc8bee52297",
    "resource": {
      "resourceType": "QuestionnaireResponse",
      "id": "eb1c7876-1b68-49d6-8fe4-6cc8bee52297",
      "identifier": {
        "value": "59132"
      },
      "questionnaire": {
        "reference": "urn:uuid:30395c2e-8197-49c8-a1fe-d416e49e610b"
      },
      "status": "completed",
      "subject": {
        "reference": "urn:uuid:faeba344-03fb-4bb6-b9d6-55525057a9e0"
      },
      "context": {
        "reference": "urn:uuid:d5ae7d0f-c30d-4060-a7fb-390873858e23"
      },
      "authored": "2021-04-06T11:33:34+00:00",
      "item": [ {
        "linkId": "Tx225151",
        "text": "RectalBleedingwithAbdominalPainPW",
        "answer": [ {
          "valueString": "*"
        } ]
      } ]
    }
  }, {
    "fullUrl": "urn:uuid:30395c2e-8197-49c8-a1fe-d416e49e610b",
    "resource": {
      "resourceType": "Questionnaire",
      "id": "30395c2e-8197-49c8-a1fe-d416e49e610b",
      "identifier": [ {
        "value": "59132"
      } ],
      "version": "2021-04-06T11:33:34.963Z",
      "status": "active",
      "experimental": false,
      "date": "2021-04-06T11:33:34+00:00",
      "publisher": "User ID: 'MCDONALDD' User name: 'Denzle McDonald' User skill set: 'T3'",
      "lastReviewDate": "2021-04-06",
      "subjectType": [ "Patient" ],
      "item": [ {
        "linkId": "59132",
        "prefix": "21300",
        "text": "RectalBleedingwithAbdominalPainPW",
        "type": "choice",
        "required": true,
        "repeats": false,
        "option": [ {
          "valueString": "==\"present\", Selected: false"
        }, {
          "valueString": "*, Selected: true"
        } ]
      } ]
    }
  }, {
    "fullUrl": "urn:uuid:a9d87f30-72ac-4b90-a713-c7e4ad10182b",
    "resource": {
      "resourceType": "QuestionnaireResponse",
      "id": "a9d87f30-72ac-4b90-a713-c7e4ad10182b",
      "identifier": {
        "value": "59132"
      },
      "questionnaire": {
        "reference": "urn:uuid:a8645a8d-5533-45f4-a441-1c42d785fded"
      },
      "status": "completed",
      "subject": {
        "reference": "urn:uuid:faeba344-03fb-4bb6-b9d6-55525057a9e0"
      },
      "context": {
        "reference": "urn:uuid:d5ae7d0f-c30d-4060-a7fb-390873858e23"
      },
      "authored": "2021-04-06T11:33:34+00:00",
      "item": [ {
        "linkId": "Tx224908",
        "text": "GITSymptomWithAbdominalPain",
        "answer": [ {
          "valueString": "==\"present\""
        } ]
      } ]
    }
  }, {
    "fullUrl": "urn:uuid:a8645a8d-5533-45f4-a441-1c42d785fded",
    "resource": {
      "resourceType": "Questionnaire",
      "id": "a8645a8d-5533-45f4-a441-1c42d785fded",
      "identifier": [ {
        "value": "59132"
      } ],
      "version": "2021-04-06T11:33:34.963Z",
      "status": "active",
      "experimental": false,
      "date": "2021-04-06T11:33:34+00:00",
      "publisher": "User ID: 'MCDONALDD' User name: 'Denzle McDonald' User skill set: 'T3'",
      "lastReviewDate": "2021-04-06",
      "subjectType": [ "Patient" ],
      "item": [ {
        "linkId": "59132",
        "prefix": "15700",
        "text": "GITSymptomWithAbdominalPain",
        "type": "choice",
        "required": true,
        "repeats": false,
        "option": [ {
          "valueString": "==\"present\", Selected: true"
        }, {
          "valueString": "*, Selected: false"
        } ]
      } ]
    }
  }, {
    "fullUrl": "urn:uuid:ff25e753-1d3e-4a03-926c-a6cad64117c2",
    "resource": {
      "resourceType": "QuestionnaireResponse",
      "id": "ff25e753-1d3e-4a03-926c-a6cad64117c2",
      "identifier": {
        "value": "59132"
      },
      "questionnaire": {
        "reference": "urn:uuid:1e8cf12c-13c0-4551-9538-a8f2c4f4a32a"
      },
      "status": "completed",
      "subject": {
        "reference": "urn:uuid:faeba344-03fb-4bb6-b9d6-55525057a9e0"
      },
      "context": {
        "reference": "urn:uuid:d5ae7d0f-c30d-4060-a7fb-390873858e23"
      },
      "authored": "2021-04-06T11:33:34+00:00"
    }
  }, {
    "fullUrl": "urn:uuid:1e8cf12c-13c0-4551-9538-a8f2c4f4a32a",
    "resource": {
      "resourceType": "Questionnaire",
      "id": "1e8cf12c-13c0-4551-9538-a8f2c4f4a32a",
      "identifier": [ {
        "value": "59132"
      } ],
      "version": "2021-04-06T11:33:34.963Z",
      "status": "active",
      "experimental": false,
      "date": "2021-04-06T11:33:34+00:00",
      "publisher": "User ID: 'MCDONALDD' User name: 'Denzle McDonald' User skill set: 'T3'",
      "lastReviewDate": "2021-04-06",
      "subjectType": [ "Patient" ]
    }
  }, {
    "fullUrl": "urn:uuid:8d2fcb7a-7d6d-4e20-b868-d980e78ef310",
    "resource": {
      "resourceType": "QuestionnaireResponse",
      "id": "8d2fcb7a-7d6d-4e20-b868-d980e78ef310",
      "identifier": {
        "value": "59132"
      },
      "questionnaire": {
        "reference": "urn:uuid:497887f2-3ab1-46cf-b26d-b9ad6c432395"
      },
      "status": "completed",
      "subject": {
        "reference": "urn:uuid:faeba344-03fb-4bb6-b9d6-55525057a9e0"
      },
      "context": {
        "reference": "urn:uuid:d5ae7d0f-c30d-4060-a7fb-390873858e23"
      },
      "authored": "2021-04-06T11:33:34+00:00",
      "item": [ {
        "linkId": "Tx221039",
        "text": "PATIENT_AGEGROUP",
        "answer": [ {
          "valueString": "==\"CHILD\""
        } ]
      } ]
    }
  }, {
    "fullUrl": "urn:uuid:497887f2-3ab1-46cf-b26d-b9ad6c432395",
    "resource": {
      "resourceType": "Questionnaire",
      "id": "497887f2-3ab1-46cf-b26d-b9ad6c432395",
      "identifier": [ {
        "value": "59132"
      } ],
      "version": "2021-04-06T11:33:34.963Z",
      "status": "active",
      "experimental": false,
      "date": "2021-04-06T11:33:34+00:00",
      "publisher": "User ID: 'MCDONALDD' User name: 'Denzle McDonald' User skill set: 'T3'",
      "lastReviewDate": "2021-04-06",
      "subjectType": [ "Patient" ],
      "item": [ {
        "linkId": "59132",
        "prefix": "0",
        "text": "PATIENT_AGEGROUP",
        "type": "choice",
        "required": true,
        "repeats": false,
        "option": [ {
          "valueString": "==\"ADULT\", Selected: false"
        }, {
          "valueString": "==\"CHILD\", Selected: true"
        }, {
          "valueString": "==\"TODDLER\", Selected: false"
        }, {
          "valueString": "==\"INFANT\", Selected: false"
        }, {
          "valueString": "==\"NEONATE\", Selected: false"
        }, {
          "valueString": "*, Selected: false"
        } ]
      } ]
    }
  }, {
    "fullUrl": "urn:uuid:58f703f1-1f69-4324-a719-8fe132c01242",
    "resource": {
      "resourceType": "QuestionnaireResponse",
      "id": "58f703f1-1f69-4324-a719-8fe132c01242",
      "identifier": {
        "value": "59132"
      },
      "questionnaire": {
        "reference": "urn:uuid:64632000-894d-4bad-bfe0-ef3430ec9c92"
      },
      "status": "completed",
      "subject": {
        "reference": "urn:uuid:faeba344-03fb-4bb6-b9d6-55525057a9e0"
      },
      "context": {
        "reference": "urn:uuid:d5ae7d0f-c30d-4060-a7fb-390873858e23"
      },
      "authored": "2021-04-06T11:33:34+00:00",
      "item": [ {
        "linkId": "Tx220156",
        "text": "How bad is the pain?",
        "answer": [ {
          "valueString": "bad enough to interfere with normal activity"
        } ]
      } ]
    }
  }, {
    "fullUrl": "urn:uuid:64632000-894d-4bad-bfe0-ef3430ec9c92",
    "resource": {
      "resourceType": "Questionnaire",
      "id": "64632000-894d-4bad-bfe0-ef3430ec9c92",
      "identifier": [ {
        "value": "59132"
      } ],
      "version": "2021-04-06T11:33:34.963Z",
      "status": "active",
      "experimental": false,
      "date": "2021-04-06T11:33:34+00:00",
      "publisher": "User ID: 'MCDONALDD' User name: 'Denzle McDonald' User skill set: 'T3'",
      "lastReviewDate": "2021-04-06",
      "subjectType": [ "Patient" ],
      "item": [ {
        "linkId": "59132",
        "prefix": "6500",
        "text": "How bad is the pain?",
        "type": "choice",
        "required": true,
        "repeats": false,
        "option": [ {
          "valueString": "so bad that doing anything is impossible, Selected: false"
        }, {
          "valueString": "bad enough to interfere with normal activity, Selected: true"
        }, {
          "valueString": "neither of the above, Selected: false"
        } ]
      } ]
    }
  }, {
    "fullUrl": "urn:uuid:77006727-d338-471a-aa5a-a9839fe299c0",
    "resource": {
      "resourceType": "QuestionnaireResponse",
      "id": "77006727-d338-471a-aa5a-a9839fe299c0",
      "identifier": {
        "value": "59132"
      },
      "questionnaire": {
        "reference": "urn:uuid:bec40309-bf7e-4d2f-bda9-9e09cece7758"
      },
      "status": "completed",
      "subject": {
        "reference": "urn:uuid:faeba344-03fb-4bb6-b9d6-55525057a9e0"
      },
      "context": {
        "reference": "urn:uuid:d5ae7d0f-c30d-4060-a7fb-390873858e23"
      },
      "authored": "2021-04-06T11:33:34+00:00",
      "item": [ {
        "linkId": "Tx224664",
        "text": "STRING:ModeratePain",
        "answer": [ {
          "valueString": "\"present\""
        } ]
      } ]
    }
  }, {
    "fullUrl": "urn:uuid:bec40309-bf7e-4d2f-bda9-9e09cece7758",
    "resource": {
      "resourceType": "Questionnaire",
      "id": "bec40309-bf7e-4d2f-bda9-9e09cece7758",
      "identifier": [ {
        "value": "59132"
      } ],
      "version": "2021-04-06T11:33:34.963Z",
      "status": "active",
      "experimental": false,
      "date": "2021-04-06T11:33:34+00:00",
      "publisher": "User ID: 'MCDONALDD' User name: 'Denzle McDonald' User skill set: 'T3'",
      "lastReviewDate": "2021-04-06",
      "subjectType": [ "Patient" ],
      "item": [ {
        "linkId": "59132",
        "prefix": "6600",
        "text": "STRING:ModeratePain",
        "type": "choice",
        "required": true,
        "repeats": false,
        "option": [ {
          "valueString": "\"present\", Selected: true"
        } ]
      } ]
    }
  }, {
    "fullUrl": "urn:uuid:a8122413-7368-4c70-88dd-5f6e2ec36e2a",
    "resource": {
      "resourceType": "QuestionnaireResponse",
      "id": "a8122413-7368-4c70-88dd-5f6e2ec36e2a",
      "identifier": {
        "value": "59132"
      },
      "questionnaire": {
        "reference": "urn:uuid:8ab60353-a7b0-4ca1-8a14-a5a804e0da79"
      },
      "status": "completed",
      "subject": {
        "reference": "urn:uuid:faeba344-03fb-4bb6-b9d6-55525057a9e0"
      },
      "context": {
        "reference": "urn:uuid:d5ae7d0f-c30d-4060-a7fb-390873858e23"
      },
      "authored": "2021-04-06T11:33:34+00:00",
      "item": [ {
        "linkId": "Tx170003",
        "text": "PATIENT_PARTY",
        "answer": [ {
          "valueString": "==1"
        } ]
      } ]
    }
  }, {
    "fullUrl": "urn:uuid:8ab60353-a7b0-4ca1-8a14-a5a804e0da79",
    "resource": {
      "resourceType": "Questionnaire",
      "id": "8ab60353-a7b0-4ca1-8a14-a5a804e0da79",
      "identifier": [ {
        "value": "59132"
      } ],
      "version": "2021-04-06T11:33:34.963Z",
      "status": "active",
      "experimental": false,
      "date": "2021-04-06T11:33:34+00:00",
      "publisher": "User ID: 'MCDONALDD' User name: 'Denzle McDonald' User skill set: 'T3'",
      "lastReviewDate": "2021-04-06",
      "subjectType": [ "Patient" ],
      "item": [ {
        "linkId": "59132",
        "prefix": "6800",
        "text": "PATIENT_PARTY",
        "type": "choice",
        "required": true,
        "repeats": false,
        "option": [ {
          "valueString": "==1, Selected: true"
        }, {
          "valueString": "==3, Selected: false"
        }, {
          "valueString": "*, Selected: false"
        } ]
      } ]
    }
  }, {
    "fullUrl": "urn:uuid:897d95f4-5c69-4f01-8395-b9babcc626f3",
    "resource": {
      "resourceType": "QuestionnaireResponse",
      "id": "897d95f4-5c69-4f01-8395-b9babcc626f3",
      "identifier": {
        "value": "59132"
      },
      "questionnaire": {
        "reference": "urn:uuid:3ab67115-2e6d-447e-9bc5-b660946b0d31"
      },
      "status": "completed",
      "subject": {
        "reference": "urn:uuid:faeba344-03fb-4bb6-b9d6-55525057a9e0"
      },
      "context": {
        "reference": "urn:uuid:d5ae7d0f-c30d-4060-a7fb-390873858e23"
      },
      "authored": "2021-04-06T11:33:34+00:00",
      "item": [ {
        "linkId": "Tx224190",
        "text": "Are you so ill that you have stopped doing ALL of your usual activities?",
        "answer": [ {
          "valueString": "no - well enough to do MOST or all activities"
        } ]
      } ]
    }
  }, {
    "fullUrl": "urn:uuid:3ab67115-2e6d-447e-9bc5-b660946b0d31",
    "resource": {
      "resourceType": "Questionnaire",
      "id": "3ab67115-2e6d-447e-9bc5-b660946b0d31",
      "identifier": [ {
        "value": "59132"
      } ],
      "version": "2021-04-06T11:33:34.963Z",
      "status": "active",
      "experimental": false,
      "date": "2021-04-06T11:33:34+00:00",
      "publisher": "User ID: 'MCDONALDD' User name: 'Denzle McDonald' User skill set: 'T3'",
      "lastReviewDate": "2021-04-06",
      "subjectType": [ "Patient" ],
      "item": [ {
        "linkId": "59132",
        "prefix": "6900",
        "text": "Are you so ill that you have stopped doing ALL of your usual activities?",
        "type": "choice",
        "required": true,
        "repeats": false,
        "option": [ {
          "valueString": "yes - so ill they have stopped doing ALL normal activities, Selected: false"
        }, {
          "valueString": "no - unwell but able to do SOME normal activities, Selected: false"
        }, {
          "valueString": "no - well enough to do MOST or all activities, Selected: true"
        } ]
      } ]
    }
  }, {
    "fullUrl": "urn:uuid:14805c34-1a94-4190-9d1d-3be7960432c9",
    "resource": {
      "resourceType": "QuestionnaireResponse",
      "id": "14805c34-1a94-4190-9d1d-3be7960432c9",
      "identifier": {
        "value": "59132"
      },
      "questionnaire": {
        "reference": "urn:uuid:628083bb-2053-4576-ba9a-7099de347f11"
      },
      "status": "completed",
      "subject": {
        "reference": "urn:uuid:faeba344-03fb-4bb6-b9d6-55525057a9e0"
      },
      "context": {
        "reference": "urn:uuid:d5ae7d0f-c30d-4060-a7fb-390873858e23"
      },
      "authored": "2021-04-06T11:33:34+00:00",
      "item": [ {
        "linkId": "Tx224916",
        "text": "FlankPainPW",
        "answer": [ {
          "valueString": "*"
        } ]
      } ]
    }
  }, {
    "fullUrl": "urn:uuid:628083bb-2053-4576-ba9a-7099de347f11",
    "resource": {
      "resourceType": "Questionnaire",
      "id": "628083bb-2053-4576-ba9a-7099de347f11",
      "identifier": [ {
        "value": "59132"
      } ],
      "version": "2021-04-06T11:33:34.963Z",
      "status": "active",
      "experimental": false,
      "date": "2021-04-06T11:33:34+00:00",
      "publisher": "User ID: 'MCDONALDD' User name: 'Denzle McDonald' User skill set: 'T3'",
      "lastReviewDate": "2021-04-06",
      "subjectType": [ "Patient" ],
      "item": [ {
        "linkId": "59132",
        "prefix": "26500",
        "text": "FlankPainPW",
        "type": "choice",
        "required": true,
        "repeats": false,
        "option": [ {
          "valueString": "==\"present\", Selected: false"
        }, {
          "valueString": "*, Selected: true"
        } ]
      } ]
    }
  }, {
    "fullUrl": "urn:uuid:91533467-86bb-4db3-ac36-08aca6df2ef9",
    "resource": {
      "resourceType": "QuestionnaireResponse",
      "id": "91533467-86bb-4db3-ac36-08aca6df2ef9",
      "identifier": {
        "value": "59132"
      },
      "questionnaire": {
        "reference": "urn:uuid:70ef0e93-7531-46ff-845b-98af7ace3057"
      },
      "status": "completed",
      "subject": {
        "reference": "urn:uuid:faeba344-03fb-4bb6-b9d6-55525057a9e0"
      },
      "context": {
        "reference": "urn:uuid:d5ae7d0f-c30d-4060-a7fb-390873858e23"
      },
      "authored": "2021-04-06T11:33:34+00:00",
      "item": [ {
        "linkId": "Tx222766",
        "text": "PregnancyOver20Weeks",
        "answer": [ {
          "valueString": "*"
        } ]
      } ]
    }
  }, {
    "fullUrl": "urn:uuid:70ef0e93-7531-46ff-845b-98af7ace3057",
    "resource": {
      "resourceType": "Questionnaire",
      "id": "70ef0e93-7531-46ff-845b-98af7ace3057",
      "identifier": [ {
        "value": "59132"
      } ],
      "version": "2021-04-06T11:33:34.963Z",
      "status": "active",
      "experimental": false,
      "date": "2021-04-06T11:33:34+00:00",
      "publisher": "User ID: 'MCDONALDD' User name: 'Denzle McDonald' User skill set: 'T3'",
      "lastReviewDate": "2021-04-06",
      "subjectType": [ "Patient" ],
      "item": [ {
        "linkId": "59132",
        "prefix": "16100",
        "text": "PregnancyOver20Weeks",
        "type": "choice",
        "required": true,
        "repeats": false,
        "option": [ {
          "valueString": "==\"present\", Selected: false"
        }, {
          "valueString": "*, Selected: true"
        } ]
      } ]
    }
  }, {
    "fullUrl": "urn:uuid:94066817-0dba-4c3e-ba9b-bf3b06c74823",
    "resource": {
      "resourceType": "QuestionnaireResponse",
      "id": "94066817-0dba-4c3e-ba9b-bf3b06c74823",
      "identifier": {
        "value": "59132"
      },
      "questionnaire": {
        "reference": "urn:uuid:090ae49c-f22b-4fa0-98bd-71cf155dead2"
      },
      "status": "completed",
      "subject": {
        "reference": "urn:uuid:faeba344-03fb-4bb6-b9d6-55525057a9e0"
      },
      "context": {
        "reference": "urn:uuid:d5ae7d0f-c30d-4060-a7fb-390873858e23"
      },
      "authored": "2021-04-06T11:33:34+00:00",
      "item": [ {
        "linkId": "Tx225151",
        "text": "RectalBleedingwithAbdominalPainPW",
        "answer": [ {
          "valueString": "*"
        } ]
      } ]
    }
  }, {
    "fullUrl": "urn:uuid:090ae49c-f22b-4fa0-98bd-71cf155dead2",
    "resource": {
      "resourceType": "Questionnaire",
      "id": "090ae49c-f22b-4fa0-98bd-71cf155dead2",
      "identifier": [ {
        "value": "59132"
      } ],
      "version": "2021-04-06T11:33:34.963Z",
      "status": "active",
      "experimental": false,
      "date": "2021-04-06T11:33:34+00:00",
      "publisher": "User ID: 'MCDONALDD' User name: 'Denzle McDonald' User skill set: 'T3'",
      "lastReviewDate": "2021-04-06",
      "subjectType": [ "Patient" ],
      "item": [ {
        "linkId": "59132",
        "prefix": "26200",
        "text": "RectalBleedingwithAbdominalPainPW",
        "type": "choice",
        "required": true,
        "repeats": false,
        "option": [ {
          "valueString": "==\"present\", Selected: false"
        }, {
          "valueString": "*, Selected: true"
        } ]
      } ]
    }
  }, {
    "fullUrl": "urn:uuid:c1d4157b-2121-49e9-82b4-fa15599be5bf",
    "resource": {
      "resourceType": "QuestionnaireResponse",
      "id": "c1d4157b-2121-49e9-82b4-fa15599be5bf",
      "identifier": {
        "value": "59132"
      },
      "questionnaire": {
        "reference": "urn:uuid:10e30b8f-a4b8-4120-8e20-e5a28a226e04"
      },
      "status": "completed",
      "subject": {
        "reference": "urn:uuid:faeba344-03fb-4bb6-b9d6-55525057a9e0"
      },
      "context": {
        "reference": "urn:uuid:d5ae7d0f-c30d-4060-a7fb-390873858e23"
      },
      "authored": "2021-04-06T11:33:34+00:00",
      "item": [ {
        "linkId": "Tx221119",
        "text": "SeverelyIll",
        "answer": [ {
          "valueString": "*"
        } ]
      } ]
    }
  }, {
    "fullUrl": "urn:uuid:10e30b8f-a4b8-4120-8e20-e5a28a226e04",
    "resource": {
      "resourceType": "Questionnaire",
      "id": "10e30b8f-a4b8-4120-8e20-e5a28a226e04",
      "identifier": [ {
        "value": "59132"
      } ],
      "version": "2021-04-06T11:33:34.963Z",
      "status": "active",
      "experimental": false,
      "date": "2021-04-06T11:33:34+00:00",
      "publisher": "User ID: 'MCDONALDD' User name: 'Denzle McDonald' User skill set: 'T3'",
      "lastReviewDate": "2021-04-06",
      "subjectType": [ "Patient" ],
      "item": [ {
        "linkId": "59132",
        "prefix": "7500",
        "text": "SeverelyIll",
        "type": "choice",
        "required": true,
        "repeats": false,
        "option": [ {
          "valueString": "==\"present\", Selected: false"
        }, {
          "valueString": "*, Selected: true"
        } ]
      } ]
    }
  }, {
    "fullUrl": "urn:uuid:4177efa7-0df0-4a51-ae67-775240c6df0d",
    "resource": {
      "resourceType": "QuestionnaireResponse",
      "id": "4177efa7-0df0-4a51-ae67-775240c6df0d",
      "identifier": {
        "value": "59132"
      },
      "questionnaire": {
        "reference": "urn:uuid:44969689-0941-4a40-806e-279772b8315f"
      },
      "status": "completed",
      "subject": {
        "reference": "urn:uuid:faeba344-03fb-4bb6-b9d6-55525057a9e0"
      },
      "context": {
        "reference": "urn:uuid:d5ae7d0f-c30d-4060-a7fb-390873858e23"
      },
      "authored": "2021-04-06T11:33:34+00:00",
      "item": [ {
        "linkId": "Tx224934",
        "text": "GroinPainOrSwellingPWAbdominalPainPW",
        "answer": [ {
          "valueString": "*"
        } ]
      } ]
    }
  }, {
    "fullUrl": "urn:uuid:44969689-0941-4a40-806e-279772b8315f",
    "resource": {
      "resourceType": "Questionnaire",
      "id": "44969689-0941-4a40-806e-279772b8315f",
      "identifier": [ {
        "value": "59132"
      } ],
      "version": "2021-04-06T11:33:34.963Z",
      "status": "active",
      "experimental": false,
      "date": "2021-04-06T11:33:34+00:00",
      "publisher": "User ID: 'MCDONALDD' User name: 'Denzle McDonald' User skill set: 'T3'",
      "lastReviewDate": "2021-04-06",
      "subjectType": [ "Patient" ],
      "item": [ {
        "linkId": "59132",
        "prefix": "23300",
        "text": "GroinPainOrSwellingPWAbdominalPainPW",
        "type": "choice",
        "required": true,
        "repeats": false,
        "option": [ {
          "valueString": "==\"present\", Selected: false"
        }, {
          "valueString": "*, Selected: true"
        } ]
      } ]
    }
  }, {
    "fullUrl": "urn:uuid:49a3b525-1dad-4c91-b560-0799a14e409f",
    "resource": {
      "resourceType": "QuestionnaireResponse",
      "id": "49a3b525-1dad-4c91-b560-0799a14e409f",
      "identifier": {
        "value": "59132"
      },
      "questionnaire": {
        "reference": "urn:uuid:32c238c5-1df6-4724-ba05-4e3eb025e04d"
      },
      "status": "completed",
      "subject": {
        "reference": "urn:uuid:faeba344-03fb-4bb6-b9d6-55525057a9e0"
      },
      "context": {
        "reference": "urn:uuid:d5ae7d0f-c30d-4060-a7fb-390873858e23"
      },
      "authored": "2021-04-06T11:33:34+00:00",
      "item": [ {
        "linkId": "Tx224906",
        "text": "AbdominalPainPW",
        "answer": [ {
          "valueString": "*"
        } ]
      } ]
    }
  }, {
    "fullUrl": "urn:uuid:32c238c5-1df6-4724-ba05-4e3eb025e04d",
    "resource": {
      "resourceType": "Questionnaire",
      "id": "32c238c5-1df6-4724-ba05-4e3eb025e04d",
      "identifier": [ {
        "value": "59132"
      } ],
      "version": "2021-04-06T11:33:34.963Z",
      "status": "active",
      "experimental": false,
      "date": "2021-04-06T11:33:34+00:00",
      "publisher": "User ID: 'MCDONALDD' User name: 'Denzle McDonald' User skill set: 'T3'",
      "lastReviewDate": "2021-04-06",
      "subjectType": [ "Patient" ],
      "item": [ {
        "linkId": "59132",
        "prefix": "23400",
        "text": "AbdominalPainPW",
        "type": "choice",
        "required": true,
        "repeats": false,
        "option": [ {
          "valueString": "==\"present\", Selected: false"
        }, {
          "valueString": "*, Selected: true"
        } ]
      } ]
    }
  }, {
    "fullUrl": "urn:uuid:8e113e48-bb2d-418e-8395-619b5e71bddf",
    "resource": {
      "resourceType": "QuestionnaireResponse",
      "id": "8e113e48-bb2d-418e-8395-619b5e71bddf",
      "identifier": {
        "value": "59132"
      },
      "questionnaire": {
        "reference": "urn:uuid:09f26c0c-06a6-4b53-92fa-fa441c452181"
      },
      "status": "completed",
      "subject": {
        "reference": "urn:uuid:faeba344-03fb-4bb6-b9d6-55525057a9e0"
      },
      "context": {
        "reference": "urn:uuid:d5ae7d0f-c30d-4060-a7fb-390873858e23"
      },
      "authored": "2021-04-06T11:33:34+00:00",
      "item": [ {
        "linkId": "Tx224928",
        "text": "VomitingAnd/OrNauseaWithAbdominalPainPW",
        "answer": [ {
          "valueString": "==\"present\""
        } ]
      } ]
    }
  }, {
    "fullUrl": "urn:uuid:09f26c0c-06a6-4b53-92fa-fa441c452181",
    "resource": {
      "resourceType": "Questionnaire",
      "id": "09f26c0c-06a6-4b53-92fa-fa441c452181",
      "identifier": [ {
        "value": "59132"
      } ],
      "version": "2021-04-06T11:33:34.963Z",
      "status": "active",
      "experimental": false,
      "date": "2021-04-06T11:33:34+00:00",
      "publisher": "User ID: 'MCDONALDD' User name: 'Denzle McDonald' User skill set: 'T3'",
      "lastReviewDate": "2021-04-06",
      "subjectType": [ "Patient" ],
      "item": [ {
        "linkId": "59132",
        "prefix": "23500",
        "text": "VomitingAnd/OrNauseaWithAbdominalPainPW",
        "type": "choice",
        "required": true,
        "repeats": false,
        "option": [ {
          "valueString": "==\"present\", Selected: true"
        }, {
          "valueString": "*, Selected: false"
        } ]
      } ]
    }
  }, {
    "fullUrl": "urn:uuid:53922d6d-6908-492f-bcdc-b19405f751e2",
    "resource": {
      "resourceType": "QuestionnaireResponse",
      "id": "53922d6d-6908-492f-bcdc-b19405f751e2",
      "identifier": {
        "value": "59132"
      },
      "questionnaire": {
        "reference": "urn:uuid:075e3163-fc2d-45c3-bb6f-699388698065"
      },
      "status": "completed",
      "subject": {
        "reference": "urn:uuid:faeba344-03fb-4bb6-b9d6-55525057a9e0"
      },
      "context": {
        "reference": "urn:uuid:d5ae7d0f-c30d-4060-a7fb-390873858e23"
      },
      "authored": "2021-04-06T11:33:34+00:00",
      "item": [ {
        "linkId": "Tx221017",
        "text": "PATIENT_GENDER",
        "answer": [ {
          "valueString": "==\"F\""
        } ]
      } ]
    }
  }, {
    "fullUrl": "urn:uuid:075e3163-fc2d-45c3-bb6f-699388698065",
    "resource": {
      "resourceType": "Questionnaire",
      "id": "075e3163-fc2d-45c3-bb6f-699388698065",
      "identifier": [ {
        "value": "59132"
      } ],
      "version": "2021-04-06T11:33:34.963Z",
      "status": "active",
      "experimental": false,
      "date": "2021-04-06T11:33:34+00:00",
      "publisher": "User ID: 'MCDONALDD' User name: 'Denzle McDonald' User skill set: 'T3'",
      "lastReviewDate": "2021-04-06",
      "subjectType": [ "Patient" ],
      "item": [ {
        "linkId": "59132",
        "prefix": "9000",
        "text": "PATIENT_GENDER",
        "type": "choice",
        "required": true,
        "repeats": false,
        "option": [ {
          "valueString": "==\"M\", Selected: false"
        }, {
          "valueString": "==\"F\", Selected: true"
        }, {
          "valueString": "==\"U\", Selected: false"
        }, {
          "valueString": "*, Selected: false"
        } ]
      } ]
    }
  }, {
    "fullUrl": "urn:uuid:fc75407c-908b-4f07-93e7-98f74d2cb88f",
    "resource": {
      "resourceType": "QuestionnaireResponse",
      "id": "fc75407c-908b-4f07-93e7-98f74d2cb88f",
      "identifier": {
        "value": "59132"
      },
      "questionnaire": {
        "reference": "urn:uuid:87f37279-2e73-41f3-810c-6299a32c8d27"
      },
      "status": "completed",
      "subject": {
        "reference": "urn:uuid:faeba344-03fb-4bb6-b9d6-55525057a9e0"
      },
      "context": {
        "reference": "urn:uuid:d5ae7d0f-c30d-4060-a7fb-390873858e23"
      },
      "authored": "2021-04-06T11:33:34+00:00"
    }
  }, {
    "fullUrl": "urn:uuid:87f37279-2e73-41f3-810c-6299a32c8d27",
    "resource": {
      "resourceType": "Questionnaire",
      "id": "87f37279-2e73-41f3-810c-6299a32c8d27",
      "identifier": [ {
        "value": "59132"
      } ],
      "version": "2021-04-06T11:33:34.963Z",
      "status": "active",
      "experimental": false,
      "date": "2021-04-06T11:33:34+00:00",
      "publisher": "User ID: 'MCDONALDD' User name: 'Denzle McDonald' User skill set: 'T3'",
      "lastReviewDate": "2021-04-06",
      "subjectType": [ "Patient" ]
    }
  }, {
    "fullUrl": "urn:uuid:448ef271-c017-440e-9c32-520268c54c4c",
    "resource": {
      "resourceType": "QuestionnaireResponse",
      "id": "448ef271-c017-440e-9c32-520268c54c4c",
      "identifier": {
        "value": "59132"
      },
      "questionnaire": {
        "reference": "urn:uuid:a87d4c37-8169-4142-9bae-0fdab452353a"
      },
      "status": "completed",
      "subject": {
        "reference": "urn:uuid:faeba344-03fb-4bb6-b9d6-55525057a9e0"
      },
      "context": {
        "reference": "urn:uuid:d5ae7d0f-c30d-4060-a7fb-390873858e23"
      },
      "authored": "2021-04-06T11:33:34+00:00",
      "item": [ {
        "linkId": "Tx221114",
        "text": "Pregnancy",
        "answer": [ {
          "valueString": "*"
        } ]
      } ]
    }
  }, {
    "fullUrl": "urn:uuid:a87d4c37-8169-4142-9bae-0fdab452353a",
    "resource": {
      "resourceType": "Questionnaire",
      "id": "a87d4c37-8169-4142-9bae-0fdab452353a",
      "identifier": [ {
        "value": "59132"
      } ],
      "version": "2021-04-06T11:33:34.963Z",
      "status": "active",
      "experimental": false,
      "date": "2021-04-06T11:33:34+00:00",
      "publisher": "User ID: 'MCDONALDD' User name: 'Denzle McDonald' User skill set: 'T3'",
      "lastReviewDate": "2021-04-06",
      "subjectType": [ "Patient" ],
      "item": [ {
        "linkId": "59132",
        "prefix": "64500",
        "text": "Pregnancy",
        "type": "choice",
        "required": true,
        "repeats": false,
        "option": [ {
          "valueString": "==\"present\", Selected: false"
        }, {
          "valueString": "*, Selected: true"
        } ]
      } ]
    }
  }, {
    "fullUrl": "urn:uuid:cc12b483-99a1-4be8-8558-17986bd834ba",
    "resource": {
      "resourceType": "QuestionnaireResponse",
      "id": "cc12b483-99a1-4be8-8558-17986bd834ba",
      "identifier": {
        "value": "59132"
      },
      "questionnaire": {
        "reference": "urn:uuid:524ff764-809e-44cb-9c2c-2df5e5ec6b9c"
      },
      "status": "completed",
      "subject": {
        "reference": "urn:uuid:faeba344-03fb-4bb6-b9d6-55525057a9e0"
      },
      "context": {
        "reference": "urn:uuid:d5ae7d0f-c30d-4060-a7fb-390873858e23"
      },
      "authored": "2021-04-06T11:33:34+00:00",
      "item": [ {
        "linkId": "Tx221338",
        "text": ">=11yearsConfirmed",
        "answer": [ {
          "valueString": "*"
        } ]
      } ]
    }
  }, {
    "fullUrl": "urn:uuid:524ff764-809e-44cb-9c2c-2df5e5ec6b9c",
    "resource": {
      "resourceType": "Questionnaire",
      "id": "524ff764-809e-44cb-9c2c-2df5e5ec6b9c",
      "identifier": [ {
        "value": "59132"
      } ],
      "version": "2021-04-06T11:33:34.963Z",
      "status": "active",
      "experimental": false,
      "date": "2021-04-06T11:33:34+00:00",
      "publisher": "User ID: 'MCDONALDD' User name: 'Denzle McDonald' User skill set: 'T3'",
      "lastReviewDate": "2021-04-06",
      "subjectType": [ "Patient" ],
      "item": [ {
        "linkId": "59132",
        "prefix": "65600",
        "text": ">=11yearsConfirmed",
        "type": "choice",
        "required": true,
        "repeats": false,
        "option": [ {
          "valueString": "==\"present\", Selected: false"
        }, {
          "valueString": "*, Selected: true"
        } ]
      } ]
    }
  }, {
    "fullUrl": "urn:uuid:81e96f2c-28de-4835-9bb2-8779aeda3b76",
    "resource": {
      "resourceType": "QuestionnaireResponse",
      "id": "81e96f2c-28de-4835-9bb2-8779aeda3b76",
      "identifier": {
        "value": "59132"
      },
      "questionnaire": {
        "reference": "urn:uuid:2b34223a-3a38-4e48-be00-83a5eb800daf"
      },
      "status": "completed",
      "subject": {
        "reference": "urn:uuid:faeba344-03fb-4bb6-b9d6-55525057a9e0"
      },
      "context": {
        "reference": "urn:uuid:d5ae7d0f-c30d-4060-a7fb-390873858e23"
      },
      "authored": "2021-04-06T11:33:34+00:00",
      "item": [ {
        "linkId": "Tx221119",
        "text": "SeverelyIll",
        "answer": [ {
          "valueString": "*"
        } ]
      } ]
    }
  }, {
    "fullUrl": "urn:uuid:2b34223a-3a38-4e48-be00-83a5eb800daf",
    "resource": {
      "resourceType": "Questionnaire",
      "id": "2b34223a-3a38-4e48-be00-83a5eb800daf",
      "identifier": [ {
        "value": "59132"
      } ],
      "version": "2021-04-06T11:33:34.963Z",
      "status": "active",
      "experimental": false,
      "date": "2021-04-06T11:33:34+00:00",
      "publisher": "User ID: 'MCDONALDD' User name: 'Denzle McDonald' User skill set: 'T3'",
      "lastReviewDate": "2021-04-06",
      "subjectType": [ "Patient" ],
      "item": [ {
        "linkId": "59132",
        "prefix": "46200",
        "text": "SeverelyIll",
        "type": "choice",
        "required": true,
        "repeats": false,
        "option": [ {
          "valueString": "==\"present\", Selected: false"
        }, {
          "valueString": "*, Selected: true"
        } ]
      } ]
    }
  }, {
    "fullUrl": "urn:uuid:143fe1ee-ab1c-45ae-9291-b7bde5c79e1a",
    "resource": {
      "resourceType": "QuestionnaireResponse",
      "id": "143fe1ee-ab1c-45ae-9291-b7bde5c79e1a",
      "identifier": {
        "value": "59132"
      },
      "questionnaire": {
        "reference": "urn:uuid:94cdd6b8-72ee-4d22-82c9-576d0f021222"
      },
      "status": "completed",
      "subject": {
        "reference": "urn:uuid:faeba344-03fb-4bb6-b9d6-55525057a9e0"
      },
      "context": {
        "reference": "urn:uuid:d5ae7d0f-c30d-4060-a7fb-390873858e23"
      },
      "authored": "2021-04-06T11:33:34+00:00",
      "item": [ {
        "linkId": "Tx220947",
        "text": "SeverePain",
        "answer": [ {
          "valueString": "*"
        } ]
      } ]
    }
  }, {
    "fullUrl": "urn:uuid:94cdd6b8-72ee-4d22-82c9-576d0f021222",
    "resource": {
      "resourceType": "Questionnaire",
      "id": "94cdd6b8-72ee-4d22-82c9-576d0f021222",
      "identifier": [ {
        "value": "59132"
      } ],
      "version": "2021-04-06T11:33:34.963Z",
      "status": "active",
      "experimental": false,
      "date": "2021-04-06T11:33:34+00:00",
      "publisher": "User ID: 'MCDONALDD' User name: 'Denzle McDonald' User skill set: 'T3'",
      "lastReviewDate": "2021-04-06",
      "subjectType": [ "Patient" ],
      "item": [ {
        "linkId": "59132",
        "prefix": "64600",
        "text": "SeverePain",
        "type": "choice",
        "required": true,
        "repeats": false,
        "option": [ {
          "valueString": "==\"present\", Selected: false"
        }, {
          "valueString": "*, Selected: true"
        } ]
      } ]
    }
  }, {
    "fullUrl": "urn:uuid:2a0ab6eb-cfda-4789-82a6-9ec77eecf687",
    "resource": {
      "resourceType": "QuestionnaireResponse",
      "id": "2a0ab6eb-cfda-4789-82a6-9ec77eecf687",
      "identifier": {
        "value": "59132"
      },
      "questionnaire": {
        "reference": "urn:uuid:165a5ace-ac0a-4df5-a670-a01a68e08024"
      },
      "status": "completed",
      "subject": {
        "reference": "urn:uuid:faeba344-03fb-4bb6-b9d6-55525057a9e0"
      },
      "context": {
        "reference": "urn:uuid:d5ae7d0f-c30d-4060-a7fb-390873858e23"
      },
      "authored": "2021-04-06T11:33:34+00:00",
      "item": [ {
        "linkId": "Tx220114",
        "text": "Have you taken anything that might be harmful or poisonous?",
        "answer": [ {
          "valueString": "no"
        } ]
      } ]
    }
  }, {
    "fullUrl": "urn:uuid:165a5ace-ac0a-4df5-a670-a01a68e08024",
    "resource": {
      "resourceType": "Questionnaire",
      "id": "165a5ace-ac0a-4df5-a670-a01a68e08024",
      "identifier": [ {
        "value": "59132"
      } ],
      "version": "2021-04-06T11:33:34.963Z",
      "status": "active",
      "experimental": false,
      "date": "2021-04-06T11:33:34+00:00",
      "publisher": "User ID: 'MCDONALDD' User name: 'Denzle McDonald' User skill set: 'T3'",
      "lastReviewDate": "2021-04-06",
      "subjectType": [ "Patient" ],
      "item": [ {
        "linkId": "59132",
        "prefix": "30300",
        "text": "Have you taken anything that might be harmful or poisonous?",
        "type": "choice",
        "required": true,
        "repeats": false,
        "option": [ {
          "valueString": "yes (specify substance if known), Selected: false"
        }, {
          "valueString": "not sure, Selected: false"
        }, {
          "valueString": "no, Selected: true"
        } ]
      } ]
    }
  }, {
    "fullUrl": "urn:uuid:baeba37c-356e-4978-85c2-b8bba43480a3",
    "resource": {
      "resourceType": "QuestionnaireResponse",
      "id": "baeba37c-356e-4978-85c2-b8bba43480a3",
      "identifier": {
        "value": "59132"
      },
      "questionnaire": {
        "reference": "urn:uuid:05fb3a45-a922-488d-a585-c13acbed0215"
      },
      "status": "completed",
      "subject": {
        "reference": "urn:uuid:faeba344-03fb-4bb6-b9d6-55525057a9e0"
      },
      "context": {
        "reference": "urn:uuid:d5ae7d0f-c30d-4060-a7fb-390873858e23"
      },
      "authored": "2021-04-06T11:33:34+00:00",
      "item": [ {
        "linkId": "Tx221176",
        "text": "PregnancyUnder20Weeks",
        "answer": [ {
          "valueString": "*"
        } ]
      } ]
    }
  }, {
    "fullUrl": "urn:uuid:05fb3a45-a922-488d-a585-c13acbed0215",
    "resource": {
      "resourceType": "Questionnaire",
      "id": "05fb3a45-a922-488d-a585-c13acbed0215",
      "identifier": [ {
        "value": "59132"
      } ],
      "version": "2021-04-06T11:33:34.963Z",
      "status": "active",
      "experimental": false,
      "date": "2021-04-06T11:33:34+00:00",
      "publisher": "User ID: 'MCDONALDD' User name: 'Denzle McDonald' User skill set: 'T3'",
      "lastReviewDate": "2021-04-06",
      "subjectType": [ "Patient" ],
      "item": [ {
        "linkId": "59132",
        "prefix": "7700",
        "text": "PregnancyUnder20Weeks",
        "type": "choice",
        "required": true,
        "repeats": false,
        "option": [ {
          "valueString": "==\"present\", Selected: false"
        }, {
          "valueString": "*, Selected: true"
        } ]
      } ]
    }
  }, {
    "fullUrl": "urn:uuid:d86ca660-b623-4cb1-be06-02ac1f29ae68",
    "resource": {
      "resourceType": "QuestionnaireResponse",
      "id": "d86ca660-b623-4cb1-be06-02ac1f29ae68",
      "identifier": {
        "value": "59132"
      },
      "questionnaire": {
        "reference": "urn:uuid:cae1736e-c30a-4522-9a50-07aed5625870"
      },
      "status": "completed",
      "subject": {
        "reference": "urn:uuid:faeba344-03fb-4bb6-b9d6-55525057a9e0"
      },
      "context": {
        "reference": "urn:uuid:d5ae7d0f-c30d-4060-a7fb-390873858e23"
      },
      "authored": "2021-04-06T11:33:34+00:00",
      "item": [ {
        "linkId": "Tx221338",
        "text": ">=11yearsConfirmed",
        "answer": [ {
          "valueString": "*"
        } ]
      } ]
    }
  }, {
    "fullUrl": "urn:uuid:cae1736e-c30a-4522-9a50-07aed5625870",
    "resource": {
      "resourceType": "Questionnaire",
      "id": "cae1736e-c30a-4522-9a50-07aed5625870",
      "identifier": [ {
        "value": "59132"
      } ],
      "version": "2021-04-06T11:33:34.963Z",
      "status": "active",
      "experimental": false,
      "date": "2021-04-06T11:33:34+00:00",
      "publisher": "User ID: 'MCDONALDD' User name: 'Denzle McDonald' User skill set: 'T3'",
      "lastReviewDate": "2021-04-06",
      "subjectType": [ "Patient" ],
      "item": [ {
        "linkId": "59132",
        "prefix": "8200",
        "text": ">=11yearsConfirmed",
        "type": "choice",
        "required": true,
        "repeats": false,
        "option": [ {
          "valueString": "==\"present\", Selected: false"
        }, {
          "valueString": "*, Selected: true"
        } ]
      } ]
    }
  }, {
    "fullUrl": "urn:uuid:cb929781-70da-4dd3-b6f6-36ad134f588b",
    "resource": {
      "resourceType": "QuestionnaireResponse",
      "id": "cb929781-70da-4dd3-b6f6-36ad134f588b",
      "identifier": {
        "value": "59132"
      },
      "questionnaire": {
        "reference": "urn:uuid:bd90c74d-0ea1-445f-ad5a-1872dbc12441"
      },
      "status": "completed",
      "subject": {
        "reference": "urn:uuid:faeba344-03fb-4bb6-b9d6-55525057a9e0"
      },
      "context": {
        "reference": "urn:uuid:d5ae7d0f-c30d-4060-a7fb-390873858e23"
      },
      "authored": "2021-04-06T11:33:34+00:00",
      "item": [ {
        "linkId": "Tx1033",
        "text": "Have you passed a bowel motion that looks like either of the following?",
        "answer": [ {
          "valueString": "no"
        } ]
      } ]
    }
  }, {
    "fullUrl": "urn:uuid:bd90c74d-0ea1-445f-ad5a-1872dbc12441",
    "resource": {
      "resourceType": "Questionnaire",
      "id": "bd90c74d-0ea1-445f-ad5a-1872dbc12441",
      "identifier": [ {
        "value": "59132"
      } ],
      "version": "2021-04-06T11:33:34.963Z",
      "status": "active",
      "experimental": false,
      "date": "2021-04-06T11:33:34+00:00",
      "publisher": "User ID: 'MCDONALDD' User name: 'Denzle McDonald' User skill set: 'T3'",
      "lastReviewDate": "2021-04-06",
      "subjectType": [ "Patient" ],
      "item": [ {
        "linkId": "59132",
        "prefix": "65200",
        "text": "Have you passed a bowel motion that looks like either of the following?",
        "type": "choice",
        "required": true,
        "repeats": false,
        "option": [ {
          "valueString": "black and tarry, Selected: false"
        }, {
          "valueString": "red or maroon, Selected: false"
        }, {
          "valueString": "not sure, Selected: false"
        }, {
          "valueString": "no, Selected: true"
        } ]
      } ]
    }
  }, {
    "fullUrl": "urn:uuid:f820e25b-3bfc-4f44-86bb-a40bcb3f5d06",
    "resource": {
      "resourceType": "QuestionnaireResponse",
      "id": "f820e25b-3bfc-4f44-86bb-a40bcb3f5d06",
      "identifier": {
        "value": "59132"
      },
      "questionnaire": {
        "reference": "urn:uuid:7aca8bca-25ae-460f-bf7e-50dde39ac20d"
      },
      "status": "completed",
      "subject": {
        "reference": "urn:uuid:faeba344-03fb-4bb6-b9d6-55525057a9e0"
      },
      "context": {
        "reference": "urn:uuid:d5ae7d0f-c30d-4060-a7fb-390873858e23"
      },
      "authored": "2021-04-06T11:33:34+00:00",
      "item": [ {
        "linkId": "Tx223274",
        "text": "VHFSymptom",
        "answer": [ {
          "valueString": "*"
        } ]
      } ]
    }
  }, {
    "fullUrl": "urn:uuid:7aca8bca-25ae-460f-bf7e-50dde39ac20d",
    "resource": {
      "resourceType": "Questionnaire",
      "id": "7aca8bca-25ae-460f-bf7e-50dde39ac20d",
      "identifier": [ {
        "value": "59132"
      } ],
      "version": "2021-04-06T11:33:34.963Z",
      "status": "active",
      "experimental": false,
      "date": "2021-04-06T11:33:34+00:00",
      "publisher": "User ID: 'MCDONALDD' User name: 'Denzle McDonald' User skill set: 'T3'",
      "lastReviewDate": "2021-04-06",
      "subjectType": [ "Patient" ],
      "item": [ {
        "linkId": "59132",
        "prefix": "34000",
        "text": "VHFSymptom",
        "type": "choice",
        "required": true,
        "repeats": false,
        "option": [ {
          "valueString": "==\"present\", Selected: false"
        }, {
          "valueString": "*, Selected: true"
        } ]
      } ]
    }
  }, {
    "fullUrl": "urn:uuid:71fd3a5a-c3d3-4066-b616-845166153918",
    "resource": {
      "resourceType": "QuestionnaireResponse",
      "id": "71fd3a5a-c3d3-4066-b616-845166153918",
      "identifier": {
        "value": "59132"
      },
      "questionnaire": {
        "reference": "urn:uuid:d74c7f9f-7405-4ded-bb6b-8ce807be76e0"
      },
      "status": "completed",
      "subject": {
        "reference": "urn:uuid:faeba344-03fb-4bb6-b9d6-55525057a9e0"
      },
      "context": {
        "reference": "urn:uuid:d5ae7d0f-c30d-4060-a7fb-390873858e23"
      },
      "authored": "2021-04-06T11:33:34+00:00",
      "item": [ {
        "linkId": "Tx224075",
        "text": "SeverelyIllandConfused",
        "answer": [ {
          "valueString": "*"
        } ]
      } ]
    }
  }, {
    "fullUrl": "urn:uuid:d74c7f9f-7405-4ded-bb6b-8ce807be76e0",
    "resource": {
      "resourceType": "Questionnaire",
      "id": "d74c7f9f-7405-4ded-bb6b-8ce807be76e0",
      "identifier": [ {
        "value": "59132"
      } ],
      "version": "2021-04-06T11:33:34.963Z",
      "status": "active",
      "experimental": false,
      "date": "2021-04-06T11:33:34+00:00",
      "publisher": "User ID: 'MCDONALDD' User name: 'Denzle McDonald' User skill set: 'T3'",
      "lastReviewDate": "2021-04-06",
      "subjectType": [ "Patient" ],
      "item": [ {
        "linkId": "59132",
        "prefix": "47300",
        "text": "SeverelyIllandConfused",
        "type": "choice",
        "required": true,
        "repeats": false,
        "option": [ {
          "valueString": "==\"present\", Selected: false"
        }, {
          "valueString": "*, Selected: true"
        } ]
      } ]
    }
  }, {
    "fullUrl": "urn:uuid:6106f662-26f6-482f-828c-7777a05c9d8e",
    "resource": {
      "resourceType": "QuestionnaireResponse",
      "id": "6106f662-26f6-482f-828c-7777a05c9d8e",
      "identifier": {
        "value": "59132"
      },
      "questionnaire": {
        "reference": "urn:uuid:30795363-1643-46c8-a248-5e2f2a2348c2"
      },
      "status": "completed",
      "subject": {
        "reference": "urn:uuid:faeba344-03fb-4bb6-b9d6-55525057a9e0"
      },
      "context": {
        "reference": "urn:uuid:d5ae7d0f-c30d-4060-a7fb-390873858e23"
      },
      "authored": "2021-04-06T11:33:34+00:00",
      "item": [ {
        "linkId": "Tx221119",
        "text": "SeverelyIll",
        "answer": [ {
          "valueString": "*"
        } ]
      } ]
    }
  }, {
    "fullUrl": "urn:uuid:30795363-1643-46c8-a248-5e2f2a2348c2",
    "resource": {
      "resourceType": "Questionnaire",
      "id": "30795363-1643-46c8-a248-5e2f2a2348c2",
      "identifier": [ {
        "value": "59132"
      } ],
      "version": "2021-04-06T11:33:34.963Z",
      "status": "active",
      "experimental": false,
      "date": "2021-04-06T11:33:34+00:00",
      "publisher": "User ID: 'MCDONALDD' User name: 'Denzle McDonald' User skill set: 'T3'",
      "lastReviewDate": "2021-04-06",
      "subjectType": [ "Patient" ],
      "item": [ {
        "linkId": "59132",
        "prefix": "55200",
        "text": "SeverelyIll",
        "type": "choice",
        "required": true,
        "repeats": false,
        "option": [ {
          "valueString": "==\"present\", Selected: false"
        }, {
          "valueString": "*, Selected: true"
        } ]
      } ]
    }
  }, {
    "fullUrl": "urn:uuid:22a26b26-66bb-45b5-a833-52ec27739c63",
    "resource": {
      "resourceType": "QuestionnaireResponse",
      "id": "22a26b26-66bb-45b5-a833-52ec27739c63",
      "identifier": {
        "value": "59132"
      },
      "questionnaire": {
        "reference": "urn:uuid:fc434065-9a69-488e-b97a-7b3d5e33a08a"
      },
      "status": "completed",
      "subject": {
        "reference": "urn:uuid:faeba344-03fb-4bb6-b9d6-55525057a9e0"
      },
      "context": {
        "reference": "urn:uuid:d5ae7d0f-c30d-4060-a7fb-390873858e23"
      },
      "authored": "2021-04-06T11:33:34+00:00",
      "item": [ {
        "linkId": "Tx223485",
        "text": "ConfusionDeclared",
        "answer": [ {
          "valueString": "*"
        } ]
      } ]
    }
  }, {
    "fullUrl": "urn:uuid:fc434065-9a69-488e-b97a-7b3d5e33a08a",
    "resource": {
      "resourceType": "Questionnaire",
      "id": "fc434065-9a69-488e-b97a-7b3d5e33a08a",
      "identifier": [ {
        "value": "59132"
      } ],
      "version": "2021-04-06T11:33:34.963Z",
      "status": "active",
      "experimental": false,
      "date": "2021-04-06T11:33:34+00:00",
      "publisher": "User ID: 'MCDONALDD' User name: 'Denzle McDonald' User skill set: 'T3'",
      "lastReviewDate": "2021-04-06",
      "subjectType": [ "Patient" ],
      "item": [ {
        "linkId": "59132",
        "prefix": "55600",
        "text": "ConfusionDeclared",
        "type": "choice",
        "required": true,
        "repeats": false,
        "option": [ {
          "valueString": "==\"present\", Selected: false"
        }, {
          "valueString": "*, Selected: true"
        } ]
      } ]
    }
  }, {
    "fullUrl": "urn:uuid:d73d32c0-6f36-49b5-b063-8039230859cd",
    "resource": {
      "resourceType": "QuestionnaireResponse",
      "id": "d73d32c0-6f36-49b5-b063-8039230859cd",
      "identifier": {
        "value": "59132"
      },
      "questionnaire": {
        "reference": "urn:uuid:32734ea8-c23d-4fff-9183-a33a51e3a4a1"
      },
      "status": "completed",
      "subject": {
        "reference": "urn:uuid:faeba344-03fb-4bb6-b9d6-55525057a9e0"
      },
      "context": {
        "reference": "urn:uuid:d5ae7d0f-c30d-4060-a7fb-390873858e23"
      },
      "authored": "2021-04-06T11:33:34+00:00",
      "item": [ {
        "linkId": "Tx1213",
        "text": "Have you suddenly become confused OR more confused than usual?",
        "answer": [ {
          "valueString": "no"
        } ]
      } ]
    }
  }, {
    "fullUrl": "urn:uuid:32734ea8-c23d-4fff-9183-a33a51e3a4a1",
    "resource": {
      "resourceType": "Questionnaire",
      "id": "32734ea8-c23d-4fff-9183-a33a51e3a4a1",
      "identifier": [ {
        "value": "59132"
      } ],
      "version": "2021-04-06T11:33:34.963Z",
      "status": "active",
      "experimental": false,
      "date": "2021-04-06T11:33:34+00:00",
      "publisher": "User ID: 'MCDONALDD' User name: 'Denzle McDonald' User skill set: 'T3'",
      "lastReviewDate": "2021-04-06",
      "subjectType": [ "Patient" ],
      "item": [ {
        "linkId": "59132",
        "prefix": "55500",
        "text": "Have you suddenly become confused OR more confused than usual?",
        "type": "choice",
        "required": true,
        "repeats": false,
        "option": [ {
          "valueString": "yes, Selected: false"
        }, {
          "valueString": "not sure, Selected: false"
        }, {
          "valueString": "no, Selected: true"
        } ]
      } ]
    }
  }, {
    "fullUrl": "urn:uuid:699b864b-7e32-4b0c-a13a-e5288dc8d682",
    "resource": {
      "resourceType": "QuestionnaireResponse",
      "id": "699b864b-7e32-4b0c-a13a-e5288dc8d682",
      "identifier": {
        "value": "59132"
      },
      "questionnaire": {
        "reference": "urn:uuid:743468e8-a3cd-416f-9e57-c23479f2ab90"
      },
      "status": "completed",
      "subject": {
        "reference": "urn:uuid:faeba344-03fb-4bb6-b9d6-55525057a9e0"
      },
      "context": {
        "reference": "urn:uuid:d5ae7d0f-c30d-4060-a7fb-390873858e23"
      },
      "authored": "2021-04-06T11:33:34+00:00",
      "item": [ {
        "linkId": "Tx220164",
        "text": "Are you breathing faster or harder when doing nothing at all?",
        "answer": [ {
          "valueString": "no"
        } ]
      } ]
    }
  }, {
    "fullUrl": "urn:uuid:743468e8-a3cd-416f-9e57-c23479f2ab90",
    "resource": {
      "resourceType": "Questionnaire",
      "id": "743468e8-a3cd-416f-9e57-c23479f2ab90",
      "identifier": [ {
        "value": "59132"
      } ],
      "version": "2021-04-06T11:33:34.963Z",
      "status": "active",
      "experimental": false,
      "date": "2021-04-06T11:33:34+00:00",
      "publisher": "User ID: 'MCDONALDD' User name: 'Denzle McDonald' User skill set: 'T3'",
      "lastReviewDate": "2021-04-06",
      "subjectType": [ "Patient" ],
      "item": [ {
        "linkId": "59132",
        "prefix": "55400",
        "text": "Are you breathing faster or harder when doing nothing at all?",
        "type": "choice",
        "required": true,
        "repeats": false,
        "option": [ {
          "valueString": "yes, Selected: false"
        }, {
          "valueString": "not sure, Selected: false"
        }, {
          "valueString": "no, Selected: true"
        } ]
      } ]
    }
  }, {
    "fullUrl": "urn:uuid:98a31548-6e10-42fb-9d31-599a2451e5c6",
    "resource": {
      "resourceType": "QuestionnaireResponse",
      "id": "98a31548-6e10-42fb-9d31-599a2451e5c6",
      "identifier": {
        "value": "59132"
      },
      "questionnaire": {
        "reference": "urn:uuid:81dd0cc5-ea4b-4064-8203-923401009df8"
      },
      "status": "completed",
      "subject": {
        "reference": "urn:uuid:faeba344-03fb-4bb6-b9d6-55525057a9e0"
      },
      "context": {
        "reference": "urn:uuid:d5ae7d0f-c30d-4060-a7fb-390873858e23"
      },
      "authored": "2021-04-06T11:33:34+00:00",
      "item": [ {
        "linkId": "Tx224697",
        "text": "ShoulderTipPainAsked",
        "answer": [ {
          "valueString": "*"
        } ]
      } ]
    }
  }, {
    "fullUrl": "urn:uuid:81dd0cc5-ea4b-4064-8203-923401009df8",
    "resource": {
      "resourceType": "Questionnaire",
      "id": "81dd0cc5-ea4b-4064-8203-923401009df8",
      "identifier": [ {
        "value": "59132"
      } ],
      "version": "2021-04-06T11:33:34.963Z",
      "status": "active",
      "experimental": false,
      "date": "2021-04-06T11:33:34+00:00",
      "publisher": "User ID: 'MCDONALDD' User name: 'Denzle McDonald' User skill set: 'T3'",
      "lastReviewDate": "2021-04-06",
      "subjectType": [ "Patient" ],
      "item": [ {
        "linkId": "59132",
        "prefix": "59300",
        "text": "ShoulderTipPainAsked",
        "type": "choice",
        "required": true,
        "repeats": false,
        "option": [ {
          "valueString": "==\"present\", Selected: false"
        }, {
          "valueString": "*, Selected: true"
        } ]
      } ]
    }
  }, {
    "fullUrl": "urn:uuid:661a7a24-cc36-4c9b-a0b0-2be6cb157c7f",
    "resource": {
      "resourceType": "QuestionnaireResponse",
      "id": "661a7a24-cc36-4c9b-a0b0-2be6cb157c7f",
      "identifier": {
        "value": "59132"
      },
      "questionnaire": {
        "reference": "urn:uuid:dae35f23-1b8a-46d4-a90b-5071423248e0"
      },
      "status": "completed",
      "subject": {
        "reference": "urn:uuid:faeba344-03fb-4bb6-b9d6-55525057a9e0"
      },
      "context": {
        "reference": "urn:uuid:d5ae7d0f-c30d-4060-a7fb-390873858e23"
      },
      "authored": "2021-04-06T11:33:34+00:00",
      "item": [ {
        "linkId": "Tx1513",
        "text": "Have you got either of the following problems?",
        "answer": [ {
          "valueString": "no"
        } ]
      } ]
    }
  }, {
    "fullUrl": "urn:uuid:dae35f23-1b8a-46d4-a90b-5071423248e0",
    "resource": {
      "resourceType": "Questionnaire",
      "id": "dae35f23-1b8a-46d4-a90b-5071423248e0",
      "identifier": [ {
        "value": "59132"
      } ],
      "version": "2021-04-06T11:33:34.963Z",
      "status": "active",
      "experimental": false,
      "date": "2021-04-06T11:33:34+00:00",
      "publisher": "User ID: 'MCDONALDD' User name: 'Denzle McDonald' User skill set: 'T3'",
      "lastReviewDate": "2021-04-06",
      "subjectType": [ "Patient" ],
      "item": [ {
        "linkId": "59132",
        "prefix": "11000",
        "text": "Have you got either of the following problems?",
        "type": "choice",
        "required": true,
        "repeats": false,
        "option": [ {
          "valueString": "new pain in the TIP of a shoulder as well, Selected: false"
        }, {
          "valueString": "pain in the lower right side of the abdomen, Selected: false"
        }, {
          "valueString": "not sure, Selected: false"
        }, {
          "valueString": "no, Selected: true"
        } ]
      } ]
    }
  }, {
    "fullUrl": "urn:uuid:6f5f9086-866f-497e-b579-e665a2ea64b0",
    "resource": {
      "resourceType": "QuestionnaireResponse",
      "id": "6f5f9086-866f-497e-b579-e665a2ea64b0",
      "identifier": {
        "value": "59132"
      },
      "questionnaire": {
        "reference": "urn:uuid:c9629698-6196-461d-b3e2-eca98ae1497c"
      },
      "status": "completed",
      "subject": {
        "reference": "urn:uuid:faeba344-03fb-4bb6-b9d6-55525057a9e0"
      },
      "context": {
        "reference": "urn:uuid:d5ae7d0f-c30d-4060-a7fb-390873858e23"
      },
      "authored": "2021-04-06T11:33:34+00:00",
      "item": [ {
        "linkId": "Tx3481",
        "text": "Has the pain been there ALL THE TIME for MORE THAN 4 HOURS?",
        "answer": [ {
          "valueString": "no (LESS THAN 4 hours)"
        } ]
      } ]
    }
  }, {
    "fullUrl": "urn:uuid:c9629698-6196-461d-b3e2-eca98ae1497c",
    "resource": {
      "resourceType": "Questionnaire",
      "id": "c9629698-6196-461d-b3e2-eca98ae1497c",
      "identifier": [ {
        "value": "59132"
      } ],
      "version": "2021-04-06T11:33:34.963Z",
      "status": "active",
      "experimental": false,
      "date": "2021-04-06T11:33:34+00:00",
      "publisher": "User ID: 'MCDONALDD' User name: 'Denzle McDonald' User skill set: 'T3'",
      "lastReviewDate": "2021-04-06",
      "subjectType": [ "Patient" ],
      "item": [ {
        "linkId": "59132",
        "prefix": "13000",
        "text": "Has the pain been there ALL THE TIME for MORE THAN 4 HOURS?",
        "type": "choice",
        "required": true,
        "repeats": false,
        "option": [ {
          "valueString": "yes (4 hours or MORE), Selected: false"
        }, {
          "valueString": "not sure, Selected: false"
        }, {
          "valueString": "no (LESS THAN 4 hours), Selected: true"
        } ]
      } ]
    }
  }, {
    "fullUrl": "urn:uuid:4c59a61b-0c2a-4ec9-b29d-771b9aa2c001",
    "resource": {
      "resourceType": "QuestionnaireResponse",
      "id": "4c59a61b-0c2a-4ec9-b29d-771b9aa2c001",
      "identifier": {
        "value": "59132"
      },
      "questionnaire": {
        "reference": "urn:uuid:533c870b-8ed5-4dcd-a89f-3cc24d027d58"
      },
      "status": "completed",
      "subject": {
        "reference": "urn:uuid:faeba344-03fb-4bb6-b9d6-55525057a9e0"
      },
      "context": {
        "reference": "urn:uuid:d5ae7d0f-c30d-4060-a7fb-390873858e23"
      },
      "authored": "2021-04-06T11:33:34+00:00",
      "item": [ {
        "linkId": "Tx1178",
        "text": "Have you been diagnosed with diabetes?",
        "answer": [ {
          "valueString": "no"
        } ]
      } ]
    }
  }, {
    "fullUrl": "urn:uuid:533c870b-8ed5-4dcd-a89f-3cc24d027d58",
    "resource": {
      "resourceType": "Questionnaire",
      "id": "533c870b-8ed5-4dcd-a89f-3cc24d027d58",
      "identifier": [ {
        "value": "59132"
      } ],
      "version": "2021-04-06T11:33:34.963Z",
      "status": "active",
      "experimental": false,
      "date": "2021-04-06T11:33:34+00:00",
      "publisher": "User ID: 'MCDONALDD' User name: 'Denzle McDonald' User skill set: 'T3'",
      "lastReviewDate": "2021-04-06",
      "subjectType": [ "Patient" ],
      "item": [ {
        "linkId": "59132",
        "prefix": "13700",
        "text": "Have you been diagnosed with diabetes?",
        "type": "choice",
        "required": true,
        "repeats": false,
        "option": [ {
          "valueString": "yes, Selected: false"
        }, {
          "valueString": "not sure, Selected: false"
        }, {
          "valueString": "no, Selected: true"
        } ]
      } ]
    }
  }, {
    "fullUrl": "urn:uuid:f9ca769e-419a-420e-a0aa-fa2b19fdf317",
    "resource": {
      "resourceType": "QuestionnaireResponse",
      "id": "f9ca769e-419a-420e-a0aa-fa2b19fdf317",
      "identifier": {
        "value": "59132"
      },
      "questionnaire": {
        "reference": "urn:uuid:728a1f74-609a-4712-89a3-483a54596433"
      },
      "status": "completed",
      "subject": {
        "reference": "urn:uuid:faeba344-03fb-4bb6-b9d6-55525057a9e0"
      },
      "context": {
        "reference": "urn:uuid:d5ae7d0f-c30d-4060-a7fb-390873858e23"
      },
      "authored": "2021-04-06T11:33:34+00:00",
      "item": [ {
        "linkId": "Tx220906",
        "text": "Have you got pain in the back or side between the ribs and hips?",
        "answer": [ {
          "valueString": "yes"
        } ]
      } ]
    }
  }, {
    "fullUrl": "urn:uuid:728a1f74-609a-4712-89a3-483a54596433",
    "resource": {
      "resourceType": "Questionnaire",
      "id": "728a1f74-609a-4712-89a3-483a54596433",
      "identifier": [ {
        "value": "59132"
      } ],
      "version": "2021-04-06T11:33:34.963Z",
      "status": "active",
      "experimental": false,
      "date": "2021-04-06T11:33:34+00:00",
      "publisher": "User ID: 'MCDONALDD' User name: 'Denzle McDonald' User skill set: 'T3'",
      "lastReviewDate": "2021-04-06",
      "subjectType": [ "Patient" ],
      "item": [ {
        "linkId": "59132",
        "prefix": "14400",
        "text": "Have you got pain in the back or side between the ribs and hips?",
        "type": "choice",
        "required": true,
        "repeats": false,
        "option": [ {
          "valueString": "yes, Selected: true"
        }, {
          "valueString": "not sure, Selected: false"
        }, {
          "valueString": "no, Selected: false"
        } ]
      } ]
    }
  }, {
    "fullUrl": "urn:uuid:70795ea0-ee1f-4f2c-a318-19efbc0a8e71",
    "resource": {
      "resourceType": "QuestionnaireResponse",
      "id": "70795ea0-ee1f-4f2c-a318-19efbc0a8e71",
      "identifier": {
        "value": "59132"
      },
      "questionnaire": {
        "reference": "urn:uuid:53849b24-8114-41fa-a71f-7048d226364c"
      },
      "status": "completed",
      "subject": {
        "reference": "urn:uuid:faeba344-03fb-4bb6-b9d6-55525057a9e0"
      },
      "context": {
        "reference": "urn:uuid:d5ae7d0f-c30d-4060-a7fb-390873858e23"
      },
      "authored": "2021-04-06T11:33:34+00:00",
      "item": [ {
        "linkId": "Tx1122",
        "text": "Have you felt hot or feverish at any time in the last 12 hours?",
        "answer": [ {
          "valueString": "yes - temperature not taken"
        } ]
      } ]
    }
  }, {
    "fullUrl": "urn:uuid:53849b24-8114-41fa-a71f-7048d226364c",
    "resource": {
      "resourceType": "Questionnaire",
      "id": "53849b24-8114-41fa-a71f-7048d226364c",
      "identifier": [ {
        "value": "59132"
      } ],
      "version": "2021-04-06T11:33:34.963Z",
      "status": "active",
      "experimental": false,
      "date": "2021-04-06T11:33:34+00:00",
      "publisher": "User ID: 'MCDONALDD' User name: 'Denzle McDonald' User skill set: 'T3'",
      "lastReviewDate": "2021-04-06",
      "subjectType": [ "Patient" ],
      "item": [ {
        "linkId": "59132",
        "prefix": "14700",
        "text": "Have you felt hot or feverish at any time in the last 12 hours?",
        "type": "choice",
        "required": true,
        "repeats": false,
        "option": [ {
          "valueString": "yes - temperature not taken, Selected: true"
        }, {
          "valueString": "yes - temperature taken (specify), Selected: false"
        }, {
          "valueString": "not sure, Selected: false"
        }, {
          "valueString": "no, Selected: false"
        } ]
      } ]
    }
  }, {
    "fullUrl": "urn:uuid:ddf7f092-36c3-407c-ab2f-dbd080a87c3a",
    "resource": {
      "resourceType": "QuestionnaireResponse",
      "id": "ddf7f092-36c3-407c-ab2f-dbd080a87c3a",
      "identifier": {
        "value": "59132"
      },
      "questionnaire": {
        "reference": "urn:uuid:373e7ee1-edd8-465d-b7ab-fc4c86908454"
      },
      "status": "completed",
      "subject": {
        "reference": "urn:uuid:faeba344-03fb-4bb6-b9d6-55525057a9e0"
      },
      "context": {
        "reference": "urn:uuid:d5ae7d0f-c30d-4060-a7fb-390873858e23"
      },
      "authored": "2021-04-06T11:33:34+00:00",
      "item": [ {
        "linkId": "Tx1320",
        "text": "Have you got a new red rash all over, like sunburn?",
        "answer": [ {
          "valueString": "no"
        } ]
      } ]
    }
  }, {
    "fullUrl": "urn:uuid:373e7ee1-edd8-465d-b7ab-fc4c86908454",
    "resource": {
      "resourceType": "Questionnaire",
      "id": "373e7ee1-edd8-465d-b7ab-fc4c86908454",
      "identifier": [ {
        "value": "59132"
      } ],
      "version": "2021-04-06T11:33:34.963Z",
      "status": "active",
      "experimental": false,
      "date": "2021-04-06T11:33:34+00:00",
      "publisher": "User ID: 'MCDONALDD' User name: 'Denzle McDonald' User skill set: 'T3'",
      "lastReviewDate": "2021-04-06",
      "subjectType": [ "Patient" ],
      "item": [ {
        "linkId": "59132",
        "prefix": "14800",
        "text": "Have you got a new red rash all over, like sunburn?",
        "type": "choice",
        "required": true,
        "repeats": false,
        "option": [ {
          "valueString": "yes, Selected: false"
        }, {
          "valueString": "not sure, Selected: false"
        }, {
          "valueString": "no, Selected: true"
        } ]
      } ]
    }
  }, {
    "fullUrl": "urn:uuid:122a7776-7817-441a-978b-50596ddb0e1e",
    "resource": {
      "resourceType": "QuestionnaireResponse",
      "id": "122a7776-7817-441a-978b-50596ddb0e1e",
      "identifier": {
        "value": "59132"
      },
      "questionnaire": {
        "reference": "urn:uuid:23fa8a52-c789-40b4-a99b-d6678de122f1"
      },
      "status": "completed",
      "subject": {
        "reference": "urn:uuid:faeba344-03fb-4bb6-b9d6-55525057a9e0"
      },
      "context": {
        "reference": "urn:uuid:d5ae7d0f-c30d-4060-a7fb-390873858e23"
      },
      "authored": "2021-04-06T11:33:34+00:00",
      "item": [ {
        "linkId": "Tx221449",
        "text": "STRING:SDPCFullPrimaryCareassessmentandprescribingcapability",
        "answer": [ {
          "valueString": "\"PC full Primary Care assessment and prescribing capability\""
        } ]
      } ]
    }
  }, {
    "fullUrl": "urn:uuid:23fa8a52-c789-40b4-a99b-d6678de122f1",
    "resource": {
      "resourceType": "Questionnaire",
      "id": "23fa8a52-c789-40b4-a99b-d6678de122f1",
      "identifier": [ {
        "value": "59132"
      } ],
      "version": "2021-04-06T11:33:34.963Z",
      "status": "active",
      "experimental": false,
      "date": "2021-04-06T11:33:34+00:00",
      "publisher": "User ID: 'MCDONALDD' User name: 'Denzle McDonald' User skill set: 'T3'",
      "lastReviewDate": "2021-04-06",
      "subjectType": [ "Patient" ],
      "item": [ {
        "linkId": "59132",
        "prefix": "14900",
        "text": "STRING:SDPCFullPrimaryCareassessmentandprescribingcapability",
        "type": "choice",
        "required": true,
        "repeats": false,
        "option": [ {
          "valueString": "\"PC full Primary Care assessment and prescribing capability\", Selected: true"
        } ]
      } ]
    }
  }, {
    "fullUrl": "urn:uuid:db23a8ff-eeae-4807-ae6a-ce89b2214879",
    "resource": {
      "resourceType": "QuestionnaireResponse",
      "id": "db23a8ff-eeae-4807-ae6a-ce89b2214879",
      "identifier": {
        "value": "59132"
      },
      "questionnaire": {
        "reference": "urn:uuid:4649bd13-71be-4bd8-88d3-c27f2016e987"
      },
      "status": "completed",
      "subject": {
        "reference": "urn:uuid:faeba344-03fb-4bb6-b9d6-55525057a9e0"
      },
      "context": {
        "reference": "urn:uuid:d5ae7d0f-c30d-4060-a7fb-390873858e23"
      },
      "authored": "2021-04-06T11:33:34+00:00"
    }
  }, {
    "fullUrl": "urn:uuid:4649bd13-71be-4bd8-88d3-c27f2016e987",
    "resource": {
      "resourceType": "Questionnaire",
      "id": "4649bd13-71be-4bd8-88d3-c27f2016e987",
      "identifier": [ {
        "value": "59132"
      } ],
      "version": "2021-04-06T11:33:34.963Z",
      "status": "active",
      "experimental": false,
      "date": "2021-04-06T11:33:34+00:00",
      "publisher": "User ID: 'MCDONALDD' User name: 'Denzle McDonald' User skill set: 'T3'",
      "lastReviewDate": "2021-04-06",
      "subjectType": [ "Patient" ]
    }
  }, {
    "fullUrl": "urn:uuid:e7fd86f3-722c-4eb2-9f98-2aad749d3ad4",
    "resource": {
      "resourceType": "QuestionnaireResponse",
      "id": "e7fd86f3-722c-4eb2-9f98-2aad749d3ad4",
      "identifier": {
        "value": "59132"
      },
      "questionnaire": {
        "reference": "urn:uuid:e24a7603-3fbb-4c55-a5e5-677c0da81c57"
      },
      "status": "completed",
      "subject": {
        "reference": "urn:uuid:faeba344-03fb-4bb6-b9d6-55525057a9e0"
      },
      "context": {
        "reference": "urn:uuid:d5ae7d0f-c30d-4060-a7fb-390873858e23"
      },
      "authored": "2021-04-06T11:33:34+00:00"
    }
  }, {
    "fullUrl": "urn:uuid:e24a7603-3fbb-4c55-a5e5-677c0da81c57",
    "resource": {
      "resourceType": "Questionnaire",
      "id": "e24a7603-3fbb-4c55-a5e5-677c0da81c57",
      "identifier": [ {
        "value": "59132"
      } ],
      "version": "2021-04-06T11:33:34.963Z",
      "status": "active",
      "experimental": false,
      "date": "2021-04-06T11:33:34+00:00",
      "publisher": "User ID: 'MCDONALDD' User name: 'Denzle McDonald' User skill set: 'T3'",
      "lastReviewDate": "2021-04-06",
      "subjectType": [ "Patient" ]
    }
  }, {
    "fullUrl": "urn:uuid:979dfb31-0ddb-4075-8a45-a4272e5c0ab0",
    "resource": {
      "resourceType": "QuestionnaireResponse",
      "id": "979dfb31-0ddb-4075-8a45-a4272e5c0ab0",
      "identifier": {
        "value": "59132"
      },
      "questionnaire": {
        "reference": "urn:uuid:c550f7a8-7960-409f-b1d5-3d389dd2b610"
      },
      "status": "completed",
      "subject": {
        "reference": "urn:uuid:faeba344-03fb-4bb6-b9d6-55525057a9e0"
      },
      "context": {
        "reference": "urn:uuid:d5ae7d0f-c30d-4060-a7fb-390873858e23"
      },
      "authored": "2021-04-06T11:33:34+00:00"
    }
  }, {
    "fullUrl": "urn:uuid:c550f7a8-7960-409f-b1d5-3d389dd2b610",
    "resource": {
      "resourceType": "Questionnaire",
      "id": "c550f7a8-7960-409f-b1d5-3d389dd2b610",
      "identifier": [ {
        "value": "59132"
      } ],
      "version": "2021-04-06T11:33:34.963Z",
      "status": "active",
      "experimental": false,
      "date": "2021-04-06T11:33:34+00:00",
      "publisher": "User ID: 'MCDONALDD' User name: 'Denzle McDonald' User skill set: 'T3'",
      "lastReviewDate": "2021-04-06",
      "subjectType": [ "Patient" ]
    }
  }, {
    "fullUrl": "urn:uuid:77a5da8b-2a29-4aca-970b-84958ed5b72f",
    "resource": {
      "resourceType": "QuestionnaireResponse",
      "id": "77a5da8b-2a29-4aca-970b-84958ed5b72f",
      "identifier": {
        "value": "59132"
      },
      "questionnaire": {
        "reference": "urn:uuid:f3a3b3d8-37ed-4d24-a999-0c45d9fdc622"
      },
      "status": "completed",
      "subject": {
        "reference": "urn:uuid:faeba344-03fb-4bb6-b9d6-55525057a9e0"
      },
      "context": {
        "reference": "urn:uuid:d5ae7d0f-c30d-4060-a7fb-390873858e23"
      },
      "authored": "2021-04-06T11:33:34+00:00"
    }
  }, {
    "fullUrl": "urn:uuid:f3a3b3d8-37ed-4d24-a999-0c45d9fdc622",
    "resource": {
      "resourceType": "Questionnaire",
      "id": "f3a3b3d8-37ed-4d24-a999-0c45d9fdc622",
      "identifier": [ {
        "value": "59132"
      } ],
      "version": "2021-04-06T11:33:34.963Z",
      "status": "active",
      "experimental": false,
      "date": "2021-04-06T11:33:34+00:00",
      "publisher": "User ID: 'MCDONALDD' User name: 'Denzle McDonald' User skill set: 'T3'",
      "lastReviewDate": "2021-04-06",
      "subjectType": [ "Patient" ]
    }
  }, {
    "fullUrl": "urn:uuid:5206ee45-6d8c-42db-9c6f-c8d121ffcaca",
    "resource": {
      "resourceType": "QuestionnaireResponse",
      "id": "5206ee45-6d8c-42db-9c6f-c8d121ffcaca",
      "identifier": {
        "value": "59132"
      },
      "questionnaire": {
        "reference": "urn:uuid:663cbdc7-f604-4c1d-93b5-375df3102d9d"
      },
      "status": "completed",
      "subject": {
        "reference": "urn:uuid:faeba344-03fb-4bb6-b9d6-55525057a9e0"
      },
      "context": {
        "reference": "urn:uuid:d5ae7d0f-c30d-4060-a7fb-390873858e23"
      },
      "authored": "2021-04-06T11:33:34+00:00"
    }
  }, {
    "fullUrl": "urn:uuid:663cbdc7-f604-4c1d-93b5-375df3102d9d",
    "resource": {
      "resourceType": "Questionnaire",
      "id": "663cbdc7-f604-4c1d-93b5-375df3102d9d",
      "identifier": [ {
        "value": "59132"
      } ],
      "version": "2021-04-06T11:33:34.963Z",
      "status": "active",
      "experimental": false,
      "date": "2021-04-06T11:33:34+00:00",
      "publisher": "User ID: 'MCDONALDD' User name: 'Denzle McDonald' User skill set: 'T3'",
      "lastReviewDate": "2021-04-06",
      "subjectType": [ "Patient" ]
    }
  }, {
    "fullUrl": "urn:uuid:16bcd25d-93e4-4a66-bd6d-b4d709ca8000",
    "resource": {
      "resourceType": "Observation",
      "id": "16bcd25d-93e4-4a66-bd6d-b4d709ca8000",
      "status": "final",
      "code": {
        "coding": [ {
          "system": "http://snomed.info/sct",
          "code": "33962009",
          "display": "Presenting complaint"
        } ]
      },
      "subject": {
        "reference": "urn:uuid:faeba344-03fb-4bb6-b9d6-55525057a9e0"
      },
      "context": {
        "reference": "urn:uuid:d5ae7d0f-c30d-4060-a7fb-390873858e23"
      },
      "valueString": "Pharmacy ITK Testing"
    }
  }, {
    "fullUrl": "urn:uuid:dfaa71df-0986-45f0-97aa-458d44e9fd21",
    "resource": {
      "resourceType": "PractitionerRole",
      "id": "dfaa71df-0986-45f0-97aa-458d44e9fd21",
      "practitioner": {
        "reference": "urn:uuid:5dcecfa9-a24f-450a-9f65-a4012f1b6c3d"
      },
      "organization": {
        "reference": "urn:uuid:a5fe2434-b802-41a6-8aad-d4930e3e68e8"
      },
      "code": [ {
        "coding": [ {
          "system": "2.16.840.1.113883.2.1.3.2.4.17.339",
          "code": "DOCTOR",
          "display": "Doctor"
        } ]
      } ]
    }
  }, {
    "fullUrl": "urn:uuid:a5fe2434-b802-41a6-8aad-d4930e3e68e8",
    "resource": {
      "resourceType": "Organization",
      "id": "a5fe2434-b802-41a6-8aad-d4930e3e68e8",
      "identifier": [ {
        "value": "RYE"
      } ],
      "name": "1.SCAS Administrator (SCAS111)"
    }
  }, {
    "fullUrl": "urn:uuid:8efe0861-f23f-43e0-a818-f25c2613ee86",
    "resource": {
      "resourceType": "PractitionerRole",
      "id": "8efe0861-f23f-43e0-a818-f25c2613ee86",
      "practitioner": {
        "reference": "urn:uuid:9a4974cd-1400-4833-8611-4bada802128f"
      },
      "organization": {
        "reference": "urn:uuid:ba3d3163-1165-4fb5-99b1-c655f25c30c7"
      },
      "code": [ {
        "coding": [ {
          "system": "2.16.840.1.113883.2.1.3.2.4.17.196",
          "code": "R0010",
          "display": "Medical Director"
        } ]
      } ]
    }
  }, {
    "fullUrl": "urn:uuid:ba3d3163-1165-4fb5-99b1-c655f25c30c7",
    "resource": {
      "resourceType": "Organization",
      "id": "ba3d3163-1165-4fb5-99b1-c655f25c30c7",
      "identifier": [ {
        "value": "RYE"
      } ],
      "name": "SCAS111"
    }
  }, {
    "fullUrl": "urn:uuid:bd5a7ad1-1bda-4bc4-9600-b3ffa6f5b811",
    "resource": {
      "resourceType": "RelatedPerson",
      "id": "bd5a7ad1-1bda-4bc4-9600-b3ffa6f5b811",
      "patient": {
        "reference": "urn:uuid:faeba344-03fb-4bb6-b9d6-55525057a9e0"
      },
      "relationship": {
        "coding": [ {
          "system": "http://hl7.org/fhir/v2/0131",
          "code": "C",
          "display": "Emergency Contact"
        } ]
      },
      "telecom": [ {
        "system": "phone",
        "value": "tel:07948625625"
      } ]
    }
  }, {
    "fullUrl": "urn:uuid:fdcbb629-65fe-481f-bf18-4dffee627cdd",
    "resource": {
      "resourceType": "Device",
      "id": "fdcbb629-65fe-481f-bf18-4dffee627cdd",
      "model": "111 Adaptor",
      "version": "0.9.0"
    }
  }, {
    "fullUrl": "urn:uuid:03594ead-70a1-48b4-9d29-098d453376e8",
    "resource": {
      "resourceType": "List",
      "id": "03594ead-70a1-48b4-9d29-098d453376e8",
      "status": "current",
      "mode": "working",
      "title": "111 Report List",
      "code": {
        "coding": [ {
          "system": "http://snomed.info/sct",
          "code": "225390008",
          "display": "Triage"
        } ]
      },
      "subject": {
        "reference": "urn:uuid:faeba344-03fb-4bb6-b9d6-55525057a9e0"
      },
      "encounter": {
        "reference": "urn:uuid:d5ae7d0f-c30d-4060-a7fb-390873858e23"
      },
      "date": "2021-09-29T10:03:05+00:00",
      "source": {
        "reference": "urn:uuid:fdcbb629-65fe-481f-bf18-4dffee627cdd"
      },
      "orderedBy": {
        "coding": [ {
          "system": "http://hl7.org/fhir/list-order",
          "code": "event-date",
          "display": "Sorted by Event Date"
        } ]
      },
      "entry": [ {
        "item": {
          "reference": "urn:uuid:a11fa583-3891-484d-a4be-8c69eb1d0bad"
        }
      }, {
        "item": {
          "reference": "urn:uuid:5dcecfa9-a24f-450a-9f65-a4012f1b6c3d"
        }
      }, {
        "item": {
          "reference": "urn:uuid:cb83bcd9-5668-444c-a268-b8cb9bf204e1"
        }
      }, {
        "item": {
          "reference": "urn:uuid:ba3d3163-1165-4fb5-99b1-c655f25c30c7"
        }
      }, {
        "item": {
          "reference": "urn:uuid:bd5a7ad1-1bda-4bc4-9600-b3ffa6f5b811"
        }
      }, {
        "item": {
          "reference": "urn:uuid:16bcd25d-93e4-4a66-bd6d-b4d709ca8000"
        }
      }, {
        "item": {
          "reference": "urn:uuid:71b39ab2-32d9-41a1-9c3b-77b22980019f"
        }
      }, {
        "item": {
          "reference": "urn:uuid:a5fe2434-b802-41a6-8aad-d4930e3e68e8"
        }
      }, {
        "item": {
          "reference": "urn:uuid:9a4974cd-1400-4833-8611-4bada802128f"
        }
      }, {
        "item": {
          "reference": "urn:uuid:2e0ae92f-cf4d-47a4-b137-7fb69b8712d7"
        }
      }, {
        "item": {
          "reference": "urn:uuid:5c6a8434-620a-4173-b3e9-9c57d0ca5d51"
        }
      }, {
        "item": {
          "reference": "urn:uuid:cb31779b-ed2e-4ff0-8485-efbe74580fac"
        }
      }, {
        "item": {
          "reference": "urn:uuid:fc75407c-908b-4f07-93e7-98f74d2cb88f"
        }
      }, {
        "item": {
          "reference": "urn:uuid:6547d501-42ec-48d9-bd1f-b0950a6327e9"
        }
      }, {
        "item": {
          "reference": "urn:uuid:db23a8ff-eeae-4807-ae6a-ce89b2214879"
        }
      }, {
        "item": {
          "reference": "urn:uuid:c550f7a8-7960-409f-b1d5-3d389dd2b610"
        }
      }, {
        "item": {
          "reference": "urn:uuid:82f3525f-ff5f-49af-a150-3e9dd9becb9d"
        }
      }, {
        "item": {
          "reference": "urn:uuid:87f37279-2e73-41f3-810c-6299a32c8d27"
        }
      }, {
        "item": {
          "reference": "urn:uuid:373e7ee1-edd8-465d-b7ab-fc4c86908454"
        }
      }, {
        "item": {
          "reference": "urn:uuid:30395c2e-8197-49c8-a1fe-d416e49e610b"
        }
      }, {
        "item": {
          "reference": "urn:uuid:d86ca660-b623-4cb1-be06-02ac1f29ae68"
        }
      }, {
        "item": {
          "reference": "urn:uuid:a87d4c37-8169-4142-9bae-0fdab452353a"
        }
      }, {
        "item": {
          "reference": "urn:uuid:6ef170c6-235e-4475-8388-93e752e0ffdb"
        }
      }, {
        "item": {
          "reference": "urn:uuid:6106f662-26f6-482f-828c-7777a05c9d8e"
        }
      }, {
        "item": {
          "reference": "urn:uuid:0ccab070-87af-424b-bf7c-bb2f7e16d429"
        }
      }, {
        "item": {
          "reference": "urn:uuid:ab1e427e-616e-4031-8f56-b452fd9e6dde"
        }
      }, {
        "item": {
          "reference": "urn:uuid:6a5e2257-fd91-4f6a-864c-0c63f80c9b95"
        }
      }, {
        "item": {
          "reference": "urn:uuid:dae35f23-1b8a-46d4-a90b-5071423248e0"
        }
      }, {
        "item": {
          "reference": "urn:uuid:1feea6cf-705d-45db-bfe3-3a33bb8dc2a1"
        }
      }, {
        "item": {
          "reference": "urn:uuid:164d98f2-c702-4e1c-b9b6-59293dc981bb"
        }
      }, {
        "item": {
          "reference": "urn:uuid:873e96fa-c7d3-4350-8145-519ed21b8d15"
        }
      }, {
        "item": {
          "reference": "urn:uuid:8ab60353-a7b0-4ca1-8a14-a5a804e0da79"
        }
      }, {
        "item": {
          "reference": "urn:uuid:64632000-894d-4bad-bfe0-ef3430ec9c92"
        }
      }, {
        "item": {
          "reference": "urn:uuid:6d3dd733-7c95-49e3-9495-e10ce51fc210"
        }
      }, {
        "item": {
          "reference": "urn:uuid:c951685d-d2a5-425d-b25b-805a837cf5f1"
        }
      }, {
        "item": {
          "reference": "urn:uuid:30795363-1643-46c8-a248-5e2f2a2348c2"
        }
      }, {
        "item": {
          "reference": "urn:uuid:9b22106a-c92f-4ef7-ba56-aca5d77eb6dc"
        }
      }, {
        "item": {
          "reference": "urn:uuid:533c870b-8ed5-4dcd-a89f-3cc24d027d58"
        }
      }, {
        "item": {
          "reference": "urn:uuid:497887f2-3ab1-46cf-b26d-b9ad6c432395"
        }
      }, {
        "item": {
          "reference": "urn:uuid:628083bb-2053-4576-ba9a-7099de347f11"
        }
      }, {
        "item": {
          "reference": "urn:uuid:465004e2-10ba-4905-8ae1-e381600d115c"
        }
      }, {
        "item": {
          "reference": "urn:uuid:2b34223a-3a38-4e48-be00-83a5eb800daf"
        }
      }, {
        "item": {
          "reference": "urn:uuid:e24a7603-3fbb-4c55-a5e5-677c0da81c57"
        }
      }, {
        "item": {
          "reference": "urn:uuid:e5d7bc0f-1bcd-4259-b21c-d00cb8d53e3a"
        }
      }, {
        "item": {
          "reference": "urn:uuid:a9d87f30-72ac-4b90-a713-c7e4ad10182b"
        }
      }, {
        "item": {
          "reference": "urn:uuid:122a7776-7817-441a-978b-50596ddb0e1e"
        }
      }, {
        "item": {
          "reference": "urn:uuid:5865632b-0f64-40c3-a7c5-ba2ad73aea6a"
        }
      }, {
        "item": {
          "reference": "urn:uuid:e7fd86f3-722c-4eb2-9f98-2aad749d3ad4"
        }
      }, {
        "item": {
          "reference": "urn:uuid:32734ea8-c23d-4fff-9183-a33a51e3a4a1"
        }
      }, {
        "item": {
          "reference": "urn:uuid:979dfb31-0ddb-4075-8a45-a4272e5c0ab0"
        }
      }, {
        "item": {
          "reference": "urn:uuid:1e8cf12c-13c0-4551-9538-a8f2c4f4a32a"
        }
      }, {
        "item": {
          "reference": "urn:uuid:d74c7f9f-7405-4ded-bb6b-8ce807be76e0"
        }
      }, {
        "item": {
          "reference": "urn:uuid:a8122413-7368-4c70-88dd-5f6e2ec36e2a"
        }
      }, {
        "item": {
          "reference": "urn:uuid:70ef0e93-7531-46ff-845b-98af7ace3057"
        }
      }, {
        "item": {
          "reference": "urn:uuid:6f5f9086-866f-497e-b579-e665a2ea64b0"
        }
      }, {
        "item": {
          "reference": "urn:uuid:090ae49c-f22b-4fa0-98bd-71cf155dead2"
        }
      }, {
        "item": {
          "reference": "urn:uuid:cae1736e-c30a-4522-9a50-07aed5625870"
        }
      }, {
        "item": {
          "reference": "urn:uuid:2ed7cd9a-05b7-4c97-87af-832ee8d6f713"
        }
      }, {
        "item": {
          "reference": "urn:uuid:23fa8a52-c789-40b4-a99b-d6678de122f1"
        }
      }, {
        "item": {
          "reference": "urn:uuid:57a0616c-31be-453f-ab41-82714716c985"
        }
      }, {
        "item": {
          "reference": "urn:uuid:075e3163-fc2d-45c3-bb6f-699388698065"
        }
      }, {
        "item": {
          "reference": "urn:uuid:743468e8-a3cd-416f-9e57-c23479f2ab90"
        }
      }, {
        "item": {
          "reference": "urn:uuid:11e34fc5-acc5-42cc-a4df-53d03f58f590"
        }
      }, {
        "item": {
          "reference": "urn:uuid:81e96f2c-28de-4835-9bb2-8779aeda3b76"
        }
      }, {
        "item": {
          "reference": "urn:uuid:0916bd41-a27f-4997-b872-cc585c8a0028"
        }
      }, {
        "item": {
          "reference": "urn:uuid:ff25e753-1d3e-4a03-926c-a6cad64117c2"
        }
      }, {
        "item": {
          "reference": "urn:uuid:641036c6-fb3c-494f-8e43-1fc85a1ef415"
        }
      }, {
        "item": {
          "reference": "urn:uuid:53922d6d-6908-492f-bcdc-b19405f751e2"
        }
      }, {
        "item": {
          "reference": "urn:uuid:524ff764-809e-44cb-9c2c-2df5e5ec6b9c"
        }
      }, {
        "item": {
          "reference": "urn:uuid:91533467-86bb-4db3-ac36-08aca6df2ef9"
        }
      }, {
        "item": {
          "reference": "urn:uuid:4649bd13-71be-4bd8-88d3-c27f2016e987"
        }
      }, {
        "item": {
          "reference": "urn:uuid:165a5ace-ac0a-4df5-a670-a01a68e08024"
        }
      }, {
        "item": {
          "reference": "urn:uuid:19c6a295-bd4f-4a00-afc8-427481dadd31"
        }
      }, {
        "item": {
          "reference": "urn:uuid:98a31548-6e10-42fb-9d31-599a2451e5c6"
        }
      }, {
        "item": {
          "reference": "urn:uuid:94066817-0dba-4c3e-ba9b-bf3b06c74823"
        }
      }, {
        "item": {
          "reference": "urn:uuid:32c238c5-1df6-4724-ba05-4e3eb025e04d"
        }
      }, {
        "item": {
          "reference": "urn:uuid:d73d32c0-6f36-49b5-b063-8039230859cd"
        }
      }, {
        "item": {
          "reference": "urn:uuid:4d744481-7f73-4c9f-9805-d295802358b5"
        }
      }, {
        "item": {
          "reference": "urn:uuid:58f703f1-1f69-4324-a719-8fe132c01242"
        }
      }, {
        "item": {
          "reference": "urn:uuid:c9629698-6196-461d-b3e2-eca98ae1497c"
        }
      }, {
        "item": {
          "reference": "urn:uuid:964b916c-b9a5-4349-bbea-10d518a1f3af"
        }
      }, {
        "item": {
          "reference": "urn:uuid:b959777c-ffc6-42cf-98f0-6be8724b7e53"
        }
      }, {
        "item": {
          "reference": "urn:uuid:05fb3a45-a922-488d-a585-c13acbed0215"
        }
      }, {
        "item": {
          "reference": "urn:uuid:f820e25b-3bfc-4f44-86bb-a40bcb3f5d06"
        }
      }, {
        "item": {
          "reference": "urn:uuid:49a3b525-1dad-4c91-b560-0799a14e409f"
        }
      }, {
        "item": {
          "reference": "urn:uuid:663cbdc7-f604-4c1d-93b5-375df3102d9d"
        }
      }, {
        "item": {
          "reference": "urn:uuid:04328cd7-6300-43aa-b6ed-ba130abec672"
        }
      }, {
        "item": {
          "reference": "urn:uuid:9d12472b-fba3-402d-83fd-e81b933e0f24"
        }
      }, {
        "item": {
          "reference": "urn:uuid:4177efa7-0df0-4a51-ae67-775240c6df0d"
        }
      }, {
        "item": {
          "reference": "urn:uuid:10e30b8f-a4b8-4120-8e20-e5a28a226e04"
        }
      }, {
        "item": {
          "reference": "urn:uuid:897d95f4-5c69-4f01-8395-b9babcc626f3"
        }
      }, {
        "item": {
          "reference": "urn:uuid:f9ca769e-419a-420e-a0aa-fa2b19fdf317"
        }
      }, {
        "item": {
          "reference": "urn:uuid:44969689-0941-4a40-806e-279772b8315f"
        }
      }, {
        "item": {
          "reference": "urn:uuid:fcecc344-ab3f-4589-87e6-d3ef9dede34c"
        }
      }, {
        "item": {
          "reference": "urn:uuid:baaa8439-6eb8-490c-92c7-41177cac90d5"
        }
      }, {
        "item": {
          "reference": "urn:uuid:bd90c74d-0ea1-445f-ad5a-1872dbc12441"
        }
      }, {
        "item": {
          "reference": "urn:uuid:71fd3a5a-c3d3-4066-b616-845166153918"
        }
      }, {
        "item": {
          "reference": "urn:uuid:b0b8b674-5ca0-4651-98fd-d0af1226b7de"
        }
      }, {
        "item": {
          "reference": "urn:uuid:fa792190-d8de-4613-acc7-b356c9989eb1"
        }
      }, {
        "item": {
          "reference": "urn:uuid:b4124775-0ed7-4b14-a8ab-09dbcf94d156"
        }
      }, {
        "item": {
          "reference": "urn:uuid:ddf7f092-36c3-407c-ab2f-dbd080a87c3a"
        }
      }, {
        "item": {
          "reference": "urn:uuid:866a0d09-78e1-4e9e-9e69-15bc21d45a11"
        }
      }, {
        "item": {
          "reference": "urn:uuid:8e113e48-bb2d-418e-8395-619b5e71bddf"
        }
      }, {
        "item": {
          "reference": "urn:uuid:2a0ab6eb-cfda-4789-82a6-9ec77eecf687"
        }
      }, {
        "item": {
          "reference": "urn:uuid:83bbde9e-1163-46a0-b595-27aed3fb90a1"
        }
      }, {
        "item": {
          "reference": "urn:uuid:3a2614a3-1fd7-4db9-988e-6074b8c6fe18"
        }
      }, {
        "item": {
          "reference": "urn:uuid:22a26b26-66bb-45b5-a833-52ec27739c63"
        }
      }, {
        "item": {
          "reference": "urn:uuid:eb1c7876-1b68-49d6-8fe4-6cc8bee52297"
        }
      }, {
        "item": {
          "reference": "urn:uuid:04074c6e-6b2a-41d6-a44a-80c38bb4a6e5"
        }
      }, {
        "item": {
          "reference": "urn:uuid:143fe1ee-ab1c-45ae-9291-b7bde5c79e1a"
        }
      }, {
        "item": {
          "reference": "urn:uuid:8880f52c-6863-4baf-9f9e-f0ddfbb4b0f9"
        }
      }, {
        "item": {
          "reference": "urn:uuid:5979a42a-3ce4-431e-b5b7-9d018359c7da"
        }
      }, {
        "item": {
          "reference": "urn:uuid:f3a3b3d8-37ed-4d24-a999-0c45d9fdc622"
        }
      }, {
        "item": {
          "reference": "urn:uuid:1f443841-bc7c-4104-8a1a-07c32bcd0046"
        }
      }, {
        "item": {
          "reference": "urn:uuid:4bf02ccd-90fe-4fed-bc0f-1893bd8cf5a8"
        }
      }, {
        "item": {
          "reference": "urn:uuid:448ef271-c017-440e-9c32-520268c54c4c"
        }
      }, {
        "item": {
          "reference": "urn:uuid:5b343805-b38e-479e-b8d1-0680e8767ef4"
        }
      }, {
        "item": {
          "reference": "urn:uuid:661a7a24-cc36-4c9b-a0b0-2be6cb157c7f"
        }
      }, {
        "item": {
          "reference": "urn:uuid:73409141-589c-4726-b4c1-05db1c06cd47"
        }
      }, {
        "item": {
          "reference": "urn:uuid:173e1c8a-36a2-4c19-b6a0-e8947a4ad022"
        }
      }, {
        "item": {
          "reference": "urn:uuid:09674ac9-f524-43cd-af36-8182b65f52cb"
        }
      }, {
        "item": {
          "reference": "urn:uuid:a8645a8d-5533-45f4-a441-1c42d785fded"
        }
      }, {
        "item": {
          "reference": "urn:uuid:53849b24-8114-41fa-a71f-7048d226364c"
        }
      }, {
        "item": {
          "reference": "urn:uuid:77a5da8b-2a29-4aca-970b-84958ed5b72f"
        }
      }, {
        "item": {
          "reference": "urn:uuid:3ab67115-2e6d-447e-9bc5-b660946b0d31"
        }
      }, {
        "item": {
          "reference": "urn:uuid:bd60f7c8-0ab1-4437-a6da-dae54b260304"
        }
      }, {
        "item": {
          "reference": "urn:uuid:baeba37c-356e-4978-85c2-b8bba43480a3"
        }
      }, {
        "item": {
          "reference": "urn:uuid:7aca8bca-25ae-460f-bf7e-50dde39ac20d"
        }
      }, {
        "item": {
          "reference": "urn:uuid:0ca93a9c-2785-4638-9b86-209c176a9ba6"
        }
      }, {
        "item": {
          "reference": "urn:uuid:d7516633-e1f5-4528-8635-1db43e30a584"
        }
      }, {
        "item": {
          "reference": "urn:uuid:9d64df78-2a46-4ebc-9de5-ef9fc993652a"
        }
      }, {
        "item": {
          "reference": "urn:uuid:fc434065-9a69-488e-b97a-7b3d5e33a08a"
        }
      }, {
        "item": {
          "reference": "urn:uuid:728a1f74-609a-4712-89a3-483a54596433"
        }
      }, {
        "item": {
          "reference": "urn:uuid:09f26c0c-06a6-4b53-92fa-fa441c452181"
        }
      }, {
        "item": {
          "reference": "urn:uuid:6e0f91ee-5552-44c2-86a4-96cb9e61fb2a"
        }
      }, {
        "item": {
          "reference": "urn:uuid:c1d4157b-2121-49e9-82b4-fa15599be5bf"
        }
      }, {
        "item": {
          "reference": "urn:uuid:044141a9-c019-4589-a7e4-7f2baf18b953"
        }
      }, {
        "item": {
          "reference": "urn:uuid:cc12b483-99a1-4be8-8558-17986bd834ba"
        }
      }, {
        "item": {
          "reference": "urn:uuid:973859fe-a2a7-4c04-a040-daf5d439d577"
        }
      }, {
        "item": {
          "reference": "urn:uuid:965463ac-fef8-4a10-b99f-d3b98347923b"
        }
      }, {
        "item": {
          "reference": "urn:uuid:14805c34-1a94-4190-9d1d-3be7960432c9"
        }
      }, {
        "item": {
          "reference": "urn:uuid:98dec258-e232-489c-8c5e-4d31cbd42660"
        }
      }, {
        "item": {
          "reference": "urn:uuid:94cdd6b8-72ee-4d22-82c9-576d0f021222"
        }
      }, {
        "item": {
          "reference": "urn:uuid:81dd0cc5-ea4b-4064-8203-923401009df8"
        }
      }, {
        "item": {
          "reference": "urn:uuid:d1949862-2306-4fcd-b77f-49fa3da50327"
        }
      }, {
        "item": {
          "reference": "urn:uuid:699b864b-7e32-4b0c-a13a-e5288dc8d682"
        }
      }, {
        "item": {
          "reference": "urn:uuid:70795ea0-ee1f-4f2c-a318-19efbc0a8e71"
        }
      }, {
        "item": {
          "reference": "urn:uuid:857912a4-76a3-4624-a959-4e77c20332c6"
        }
      }, {
        "item": {
          "reference": "urn:uuid:5206ee45-6d8c-42db-9c6f-c8d121ffcaca"
        }
      }, {
        "item": {
          "reference": "urn:uuid:92e4509b-cc1b-470f-bddc-504473771b01"
        }
      }, {
        "item": {
          "reference": "urn:uuid:4c59a61b-0c2a-4ec9-b29d-771b9aa2c001"
        }
      }, {
        "item": {
          "reference": "urn:uuid:8d2fcb7a-7d6d-4e20-b868-d980e78ef310"
        }
      }, {
        "item": {
          "reference": "urn:uuid:cb929781-70da-4dd3-b6f6-36ad134f588b"
        }
      }, {
        "item": {
          "reference": "urn:uuid:9cccaa1e-1f8e-4e1d-b219-81c8a09d1394"
        }
      }, {
        "item": {
          "reference": "urn:uuid:bec40309-bf7e-4d2f-bda9-9e09cece7758"
        }
      }, {
        "item": {
          "reference": "urn:uuid:77006727-d338-471a-aa5a-a9839fe299c0"
        }
      }, {
        "item": {
          "reference": "urn:uuid:aaf52d61-44aa-4578-9a1a-d46410384a90"
        }
      }, {
        "item": {
          "reference": "urn:uuid:8fa71161-bfc3-4b59-b980-0199c13baac5"
        }
      } ]
    }
  } ]
}