{
  "resourceType": "Bundle",
  "meta": {
    "lastUpdated": "2022-05-12T07:25:17.677+00:00"
  },
  "identifier": {
    "type": {
      "text": "ClinicalDocument VersionNumber"
    },
    "value": "1"
  },
  "type": "message",
  "entry": [ {
    "fullUrl": "urn:uuid:B447241A-CEBD-41DF-AC62-46FE8022876F",
    "resource": {
      "resourceType": "MessageHeader",
      "id": "B447241A-CEBD-41DF-AC62-46FE8022876F",
      "event": {
        "system": "https://fhir.nhs.uk/STU3/CodeSystem/EventType-1",
        "code": "referral-1",
        "display": "Referral"
      },
      "destination": [ {
        "endpoint": "urn:nhs-uk:addressing:ods:Y02837001:DOSServiceID:1340268940"
      } ],
      "timestamp": "2021-08-03T13:04:53.000+00:00",
      "source": {
        "name": "NHS 111 Adaptor",
        "endpoint": "http://localhost:8080/report"
      },
      "reason": {
        "coding": [ {
          "system": "urn:nhs-itk:ns:201005:interaction",
          "code": "urn:nhs-itk:interaction:primaryOutofHourRecipientNHS111CDADocument-v2-0"
        } ]
      }
    }
  }, {
    "fullUrl": "urn:uuid:4fcac6d7-ab58-41dc-b3a6-340099e4d0ad",
    "resource": {
      "resourceType": "Encounter",
      "id": "4fcac6d7-ab58-41dc-b3a6-340099e4d0ad",
      "identifier": [ {
        "system": "2.16.840.1.113883.2.1.3.2.4.18.49",
        "value": "0163118D-0756-4A98-8F34-458721C6481F"
      }, {
        "system": "2.16.840.1.113883.2.1.3.2.4.18.34",
        "value": "1766749"
      }, {
        "system": "2.16.840.1.113883.2.1.3.2.4.18.35",
        "value": "1766749"
      } ],
      "status": "finished",
      "type": [ {
        "text": "111 Encounter Referral"
      } ],
      "subject": {
        "reference": "urn:uuid:ff9c2208-39aa-415e-b4d5-410b2bb23bac"
      },
      "participant": [ {
        "type": [ {
          "coding": [ {
            "system": "http://hl7.org/fhir/ValueSet/encounter-participant-type",
            "code": "PPRF",
            "display": "Author"
          } ]
        } ],
        "individual": {
          "reference": "urn:uuid:6c5d0b08-81fc-4aeb-bd09-bd2228c8c902"
        }
      } ],
      "period": {
        "start": "2021-08-03T12:35:22+00:00",
        "end": "2021-08-03T13:04:53+00:00"
      },
      "location": [ {
        "location": {
          "reference": "urn:uuid:e20f2385-9141-4711-943c-d2e4ac4e98d8"
        },
        "status": "completed"
      } ],
      "serviceProvider": {
        "reference": "urn:uuid:24bde91f-454d-4fdf-a839-813375c14a0d"
      }
    }
  }, {
    "fullUrl": "urn:uuid:24bde91f-454d-4fdf-a839-813375c14a0d",
    "resource": {
      "resourceType": "Organization",
      "id": "24bde91f-454d-4fdf-a839-813375c14a0d",
      "active": true,
      "type": [ {
        "text": "CST"
      } ],
      "name": "NWAS 111"
    }
  }, {
    "fullUrl": "urn:uuid:6c5d0b08-81fc-4aeb-bd09-bd2228c8c902",
    "resource": {
      "resourceType": "Practitioner",
      "id": "6c5d0b08-81fc-4aeb-bd09-bd2228c8c902",
      "active": true,
      "name": [ {
        "text": "AndrewJ.Walford"
      } ]
    }
  }, {
    "fullUrl": "urn:uuid:e20f2385-9141-4711-943c-d2e4ac4e98d8",
    "resource": {
      "resourceType": "Location",
      "id": "e20f2385-9141-4711-943c-d2e4ac4e98d8",
      "address": {
        "type": "physical",
        "line": [ "Fleetwood Health & Wellbeing Centre", "Dock Street", "Fleetwood" ],
        "postalCode": "FY7 6HP"
      }
    }
  }, {
    "fullUrl": "urn:uuid:ff9c2208-39aa-415e-b4d5-410b2bb23bac",
    "resource": {
      "resourceType": "Patient",
      "id": "ff9c2208-39aa-415e-b4d5-410b2bb23bac",
      "active": true,
      "name": [ {
        "use": "official",
        "family": "Please Disregard",
        "given": [ "Dx10 Test" ]
      } ],
      "telecom": [ {
        "system": "phone",
        "value": "tel:07798501130",
        "use": "mobile"
      }, {
        "system": "phone",
        "value": "tel:07798501130"
      } ],
      "gender": "male",
      "birthDate": "1980-01-01",
      "address": [ {
        "use": "home",
        "line": [ "Fleetwood Health & Wellbeing Centre", "Dock Street", "Fleetwood" ],
        "postalCode": "FY7 6HP"
      }, {
        "type": "physical",
        "line": [ "Fleetwood Health & Wellbeing Centre", "Dock Street", "Fleetwood" ],
        "postalCode": "FY7 6HP"
      } ]
    }
  }, {
    "fullUrl": "urn:uuid:cece1946-4032-4640-947f-e6ddb452d394",
    "resource": {
      "resourceType": "HealthcareService",
      "id": "cece1946-4032-4640-947f-e6ddb452d394",
      "active": true,
      "providedBy": {
        "reference": "urn:uuid:8a5f70f6-55ea-4547-9d3a-ec2e831f471d"
      },
      "location": [ {
        "reference": "urn:uuid:be9f7ceb-c890-4e65-be3e-f93936e07b72"
      } ],
      "name": "Urgent Treatment Centre - Minor Injury Unit Same Day Health Cent",
      "telecom": [ {
        "system": "phone",
        "value": "tel:03001231144NP:01253955551",
        "use": "work"
      } ]
    }
  }, {
    "fullUrl": "urn:uuid:be9f7ceb-c890-4e65-be3e-f93936e07b72",
    "resource": {
      "resourceType": "Location",
      "id": "be9f7ceb-c890-4e65-be3e-f93936e07b72",
      "telecom": [ {
        "system": "phone",
        "value": "tel:03001231144NP:01253955551",
        "use": "work"
      } ],
      "address": {
        "use": "work",
        "line": [ "x", "x", "x" ],
        "postalCode": "FY7 6HP"
      },
      "managingOrganization": {
        "reference": "urn:uuid:8a5f70f6-55ea-4547-9d3a-ec2e831f471d"
      }
    }
  }, {
    "fullUrl": "urn:uuid:8a5f70f6-55ea-4547-9d3a-ec2e831f471d",
    "resource": {
      "resourceType": "Organization",
      "id": "8a5f70f6-55ea-4547-9d3a-ec2e831f471d",
      "identifier": [ {
        "value": "Y02837001"
      } ],
      "type": [ {
        "coding": [ {
          "code": "PRCP",
          "display": "Urgent Treatment Centre - Minor Injury Unit Same Day Health Cent"
        } ]
      } ],
      "name": "Urgent Treatment Centre - Minor Injury Unit Same Day Health Cent"
    }
  }, {
    "fullUrl": "urn:uuid:6173e095-a4c9-4d8b-82fd-41bbcb8d433f",
    "resource": {
      "resourceType": "ReferralRequest",
      "id": "6173e095-a4c9-4d8b-82fd-41bbcb8d433f",
      "status": "active",
      "intent": "plan",
      "priority": "routine",
      "subject": {
        "reference": "urn:uuid:ff9c2208-39aa-415e-b4d5-410b2bb23bac"
      },
      "context": {
        "reference": "urn:uuid:4fcac6d7-ab58-41dc-b3a6-340099e4d0ad"
      },
      "occurrencePeriod": {
        "start": "2021-08-03T13:04:53+00:00"
      },
      "authoredOn": "2021-08-03T12:35:22+00:00",
      "requester": {
        "agent": {
          "reference": "urn:uuid:23a94560-b1f9-4e26-814d-57fe679f17a5"
        },
        "onBehalfOf": {
          "reference": "urn:uuid:24bde91f-454d-4fdf-a839-813375c14a0d"
        }
      },
      "recipient": [ {
        "reference": "urn:uuid:cd1c3188-27bc-4137-b8e6-5789274541f3"
      }, {
        "reference": "urn:uuid:cece1946-4032-4640-947f-e6ddb452d394"
      } ],
      "reasonReference": [ {
        "reference": "urn:uuid:a308380d-5242-4776-b493-6489bbe34fe6"
      } ],
      "supportingInfo": [ {
        "reference": "urn:uuid:1ce68196-87e7-4b7d-a5a0-d720e393c9af"
      } ]
    }
  }, {
    "fullUrl": "urn:uuid:1ce68196-87e7-4b7d-a5a0-d720e393c9af",
    "resource": {
      "resourceType": "ProcedureRequest",
      "id": "1ce68196-87e7-4b7d-a5a0-d720e393c9af",
      "status": "active",
      "intent": "plan",
      "priority": "routine",
      "doNotPerform": false,
      "code": {
        "coding": [ {
          "system": "2.16.840.1.113883.2.1.3.2.4.17.325",
          "code": "Dx10",
          "display": "Must Contact A Local Service For A Non-urgent Appointment"
        } ]
      },
      "subject": {
        "reference": "urn:uuid:ff9c2208-39aa-415e-b4d5-410b2bb23bac"
      },
      "occurrencePeriod": {
        "start": "2021-08-03T13:04:53+00:00"
      },
      "reasonReference": [ {
        "reference": "urn:uuid:a308380d-5242-4776-b493-6489bbe34fe6"
      } ]
    }
  }, {
    "fullUrl": "urn:uuid:cd1c3188-27bc-4137-b8e6-5789274541f3",
    "resource": {
      "resourceType": "Practitioner",
      "id": "cd1c3188-27bc-4137-b8e6-5789274541f3",
      "active": true,
      "telecom": [ {
        "system": "phone",
        "value": "tel:03001231144NP:01253955551",
        "use": "work"
      } ],
      "address": [ {
        "type": "physical",
        "line": [ "x", "x", "x" ],
        "postalCode": "FY7 6HP"
      } ]
    }
  }, {
    "fullUrl": "urn:uuid:aeaf30d5-f83c-4023-bf05-43bcd5e44c27",
    "resource": {
      "resourceType": "Composition",
      "id": "aeaf30d5-f83c-4023-bf05-43bcd5e44c27",
      "identifier": {
        "use": "usual",
        "value": "DEF337D1-08BF-4631-B11E-28F64349A031"
      },
      "status": "final",
      "type": {
        "coding": [ {
          "system": "http://snomed.info/sct",
          "code": "371531000",
          "display": "Report of clinical encounter (record artifact)"
        } ]
      },
      "subject": {
        "reference": "urn:uuid:ff9c2208-39aa-415e-b4d5-410b2bb23bac"
      },
      "encounter": {
        "reference": "urn:uuid:4fcac6d7-ab58-41dc-b3a6-340099e4d0ad"
      },
      "date": "2021-08-03T13:04:53+00:00",
      "author": [ {
        "reference": "urn:uuid:6c5d0b08-81fc-4aeb-bd09-bd2228c8c902"
      } ],
      "title": "111 Report",
      "confidentiality": "N",
      "section": [ {
        "section": [ {
          "title": "Patient's Reported Condition",
          "text": {
            "status": "generated",
            "div": "<div xmlns=\"http://www.w3.org/1999/xhtml\">**test From Nwas111 - No Action Required - Please Disregard Test</div>"
          }
        }, {
          "title": "Case Summary",
          "text": {
            "status": "generated",
            "div": "<div xmlns=\"http://www.w3.org/1999/xhtml\">&lt;content styleCode=&quot;bold&quot;&gt;Pathways Disposition: Dx10&lt;/content&gt;\n                                                    &lt;br/&gt;\n                                                    &lt;content&gt;Must Contact A Local Service For A Non-urgent Appointment User comment - '**Test From NWAS111 - No Action required - Please Disregard Test case**'&lt;/content&gt;\n                                                    &lt;br/&gt;\n                                                    &lt;br/&gt;\n                                                    &lt;content styleCode=&quot;bold&quot;&gt;Consultation Summary:&lt;/content&gt;\n                                                    &lt;br/&gt;\n                                                    &lt;content&gt;Illness - '**Test From NWAS111 - No Action required - Please Disregard Test case**'&lt;/content&gt;\n                                                    &lt;br/&gt;\n                                                    &lt;content&gt;Warm to touch&lt;/content&gt;\n                                                    &lt;br/&gt;\n                                                    &lt;br/&gt;\n                                                    &lt;content styleCode=&quot;bold&quot;&gt;Pathways Assessment:&lt;/content&gt;\n                                                    &lt;br/&gt;\n                                                    &lt;content&gt;An injury or health problem was the reason for the contact.&lt;/content&gt;\n                                                    &lt;br/&gt;\n                                                    &lt;content&gt;User comment - '**Test From NWAS111 - No Action required - Please Disregard Test case**'&lt;/content&gt;\n                                                    &lt;br/&gt;\n                                                    &lt;content&gt;Heavy bleeding had not occurred in the previous 2 hours.&lt;/content&gt;\n                                                    &lt;br/&gt;\n                                                    &lt;content&gt;An illness or health problem was the main problem.&lt;/content&gt;\n                                                    &lt;br/&gt;\n                                                    &lt;content&gt;User comment - '**Test From NWAS111 - No Action required - Please Disregard Test case**'&lt;/content&gt;\n                                                    &lt;br/&gt;\n                                                    &lt;content&gt;The individual was not fighting for breath.&lt;/content&gt;\n                                                    &lt;br/&gt;\n                                                    &lt;content&gt;The main reason for the assessment was not an allergic reaction, heart attack, chest/upper back pain, probable stroke, recent fit/seizure or suicide attempt.&lt;/content&gt;\n                                                    &lt;br/&gt;\n                                                    &lt;content&gt;The main reason for contact was not new confusion, declared diabetic hypo/hyperglycaemia, or ICD shock.&lt;/content&gt;\n                                                    &lt;br/&gt;\n                                                    &lt;content&gt;The skin on the torso felt normal, warm or hot.&lt;/content&gt;\n                                                    &lt;br/&gt;\n                                                    &lt;content&gt;Pathway selected - Difficulty Passing Urine&lt;/content&gt;\n                                                    &lt;br/&gt;\n                                                    &lt;content&gt;The individual was able to carry out most or all normal activities.&lt;/content&gt;\n                                                    &lt;br/&gt;\n                                                    &lt;content&gt;There was no new loss of bowel control or leg movement and no saddle or lower limb paraesthesia.&lt;/content&gt;\n                                                    &lt;br/&gt;\n                                                    &lt;content&gt;There was no inability to pass urine over the last 12 hours.&lt;/content&gt;\n                                                    &lt;br/&gt;\n                                                    &lt;content&gt;There was no new or worsening confusion.&lt;/content&gt;\n                                                    &lt;br/&gt;\n                                                    &lt;content&gt;Breathing harder or faster when doing nothing was not described.&lt;/content&gt;\n                                                    &lt;br/&gt;\n                                                    &lt;content&gt;There was no spinal pain.&lt;/content&gt;\n                                                    &lt;br/&gt;\n                                                    &lt;content&gt;The pain was not getting worse.&lt;/content&gt;\n                                                    &lt;br/&gt;\n                                                    &lt;content&gt;There was no fever at the time of assessment or within the previous 12 hours.&lt;/content&gt;\n                                                    &lt;br/&gt;\n                                                    &lt;content&gt;The individual had not experienced a back injury within the previous 4 weeks.&lt;/content&gt;\n                                                    &lt;br/&gt;\n                                                    &lt;content&gt;Medication type or dosage had not changed within the previous 2 weeks.&lt;/content&gt;\n                                                    &lt;br/&gt;\n                                                    &lt;content&gt;User comment - 'Urgent Treatment Centre - Same Day Health Centre - Fleetwood'&lt;/content&gt;\n                                                    &lt;br/&gt;\n                                                    &lt;br/&gt;\n                                                    &lt;content styleCode=&quot;bold&quot;&gt;Advice Given:&lt;/content&gt;\n                                                    &lt;br/&gt;\n                                                    &lt;content&gt;Unless advised not to, paracetamol may be used to relieve pain or fever. Follow the instructions in the pack. If in doubt ask a pharmacist.&lt;/content&gt;\n                                                    &lt;br/&gt;\n                                                    &lt;br/&gt;</div>"
          }
        } ]
      }, {
        "title": "ReferralRequest",
        "entry": [ {
          "reference": "urn:uuid:6173e095-a4c9-4d8b-82fd-41bbcb8d433f"
        } ]
      }, {
        "title": "QuestionnaireResponse",
        "entry": [ {
          "reference": "urn:uuid:0002a4ff-4a74-4900-b615-5c806693aedb"
        } ]
      }, {
        "title": "QuestionnaireResponse",
        "entry": [ {
          "reference": "urn:uuid:1b362c02-b47c-4223-b86a-e8527030cee3"
        } ]
      }, {
        "title": "QuestionnaireResponse",
        "entry": [ {
          "reference": "urn:uuid:7f61dbd7-81f8-4467-8251-93ba97a6041b"
        } ]
      }, {
        "title": "QuestionnaireResponse",
        "entry": [ {
          "reference": "urn:uuid:3923a58c-93e5-45a2-a15a-3be16b6238d1"
        } ]
      }, {
        "title": "QuestionnaireResponse",
        "entry": [ {
          "reference": "urn:uuid:18827841-eaed-4504-8d4e-dda7537c7be5"
        } ]
      }, {
        "title": "QuestionnaireResponse",
        "entry": [ {
          "reference": "urn:uuid:8b1ea961-569d-4137-ac70-88be7c44a336"
        } ]
      }, {
        "title": "QuestionnaireResponse",
        "entry": [ {
          "reference": "urn:uuid:2c864a07-10ea-416a-8a20-ac8623dd9a2f"
        } ]
      }, {
        "title": "QuestionnaireResponse",
        "entry": [ {
          "reference": "urn:uuid:cdf2b8cd-e32a-4096-971b-b1e2980ab454"
        } ]
      }, {
        "title": "QuestionnaireResponse",
        "entry": [ {
          "reference": "urn:uuid:b6cbf045-43d5-4bc6-9646-3467b19f5e89"
        } ]
      }, {
        "title": "QuestionnaireResponse",
        "entry": [ {
          "reference": "urn:uuid:c8591b7f-86c3-4d3c-b419-5de81eced50c"
        } ]
      }, {
        "title": "QuestionnaireResponse",
        "entry": [ {
          "reference": "urn:uuid:a990ce5c-f6d4-4e5f-a1cb-d74b6b7bcc56"
        } ]
      }, {
        "title": "QuestionnaireResponse",
        "entry": [ {
          "reference": "urn:uuid:aa499a5f-3691-4efe-b9e5-5337362adb53"
        } ]
      }, {
        "title": "QuestionnaireResponse",
        "entry": [ {
          "reference": "urn:uuid:ff216abf-4e14-4078-a182-9e2731877a27"
        } ]
      }, {
        "title": "QuestionnaireResponse",
        "entry": [ {
          "reference": "urn:uuid:f9a04d7d-d04e-4737-a76c-3b3bc8966e08"
        } ]
      }, {
        "title": "QuestionnaireResponse",
        "entry": [ {
          "reference": "urn:uuid:2a3fbb8a-77af-4639-8e04-a7a59aaec5cd"
        } ]
      }, {
        "title": "QuestionnaireResponse",
        "entry": [ {
          "reference": "urn:uuid:d989bd61-3bc4-4680-84e8-3b6a6e263290"
        } ]
      }, {
        "title": "QuestionnaireResponse",
        "entry": [ {
          "reference": "urn:uuid:8ef7c78c-6a90-43aa-86c7-05431f423571"
        } ]
      }, {
        "title": "QuestionnaireResponse",
        "entry": [ {
          "reference": "urn:uuid:3b2f65b6-81e1-4bb4-a1d6-80caec4bccd4"
        } ]
      }, {
        "title": "QuestionnaireResponse",
        "entry": [ {
          "reference": "urn:uuid:2c96e0b7-b473-4df7-9155-1a46af855d40"
        } ]
      }, {
        "title": "QuestionnaireResponse",
        "entry": [ {
          "reference": "urn:uuid:4058a89b-2155-4ad6-9de1-64688c9a8278"
        } ]
      }, {
        "title": "QuestionnaireResponse",
        "entry": [ {
          "reference": "urn:uuid:27f8b5cc-cbca-4918-ab98-cbcd578eb64b"
        } ]
      }, {
        "title": "QuestionnaireResponse",
        "entry": [ {
          "reference": "urn:uuid:b9ccb02c-7ee9-4edc-ac4f-007cbefaa71e"
        } ]
      }, {
        "title": "QuestionnaireResponse",
        "entry": [ {
          "reference": "urn:uuid:b0524566-73da-4ed3-9e50-560f87305b71"
        } ]
      }, {
        "title": "QuestionnaireResponse",
        "entry": [ {
          "reference": "urn:uuid:c0e8406c-e759-4134-a347-f883cb8bae2d"
        } ]
      }, {
        "title": "QuestionnaireResponse",
        "entry": [ {
          "reference": "urn:uuid:5175359d-6e37-40a6-bccb-eeba17022e4d"
        } ]
      }, {
        "title": "QuestionnaireResponse",
        "entry": [ {
          "reference": "urn:uuid:6cc1b93d-5baf-4040-a529-e6f904f84194"
        } ]
      }, {
        "title": "QuestionnaireResponse",
        "entry": [ {
          "reference": "urn:uuid:7405700f-afa6-4da8-b375-369ccc877ee5"
        } ]
      }, {
        "title": "QuestionnaireResponse",
        "entry": [ {
          "reference": "urn:uuid:27b09f1c-864e-4ff5-843e-0ad45ec3c70a"
        } ]
      }, {
        "title": "QuestionnaireResponse",
        "entry": [ {
          "reference": "urn:uuid:e921f8b7-d394-4279-a565-81aadd769fc1"
        } ]
      }, {
        "title": "QuestionnaireResponse",
        "entry": [ {
          "reference": "urn:uuid:3b7bdf0c-ebe2-45a0-8453-e0b4d8a3a46a"
        } ]
      }, {
        "title": "QuestionnaireResponse",
        "entry": [ {
          "reference": "urn:uuid:dedb7ba3-eb32-480d-815b-cf01525666fc"
        } ]
      }, {
        "title": "QuestionnaireResponse",
        "entry": [ {
          "reference": "urn:uuid:86389514-5a47-44ad-9605-1d02b34ef915"
        } ]
      } ]
    }
  }, {
    "fullUrl": "urn:uuid:2a31341d-845e-4a02-81fc-842a9fcf6a90",
    "resource": {
      "resourceType": "Consent",
      "id": "2a31341d-845e-4a02-81fc-842a9fcf6a90",
      "identifier": {
        "use": "usual",
        "value": "DEF337D1-08BF-4631-B11E-28F64349A031"
      },
      "status": "active",
      "patient": {
        "reference": "urn:uuid:ff9c2208-39aa-415e-b4d5-410b2bb23bac"
      },
      "period": {
        "start": "2021-08-03T12:35:22+00:00",
        "end": "2021-08-03T13:04:53+00:00"
      },
      "consentingParty": [ {
        "reference": "urn:uuid:ff9c2208-39aa-415e-b4d5-410b2bb23bac"
      } ],
      "action": [ {
        "coding": [ {
          "system": "http://snomed.info/sct",
          "code": "425691002",
          "display": "Consent given for electronic record sharing"
        } ],
        "text": "Consent given for electronic record sharing"
      } ],
      "organization": [ {
        "reference": "urn:uuid:24bde91f-454d-4fdf-a839-813375c14a0d"
      } ],
      "policyRule": "http://hl7.org/fhir/ConsentPolicy/opt-out",
      "data": [ {
        "meaning": "related",
        "reference": {
          "reference": "urn:uuid:4fcac6d7-ab58-41dc-b3a6-340099e4d0ad"
        }
      } ]
    }
  }, {
    "fullUrl": "urn:uuid:a308380d-5242-4776-b493-6489bbe34fe6",
    "resource": {
      "resourceType": "Condition",
      "id": "a308380d-5242-4776-b493-6489bbe34fe6",
      "clinicalStatus": "active",
      "verificationStatus": "unknown",
      "subject": {
        "reference": "urn:uuid:ff9c2208-39aa-415e-b4d5-410b2bb23bac"
      },
      "context": {
        "reference": "urn:uuid:4fcac6d7-ab58-41dc-b3a6-340099e4d0ad"
      },
      "evidence": [ {
        "detail": [ {
          "reference": "urn:uuid:0002a4ff-4a74-4900-b615-5c806693aedb"
        } ]
      }, {
        "detail": [ {
          "reference": "urn:uuid:1b362c02-b47c-4223-b86a-e8527030cee3"
        } ]
      }, {
        "detail": [ {
          "reference": "urn:uuid:7f61dbd7-81f8-4467-8251-93ba97a6041b"
        } ]
      }, {
        "detail": [ {
          "reference": "urn:uuid:3923a58c-93e5-45a2-a15a-3be16b6238d1"
        } ]
      }, {
        "detail": [ {
          "reference": "urn:uuid:18827841-eaed-4504-8d4e-dda7537c7be5"
        } ]
      }, {
        "detail": [ {
          "reference": "urn:uuid:8b1ea961-569d-4137-ac70-88be7c44a336"
        } ]
      }, {
        "detail": [ {
          "reference": "urn:uuid:2c864a07-10ea-416a-8a20-ac8623dd9a2f"
        } ]
      }, {
        "detail": [ {
          "reference": "urn:uuid:cdf2b8cd-e32a-4096-971b-b1e2980ab454"
        } ]
      }, {
        "detail": [ {
          "reference": "urn:uuid:b6cbf045-43d5-4bc6-9646-3467b19f5e89"
        } ]
      }, {
        "detail": [ {
          "reference": "urn:uuid:c8591b7f-86c3-4d3c-b419-5de81eced50c"
        } ]
      }, {
        "detail": [ {
          "reference": "urn:uuid:a990ce5c-f6d4-4e5f-a1cb-d74b6b7bcc56"
        } ]
      }, {
        "detail": [ {
          "reference": "urn:uuid:aa499a5f-3691-4efe-b9e5-5337362adb53"
        } ]
      }, {
        "detail": [ {
          "reference": "urn:uuid:ff216abf-4e14-4078-a182-9e2731877a27"
        } ]
      }, {
        "detail": [ {
          "reference": "urn:uuid:f9a04d7d-d04e-4737-a76c-3b3bc8966e08"
        } ]
      }, {
        "detail": [ {
          "reference": "urn:uuid:2a3fbb8a-77af-4639-8e04-a7a59aaec5cd"
        } ]
      }, {
        "detail": [ {
          "reference": "urn:uuid:d989bd61-3bc4-4680-84e8-3b6a6e263290"
        } ]
      }, {
        "detail": [ {
          "reference": "urn:uuid:8ef7c78c-6a90-43aa-86c7-05431f423571"
        } ]
      }, {
        "detail": [ {
          "reference": "urn:uuid:3b2f65b6-81e1-4bb4-a1d6-80caec4bccd4"
        } ]
      }, {
        "detail": [ {
          "reference": "urn:uuid:2c96e0b7-b473-4df7-9155-1a46af855d40"
        } ]
      }, {
        "detail": [ {
          "reference": "urn:uuid:4058a89b-2155-4ad6-9de1-64688c9a8278"
        } ]
      }, {
        "detail": [ {
          "reference": "urn:uuid:27f8b5cc-cbca-4918-ab98-cbcd578eb64b"
        } ]
      }, {
        "detail": [ {
          "reference": "urn:uuid:b9ccb02c-7ee9-4edc-ac4f-007cbefaa71e"
        } ]
      }, {
        "detail": [ {
          "reference": "urn:uuid:b0524566-73da-4ed3-9e50-560f87305b71"
        } ]
      }, {
        "detail": [ {
          "reference": "urn:uuid:c0e8406c-e759-4134-a347-f883cb8bae2d"
        } ]
      }, {
        "detail": [ {
          "reference": "urn:uuid:5175359d-6e37-40a6-bccb-eeba17022e4d"
        } ]
      }, {
        "detail": [ {
          "reference": "urn:uuid:6cc1b93d-5baf-4040-a529-e6f904f84194"
        } ]
      }, {
        "detail": [ {
          "reference": "urn:uuid:7405700f-afa6-4da8-b375-369ccc877ee5"
        } ]
      }, {
        "detail": [ {
          "reference": "urn:uuid:27b09f1c-864e-4ff5-843e-0ad45ec3c70a"
        } ]
      }, {
        "detail": [ {
          "reference": "urn:uuid:e921f8b7-d394-4279-a565-81aadd769fc1"
        } ]
      }, {
        "detail": [ {
          "reference": "urn:uuid:3b7bdf0c-ebe2-45a0-8453-e0b4d8a3a46a"
        } ]
      }, {
        "detail": [ {
          "reference": "urn:uuid:dedb7ba3-eb32-480d-815b-cf01525666fc"
        } ]
      }, {
        "detail": [ {
          "reference": "urn:uuid:86389514-5a47-44ad-9605-1d02b34ef915"
        } ]
      } ]
    }
  }, {
    "fullUrl": "urn:uuid:0002a4ff-4a74-4900-b615-5c806693aedb",
    "resource": {
      "resourceType": "QuestionnaireResponse",
      "id": "0002a4ff-4a74-4900-b615-5c806693aedb",
      "identifier": {
        "value": "1766749"
      },
      "questionnaire": {
        "reference": "urn:uuid:f6a62d60-cf69-416b-a114-e0601649b124"
      },
      "status": "completed",
      "subject": {
        "reference": "urn:uuid:ff9c2208-39aa-415e-b4d5-410b2bb23bac"
      },
      "context": {
        "reference": "urn:uuid:4fcac6d7-ab58-41dc-b3a6-340099e4d0ad"
      },
      "authored": "2021-08-03T13:04:53+00:00",
      "item": [ {
        "linkId": "Tx220109",
        "text": "What is the reason for the contact?",
        "answer": [ {
          "valueString": "an injury or other health problem"
        } ]
      } ]
    }
  }, {
    "fullUrl": "urn:uuid:f6a62d60-cf69-416b-a114-e0601649b124",
    "resource": {
      "resourceType": "Questionnaire",
      "id": "f6a62d60-cf69-416b-a114-e0601649b124",
      "identifier": [ {
        "value": "1766749"
      } ],
      "version": "2021-08-03T13:04:53.000Z",
      "status": "active",
      "experimental": false,
      "date": "2021-08-03T13:04:53+00:00",
      "publisher": "User ID: '922' User name: 'AndrewJ.Walford' User skill set: 'T4'",
      "lastReviewDate": "2021-08-03",
      "contact": [ {
        "telecom": [ {
          "system": "phone",
          "value": "07798501130"
        } ]
      } ],
      "subjectType": [ "Patient" ],
      "item": [ {
        "linkId": "1766749",
        "prefix": "5",
        "text": "What is the reason for the contact?",
        "type": "choice",
        "required": true,
        "repeats": false,
        "option": [ {
          "valueString": "an injury or other health problem, Selected: true"
        }, {
          "valueString": "a need to access another healthcare service, Selected: false"
        }, {
          "valueString": "a healthcare professional requesting contact with another clinician, Selected: false"
        }, {
          "valueString": "a report of results or tests, Selected: false"
        }, {
          "valueString": "more, Selected: false"
        } ]
      } ]
    }
  }, {
    "fullUrl": "urn:uuid:1b362c02-b47c-4223-b86a-e8527030cee3",
    "resource": {
      "resourceType": "QuestionnaireResponse",
      "id": "1b362c02-b47c-4223-b86a-e8527030cee3",
      "identifier": {
        "value": "1766749"
      },
      "questionnaire": {
        "reference": "urn:uuid:a7650f78-c476-409d-94f7-30d747ed61cc"
      },
      "status": "completed",
      "subject": {
        "reference": "urn:uuid:ff9c2208-39aa-415e-b4d5-410b2bb23bac"
      },
      "context": {
        "reference": "urn:uuid:4fcac6d7-ab58-41dc-b3a6-340099e4d0ad"
      },
      "authored": "2021-08-03T13:04:53+00:00",
      "item": [ {
        "linkId": "Tx221788",
        "text": "STRING:to'ImmediateThreatsToLife(SPA/OOHversion)'-'ABC'menu",
        "answer": [ {
          "valueString": "\"\"present\"\""
        } ]
      } ]
    }
  }, {
    "fullUrl": "urn:uuid:a7650f78-c476-409d-94f7-30d747ed61cc",
    "resource": {
      "resourceType": "Questionnaire",
      "id": "a7650f78-c476-409d-94f7-30d747ed61cc",
      "identifier": [ {
        "value": "1766749"
      } ],
      "version": "2021-08-03T13:04:53.000Z",
      "status": "active",
      "experimental": false,
      "date": "2021-08-03T13:04:53+00:00",
      "publisher": "User ID: '922' User name: 'AndrewJ.Walford' User skill set: 'T4'",
      "lastReviewDate": "2021-08-03",
      "contact": [ {
        "telecom": [ {
          "system": "phone",
          "value": "07798501130"
        } ]
      } ],
      "subjectType": [ "Patient" ],
      "item": [ {
        "linkId": "1766749",
        "prefix": "500",
        "text": "STRING:to'ImmediateThreatsToLife(SPA/OOHversion)'-'ABC'menu",
        "type": "choice",
        "required": true,
        "repeats": false,
        "option": [ {
          "valueString": "\"\"present\"\", Selected: true"
        } ]
      } ]
    }
  }, {
    "fullUrl": "urn:uuid:7f61dbd7-81f8-4467-8251-93ba97a6041b",
    "resource": {
      "resourceType": "QuestionnaireResponse",
      "id": "7f61dbd7-81f8-4467-8251-93ba97a6041b",
      "identifier": {
        "value": "1766749"
      },
      "questionnaire": {
        "reference": "urn:uuid:a312b643-353c-4cf0-bd3d-8406d97d22a8"
      },
      "status": "completed",
      "subject": {
        "reference": "urn:uuid:ff9c2208-39aa-415e-b4d5-410b2bb23bac"
      },
      "context": {
        "reference": "urn:uuid:4fcac6d7-ab58-41dc-b3a6-340099e4d0ad"
      },
      "authored": "2021-08-03T13:04:53+00:00",
      "item": [ {
        "linkId": "Tx221814",
        "text": "STRING:aninjuryorotherhealthproblemestablishedinEntryFlow",
        "answer": [ {
          "valueString": "\"\"present\"\""
        } ]
      } ]
    }
  }, {
    "fullUrl": "urn:uuid:a312b643-353c-4cf0-bd3d-8406d97d22a8",
    "resource": {
      "resourceType": "Questionnaire",
      "id": "a312b643-353c-4cf0-bd3d-8406d97d22a8",
      "identifier": [ {
        "value": "1766749"
      } ],
      "version": "2021-08-03T13:04:53.000Z",
      "status": "active",
      "experimental": false,
      "date": "2021-08-03T13:04:53+00:00",
      "publisher": "User ID: '922' User name: 'AndrewJ.Walford' User skill set: 'T4'",
      "lastReviewDate": "2021-08-03",
      "contact": [ {
        "telecom": [ {
          "system": "phone",
          "value": "07798501130"
        } ]
      } ],
      "subjectType": [ "Patient" ],
      "item": [ {
        "linkId": "1766749",
        "prefix": "0",
        "text": "STRING:aninjuryorotherhealthproblemestablishedinEntryFlow",
        "type": "choice",
        "required": true,
        "repeats": false,
        "option": [ {
          "valueString": "\"\"present\"\", Selected: true"
        } ]
      } ]
    }
  }, {
    "fullUrl": "urn:uuid:3923a58c-93e5-45a2-a15a-3be16b6238d1",
    "resource": {
      "resourceType": "QuestionnaireResponse",
      "id": "3923a58c-93e5-45a2-a15a-3be16b6238d1",
      "identifier": {
        "value": "1766749"
      },
      "questionnaire": {
        "reference": "urn:uuid:debd4785-79e3-4b82-a8b1-8a04589b3aaf"
      },
      "status": "completed",
      "subject": {
        "reference": "urn:uuid:ff9c2208-39aa-415e-b4d5-410b2bb23bac"
      },
      "context": {
        "reference": "urn:uuid:4fcac6d7-ab58-41dc-b3a6-340099e4d0ad"
      },
      "authored": "2021-08-03T13:04:53+00:00",
      "item": [ {
        "linkId": "Tx224120",
        "text": "Have you been bleeding RED BLOOD very heavily IN THE LAST 2 HOURS?",
        "answer": [ {
          "valueString": "no"
        } ]
      } ]
    }
  }, {
    "fullUrl": "urn:uuid:debd4785-79e3-4b82-a8b1-8a04589b3aaf",
    "resource": {
      "resourceType": "Questionnaire",
      "id": "debd4785-79e3-4b82-a8b1-8a04589b3aaf",
      "identifier": [ {
        "value": "1766749"
      } ],
      "version": "2021-08-03T13:04:53.000Z",
      "status": "active",
      "experimental": false,
      "date": "2021-08-03T13:04:53+00:00",
      "publisher": "User ID: '922' User name: 'AndrewJ.Walford' User skill set: 'T4'",
      "lastReviewDate": "2021-08-03",
      "contact": [ {
        "telecom": [ {
          "system": "phone",
          "value": "07798501130"
        } ]
      } ],
      "subjectType": [ "Patient" ],
      "item": [ {
        "linkId": "1766749",
        "prefix": "7000",
        "text": "Have you been bleeding RED BLOOD very heavily IN THE LAST 2 HOURS?",
        "type": "choice",
        "required": true,
        "repeats": false,
        "option": [ {
          "valueString": "yes, Selected: false"
        }, {
          "valueString": "not sure, Selected: false"
        }, {
          "valueString": "no, Selected: true"
        } ]
      } ]
    }
  }, {
    "fullUrl": "urn:uuid:18827841-eaed-4504-8d4e-dda7537c7be5",
    "resource": {
      "resourceType": "QuestionnaireResponse",
      "id": "18827841-eaed-4504-8d4e-dda7537c7be5",
      "identifier": {
        "value": "1766749"
      },
      "questionnaire": {
        "reference": "urn:uuid:b143f94e-3a6e-47ad-ab56-85d5e29eef35"
      },
      "status": "completed",
      "subject": {
        "reference": "urn:uuid:ff9c2208-39aa-415e-b4d5-410b2bb23bac"
      },
      "context": {
        "reference": "urn:uuid:4fcac6d7-ab58-41dc-b3a6-340099e4d0ad"
      },
      "authored": "2021-08-03T13:04:53+00:00",
      "item": [ {
        "linkId": "Tx221343",
        "text": "SocialConcernsExcluded",
        "answer": [ {
          "valueString": "*"
        } ]
      } ]
    }
  }, {
    "fullUrl": "urn:uuid:b143f94e-3a6e-47ad-ab56-85d5e29eef35",
    "resource": {
      "resourceType": "Questionnaire",
      "id": "b143f94e-3a6e-47ad-ab56-85d5e29eef35",
      "identifier": [ {
        "value": "1766749"
      } ],
      "version": "2021-08-03T13:04:53.000Z",
      "status": "active",
      "experimental": false,
      "date": "2021-08-03T13:04:53+00:00",
      "publisher": "User ID: '922' User name: 'AndrewJ.Walford' User skill set: 'T4'",
      "lastReviewDate": "2021-08-03",
      "contact": [ {
        "telecom": [ {
          "system": "phone",
          "value": "07798501130"
        } ]
      } ],
      "subjectType": [ "Patient" ],
      "item": [ {
        "linkId": "1766749",
        "prefix": "2700",
        "text": "SocialConcernsExcluded",
        "type": "choice",
        "required": true,
        "repeats": false,
        "option": [ {
          "valueString": "==\"\"present\"\", Selected: false"
        }, {
          "valueString": "*, Selected: true"
        } ]
      } ]
    }
  }, {
    "fullUrl": "urn:uuid:8b1ea961-569d-4137-ac70-88be7c44a336",
    "resource": {
      "resourceType": "QuestionnaireResponse",
      "id": "8b1ea961-569d-4137-ac70-88be7c44a336",
      "identifier": {
        "value": "1766749"
      },
      "questionnaire": {
        "reference": "urn:uuid:969aca15-57f7-48a7-a7e4-df5504caa9d1"
      },
      "status": "completed",
      "subject": {
        "reference": "urn:uuid:ff9c2208-39aa-415e-b4d5-410b2bb23bac"
      },
      "context": {
        "reference": "urn:uuid:4fcac6d7-ab58-41dc-b3a6-340099e4d0ad"
      },
      "authored": "2021-08-03T13:04:53+00:00",
      "item": [ {
        "linkId": "Tx130011",
        "text": "What is the main problem?",
        "answer": [ {
          "valueString": "illness or other health problem (specify)"
        } ]
      } ]
    }
  }, {
    "fullUrl": "urn:uuid:969aca15-57f7-48a7-a7e4-df5504caa9d1",
    "resource": {
      "resourceType": "Questionnaire",
      "id": "969aca15-57f7-48a7-a7e4-df5504caa9d1",
      "identifier": [ {
        "value": "1766749"
      } ],
      "version": "2021-08-03T13:04:53.000Z",
      "status": "active",
      "experimental": false,
      "date": "2021-08-03T13:04:53+00:00",
      "publisher": "User ID: '922' User name: 'AndrewJ.Walford' User skill set: 'T4'",
      "lastReviewDate": "2021-08-03",
      "contact": [ {
        "telecom": [ {
          "system": "phone",
          "value": "07798501130"
        } ]
      } ],
      "subjectType": [ "Patient" ],
      "item": [ {
        "linkId": "1766749",
        "prefix": "3400",
        "text": "What is the main problem?",
        "type": "choice",
        "required": true,
        "repeats": false,
        "option": [ {
          "valueString": "the individual has been told to follow a particular course of action (specify), Selected: false"
        }, {
          "valueString": "the individual is an identified frequent caller, Selected: false"
        }, {
          "valueString": "injury (specify), Selected: false"
        }, {
          "valueString": "illness or other health problem (specify), Selected: true"
        }, {
          "valueString": "child protection/vulnerable adult concern, Selected: false"
        }, {
          "valueString": "social or domestic emergency, Selected: false"
        }, {
          "valueString": "the environment potentially poses an immediate threat to life (specify), Selected: false"
        } ]
      } ]
    }
  }, {
    "fullUrl": "urn:uuid:2c864a07-10ea-416a-8a20-ac8623dd9a2f",
    "resource": {
      "resourceType": "QuestionnaireResponse",
      "id": "2c864a07-10ea-416a-8a20-ac8623dd9a2f",
      "identifier": {
        "value": "1766749"
      },
      "questionnaire": {
        "reference": "urn:uuid:211c238e-ac2b-4ca2-ad23-eec17bd6006d"
      },
      "status": "completed",
      "subject": {
        "reference": "urn:uuid:ff9c2208-39aa-415e-b4d5-410b2bb23bac"
      },
      "context": {
        "reference": "urn:uuid:4fcac6d7-ab58-41dc-b3a6-340099e4d0ad"
      },
      "authored": "2021-08-03T13:04:53+00:00",
      "item": [ {
        "linkId": "Tx61025",
        "text": "Are you so breathless that speaking more than a few words is impossible?",
        "answer": [ {
          "valueString": "no"
        } ]
      } ]
    }
  }, {
    "fullUrl": "urn:uuid:211c238e-ac2b-4ca2-ad23-eec17bd6006d",
    "resource": {
      "resourceType": "Questionnaire",
      "id": "211c238e-ac2b-4ca2-ad23-eec17bd6006d",
      "identifier": [ {
        "value": "1766749"
      } ],
      "version": "2021-08-03T13:04:53.000Z",
      "status": "active",
      "experimental": false,
      "date": "2021-08-03T13:04:53+00:00",
      "publisher": "User ID: '922' User name: 'AndrewJ.Walford' User skill set: 'T4'",
      "lastReviewDate": "2021-08-03",
      "contact": [ {
        "telecom": [ {
          "system": "phone",
          "value": "07798501130"
        } ]
      } ],
      "subjectType": [ "Patient" ],
      "item": [ {
        "linkId": "1766749",
        "prefix": "0",
        "text": "Are you so breathless that speaking more than a few words is impossible?",
        "type": "choice",
        "required": true,
        "repeats": false,
        "option": [ {
          "valueString": "yes, Selected: false"
        }, {
          "valueString": "not sure, Selected: false"
        }, {
          "valueString": "no, Selected: true"
        } ]
      } ]
    }
  }, {
    "fullUrl": "urn:uuid:cdf2b8cd-e32a-4096-971b-b1e2980ab454",
    "resource": {
      "resourceType": "QuestionnaireResponse",
      "id": "cdf2b8cd-e32a-4096-971b-b1e2980ab454",
      "identifier": {
        "value": "1766749"
      },
      "questionnaire": {
        "reference": "urn:uuid:bd87770c-738e-4d0a-8a01-0914ae9afbf5"
      },
      "status": "completed",
      "subject": {
        "reference": "urn:uuid:ff9c2208-39aa-415e-b4d5-410b2bb23bac"
      },
      "context": {
        "reference": "urn:uuid:4fcac6d7-ab58-41dc-b3a6-340099e4d0ad"
      },
      "authored": "2021-08-03T13:04:53+00:00",
      "item": [ {
        "linkId": "Tx220845",
        "text": "SYSTEM_FLUPANDEMIC",
        "answer": [ {
          "valueString": "*"
        } ]
      } ]
    }
  }, {
    "fullUrl": "urn:uuid:bd87770c-738e-4d0a-8a01-0914ae9afbf5",
    "resource": {
      "resourceType": "Questionnaire",
      "id": "bd87770c-738e-4d0a-8a01-0914ae9afbf5",
      "identifier": [ {
        "value": "1766749"
      } ],
      "version": "2021-08-03T13:04:53.000Z",
      "status": "active",
      "experimental": false,
      "date": "2021-08-03T13:04:53+00:00",
      "publisher": "User ID: '922' User name: 'AndrewJ.Walford' User skill set: 'T4'",
      "lastReviewDate": "2021-08-03",
      "contact": [ {
        "telecom": [ {
          "system": "phone",
          "value": "07798501130"
        } ]
      } ],
      "subjectType": [ "Patient" ],
      "item": [ {
        "linkId": "1766749",
        "prefix": "100",
        "text": "SYSTEM_FLUPANDEMIC",
        "type": "choice",
        "required": true,
        "repeats": false,
        "option": [ {
          "valueString": "==\"\"pandemic\"\", Selected: false"
        }, {
          "valueString": "*, Selected: true"
        } ]
      } ]
    }
  }, {
    "fullUrl": "urn:uuid:b6cbf045-43d5-4bc6-9646-3467b19f5e89",
    "resource": {
      "resourceType": "QuestionnaireResponse",
      "id": "b6cbf045-43d5-4bc6-9646-3467b19f5e89",
      "identifier": {
        "value": "1766749"
      },
      "questionnaire": {
        "reference": "urn:uuid:ecc16ccf-01ae-4cd5-821a-0e8d78b8ebbe"
      },
      "status": "completed",
      "subject": {
        "reference": "urn:uuid:ff9c2208-39aa-415e-b4d5-410b2bb23bac"
      },
      "context": {
        "reference": "urn:uuid:4fcac6d7-ab58-41dc-b3a6-340099e4d0ad"
      },
      "authored": "2021-08-03T13:04:53+00:00",
      "item": [ {
        "linkId": "Tx223440",
        "text": "WHAT IS SAID TO BE THE MAIN REASON FOR THIS CONTACT?",
        "answer": [ {
          "valueString": "more"
        } ]
      } ]
    }
  }, {
    "fullUrl": "urn:uuid:ecc16ccf-01ae-4cd5-821a-0e8d78b8ebbe",
    "resource": {
      "resourceType": "Questionnaire",
      "id": "ecc16ccf-01ae-4cd5-821a-0e8d78b8ebbe",
      "identifier": [ {
        "value": "1766749"
      } ],
      "version": "2021-08-03T13:04:53.000Z",
      "status": "active",
      "experimental": false,
      "date": "2021-08-03T13:04:53+00:00",
      "publisher": "User ID: '922' User name: 'AndrewJ.Walford' User skill set: 'T4'",
      "lastReviewDate": "2021-08-03",
      "contact": [ {
        "telecom": [ {
          "system": "phone",
          "value": "07798501130"
        } ]
      } ],
      "subjectType": [ "Patient" ],
      "item": [ {
        "linkId": "1766749",
        "prefix": "5000",
        "text": "WHAT IS SAID TO BE THE MAIN REASON FOR THIS CONTACT?",
        "type": "choice",
        "required": true,
        "repeats": false,
        "option": [ {
          "valueString": "a probable allergic reaction now, Selected: false"
        }, {
          "valueString": "a probable heart attack, Selected: false"
        }, {
          "valueString": "chest or upper back pain, Selected: false"
        }, {
          "valueString": "a probable stroke or mini-stroke, Selected: false"
        }, {
          "valueString": "a probable fit or seizure within the last 12 hours, Selected: false"
        }, {
          "valueString": "a suicide attempt, Selected: false"
        }, {
          "valueString": "more, Selected: true"
        } ]
      } ]
    }
  }, {
    "fullUrl": "urn:uuid:c8591b7f-86c3-4d3c-b419-5de81eced50c",
    "resource": {
      "resourceType": "QuestionnaireResponse",
      "id": "c8591b7f-86c3-4d3c-b419-5de81eced50c",
      "identifier": {
        "value": "1766749"
      },
      "questionnaire": {
        "reference": "urn:uuid:11ee93ea-3559-4201-b482-8f8e7d92a4c6"
      },
      "status": "completed",
      "subject": {
        "reference": "urn:uuid:ff9c2208-39aa-415e-b4d5-410b2bb23bac"
      },
      "context": {
        "reference": "urn:uuid:4fcac6d7-ab58-41dc-b3a6-340099e4d0ad"
      },
      "authored": "2021-08-03T13:04:53+00:00",
      "item": [ {
        "linkId": "Tx220032",
        "text": "WHAT IS SAID TO BE THE MAIN REASON FOR THIS CONTACT?",
        "answer": [ {
          "valueString": "none of the above"
        } ]
      } ]
    }
  }, {
    "fullUrl": "urn:uuid:11ee93ea-3559-4201-b482-8f8e7d92a4c6",
    "resource": {
      "resourceType": "Questionnaire",
      "id": "11ee93ea-3559-4201-b482-8f8e7d92a4c6",
      "identifier": [ {
        "value": "1766749"
      } ],
      "version": "2021-08-03T13:04:53.000Z",
      "status": "active",
      "experimental": false,
      "date": "2021-08-03T13:04:53+00:00",
      "publisher": "User ID: '922' User name: 'AndrewJ.Walford' User skill set: 'T4'",
      "lastReviewDate": "2021-08-03",
      "contact": [ {
        "telecom": [ {
          "system": "phone",
          "value": "07798501130"
        } ]
      } ],
      "subjectType": [ "Patient" ],
      "item": [ {
        "linkId": "1766749",
        "prefix": "1900",
        "text": "WHAT IS SAID TO BE THE MAIN REASON FOR THIS CONTACT?",
        "type": "choice",
        "required": true,
        "repeats": false,
        "option": [ {
          "valueString": "new confusion now, Selected: false"
        }, {
          "valueString": "a diabetic hypo (low blood sugar) or a diabetic hyper (high blood sugar), Selected: false"
        }, {
          "valueString": "recovery from an ICD (implanted cardioverter defibrillator) shock, Selected: false"
        }, {
          "valueString": "none of the above, Selected: true"
        } ]
      } ]
    }
  }, {
    "fullUrl": "urn:uuid:a990ce5c-f6d4-4e5f-a1cb-d74b6b7bcc56",
    "resource": {
      "resourceType": "QuestionnaireResponse",
      "id": "a990ce5c-f6d4-4e5f-a1cb-d74b6b7bcc56",
      "identifier": {
        "value": "1766749"
      },
      "questionnaire": {
        "reference": "urn:uuid:606cf672-0281-4a09-97dc-21e1053508fe"
      },
      "status": "completed",
      "subject": {
        "reference": "urn:uuid:ff9c2208-39aa-415e-b4d5-410b2bb23bac"
      },
      "context": {
        "reference": "urn:uuid:4fcac6d7-ab58-41dc-b3a6-340099e4d0ad"
      },
      "authored": "2021-08-03T13:04:53+00:00",
      "item": [ {
        "linkId": "Tx223142",
        "text": "Does the skin on the chest, back or abdomen feel a normal temperature?",
        "answer": [ {
          "valueString": "yes - normal, warm or hot"
        } ]
      } ]
    }
  }, {
    "fullUrl": "urn:uuid:606cf672-0281-4a09-97dc-21e1053508fe",
    "resource": {
      "resourceType": "Questionnaire",
      "id": "606cf672-0281-4a09-97dc-21e1053508fe",
      "identifier": [ {
        "value": "1766749"
      } ],
      "version": "2021-08-03T13:04:53.000Z",
      "status": "active",
      "experimental": false,
      "date": "2021-08-03T13:04:53+00:00",
      "publisher": "User ID: '922' User name: 'AndrewJ.Walford' User skill set: 'T4'",
      "lastReviewDate": "2021-08-03",
      "contact": [ {
        "telecom": [ {
          "system": "phone",
          "value": "07798501130"
        } ]
      } ],
      "subjectType": [ "Patient" ],
      "item": [ {
        "linkId": "1766749",
        "prefix": "4000",
        "text": "Does the skin on the chest, back or abdomen feel a normal temperature?",
        "type": "choice",
        "required": true,
        "repeats": false,
        "option": [ {
          "valueString": "yes - normal, warm or hot, Selected: true"
        }, {
          "valueString": "not sure, Selected: false"
        }, {
          "valueString": "no - cool OR cold, Selected: false"
        }, {
          "valueString": "not safe to touch, Selected: false"
        } ]
      } ]
    }
  }, {
    "fullUrl": "urn:uuid:aa499a5f-3691-4efe-b9e5-5337362adb53",
    "resource": {
      "resourceType": "QuestionnaireResponse",
      "id": "aa499a5f-3691-4efe-b9e5-5337362adb53",
      "identifier": {
        "value": "1766749"
      },
      "questionnaire": {
        "reference": "urn:uuid:df9d1c9a-ca06-4acb-9059-9484bc9521bf"
      },
      "status": "completed",
      "subject": {
        "reference": "urn:uuid:ff9c2208-39aa-415e-b4d5-410b2bb23bac"
      },
      "context": {
        "reference": "urn:uuid:4fcac6d7-ab58-41dc-b3a6-340099e4d0ad"
      },
      "authored": "2021-08-03T13:04:53+00:00",
      "item": [ {
        "linkId": "Tx221724",
        "text": "STRING:ShockAsked",
        "answer": [ {
          "valueString": "\"\"present\"\""
        } ]
      } ]
    }
  }, {
    "fullUrl": "urn:uuid:df9d1c9a-ca06-4acb-9059-9484bc9521bf",
    "resource": {
      "resourceType": "Questionnaire",
      "id": "df9d1c9a-ca06-4acb-9059-9484bc9521bf",
      "identifier": [ {
        "value": "1766749"
      } ],
      "version": "2021-08-03T13:04:53.000Z",
      "status": "active",
      "experimental": false,
      "date": "2021-08-03T13:04:53+00:00",
      "publisher": "User ID: '922' User name: 'AndrewJ.Walford' User skill set: 'T4'",
      "lastReviewDate": "2021-08-03",
      "contact": [ {
        "telecom": [ {
          "system": "phone",
          "value": "07798501130"
        } ]
      } ],
      "subjectType": [ "Patient" ],
      "item": [ {
        "linkId": "1766749",
        "prefix": "3300",
        "text": "STRING:ShockAsked",
        "type": "choice",
        "required": true,
        "repeats": false,
        "option": [ {
          "valueString": "\"\"present\"\", Selected: true"
        } ]
      } ]
    }
  }, {
    "fullUrl": "urn:uuid:ff216abf-4e14-4078-a182-9e2731877a27",
    "resource": {
      "resourceType": "QuestionnaireResponse",
      "id": "ff216abf-4e14-4078-a182-9e2731877a27",
      "identifier": {
        "value": "1766749"
      },
      "questionnaire": {
        "reference": "urn:uuid:aeff8e40-5555-4fbf-bafc-f510960db3ea"
      },
      "status": "completed",
      "subject": {
        "reference": "urn:uuid:ff9c2208-39aa-415e-b4d5-410b2bb23bac"
      },
      "context": {
        "reference": "urn:uuid:4fcac6d7-ab58-41dc-b3a6-340099e4d0ad"
      },
      "authored": "2021-08-03T13:04:53+00:00"
    }
  }, {
    "fullUrl": "urn:uuid:aeff8e40-5555-4fbf-bafc-f510960db3ea",
    "resource": {
      "resourceType": "Questionnaire",
      "id": "aeff8e40-5555-4fbf-bafc-f510960db3ea",
      "identifier": [ {
        "value": "1766749"
      } ],
      "version": "2021-08-03T13:04:53.000Z",
      "status": "active",
      "experimental": false,
      "date": "2021-08-03T13:04:53+00:00",
      "publisher": "User ID: '922' User name: 'AndrewJ.Walford' User skill set: 'T4'",
      "lastReviewDate": "2021-08-03",
      "contact": [ {
        "telecom": [ {
          "system": "phone",
          "value": "07798501130"
        } ]
      } ],
      "subjectType": [ "Patient" ]
    }
  }, {
    "fullUrl": "urn:uuid:f9a04d7d-d04e-4737-a76c-3b3bc8966e08",
    "resource": {
      "resourceType": "QuestionnaireResponse",
      "id": "f9a04d7d-d04e-4737-a76c-3b3bc8966e08",
      "identifier": {
        "value": "1766749"
      },
      "questionnaire": {
        "reference": "urn:uuid:e418882b-ddfe-4dfd-93f5-a6cc4dbf391f"
      },
      "status": "completed",
      "subject": {
        "reference": "urn:uuid:ff9c2208-39aa-415e-b4d5-410b2bb23bac"
      },
      "context": {
        "reference": "urn:uuid:4fcac6d7-ab58-41dc-b3a6-340099e4d0ad"
      },
      "authored": "2021-08-03T13:04:53+00:00"
    }
  }, {
    "fullUrl": "urn:uuid:e418882b-ddfe-4dfd-93f5-a6cc4dbf391f",
    "resource": {
      "resourceType": "Questionnaire",
      "id": "e418882b-ddfe-4dfd-93f5-a6cc4dbf391f",
      "identifier": [ {
        "value": "1766749"
      } ],
      "version": "2021-08-03T13:04:53.000Z",
      "status": "active",
      "experimental": false,
      "date": "2021-08-03T13:04:53+00:00",
      "publisher": "User ID: '922' User name: 'AndrewJ.Walford' User skill set: 'T4'",
      "lastReviewDate": "2021-08-03",
      "contact": [ {
        "telecom": [ {
          "system": "phone",
          "value": "07798501130"
        } ]
      } ],
      "subjectType": [ "Patient" ]
    }
  }, {
    "fullUrl": "urn:uuid:2a3fbb8a-77af-4639-8e04-a7a59aaec5cd",
    "resource": {
      "resourceType": "QuestionnaireResponse",
      "id": "2a3fbb8a-77af-4639-8e04-a7a59aaec5cd",
      "identifier": {
        "value": "1766749"
      },
      "questionnaire": {
        "reference": "urn:uuid:b47cd9b0-5c23-43b7-800a-21ea8bc5ba7c"
      },
      "status": "completed",
      "subject": {
        "reference": "urn:uuid:ff9c2208-39aa-415e-b4d5-410b2bb23bac"
      },
      "context": {
        "reference": "urn:uuid:4fcac6d7-ab58-41dc-b3a6-340099e4d0ad"
      },
      "authored": "2021-08-03T13:04:53+00:00",
      "item": [ {
        "linkId": "Tx224190",
        "text": "Does the problem stop you from doing ALL of your normal activities?",
        "answer": [ {
          "valueString": "no - able to do most or all of their activities"
        } ]
      } ]
    }
  }, {
    "fullUrl": "urn:uuid:b47cd9b0-5c23-43b7-800a-21ea8bc5ba7c",
    "resource": {
      "resourceType": "Questionnaire",
      "id": "b47cd9b0-5c23-43b7-800a-21ea8bc5ba7c",
      "identifier": [ {
        "value": "1766749"
      } ],
      "version": "2021-08-03T13:04:53.000Z",
      "status": "active",
      "experimental": false,
      "date": "2021-08-03T13:04:53+00:00",
      "publisher": "User ID: '922' User name: 'AndrewJ.Walford' User skill set: 'T4'",
      "lastReviewDate": "2021-08-03",
      "contact": [ {
        "telecom": [ {
          "system": "phone",
          "value": "07798501130"
        } ]
      } ],
      "subjectType": [ "Patient" ],
      "item": [ {
        "linkId": "1766749",
        "prefix": "4900",
        "text": "Does the problem stop you from doing ALL of your normal activities?",
        "type": "choice",
        "required": true,
        "repeats": false,
        "option": [ {
          "valueString": "yes - unable to do all of their normal activities, Selected: false"
        }, {
          "valueString": "no - able to do some of their normal activities, Selected: false"
        }, {
          "valueString": "no - able to do most or all of their activities, Selected: true"
        } ]
      } ]
    }
  }, {
    "fullUrl": "urn:uuid:d989bd61-3bc4-4680-84e8-3b6a6e263290",
    "resource": {
      "resourceType": "QuestionnaireResponse",
      "id": "d989bd61-3bc4-4680-84e8-3b6a6e263290",
      "identifier": {
        "value": "1766749"
      },
      "questionnaire": {
        "reference": "urn:uuid:db0d4bbc-beb0-42c6-9c2c-31b4049b79cd"
      },
      "status": "completed",
      "subject": {
        "reference": "urn:uuid:ff9c2208-39aa-415e-b4d5-410b2bb23bac"
      },
      "context": {
        "reference": "urn:uuid:4fcac6d7-ab58-41dc-b3a6-340099e4d0ad"
      },
      "authored": "2021-08-03T13:04:53+00:00",
      "item": [ {
        "linkId": "Tx220244",
        "text": "Have you got any of the following new symptoms?",
        "answer": [ {
          "valueString": "no"
        } ]
      } ]
    }
  }, {
    "fullUrl": "urn:uuid:db0d4bbc-beb0-42c6-9c2c-31b4049b79cd",
    "resource": {
      "resourceType": "Questionnaire",
      "id": "db0d4bbc-beb0-42c6-9c2c-31b4049b79cd",
      "identifier": [ {
        "value": "1766749"
      } ],
      "version": "2021-08-03T13:04:53.000Z",
      "status": "active",
      "experimental": false,
      "date": "2021-08-03T13:04:53+00:00",
      "publisher": "User ID: '922' User name: 'AndrewJ.Walford' User skill set: 'T4'",
      "lastReviewDate": "2021-08-03",
      "contact": [ {
        "telecom": [ {
          "system": "phone",
          "value": "07798501130"
        } ]
      } ],
      "subjectType": [ "Patient" ],
      "item": [ {
        "linkId": "1766749",
        "prefix": "17",
        "text": "Have you got any of the following new symptoms?",
        "type": "choice",
        "required": true,
        "repeats": false,
        "option": [ {
          "valueString": "unable to control the bowels, Selected: false"
        }, {
          "valueString": "unable to move one or both legs, Selected: false"
        }, {
          "valueString": "numbness or pins and needles in both legs or around the back passage, Selected: false"
        }, {
          "valueString": "not sure, Selected: false"
        }, {
          "valueString": "no, Selected: true"
        } ]
      } ]
    }
  }, {
    "fullUrl": "urn:uuid:8ef7c78c-6a90-43aa-86c7-05431f423571",
    "resource": {
      "resourceType": "QuestionnaireResponse",
      "id": "8ef7c78c-6a90-43aa-86c7-05431f423571",
      "identifier": {
        "value": "1766749"
      },
      "questionnaire": {
        "reference": "urn:uuid:9f951cea-a717-4654-813e-582cb6aca3c9"
      },
      "status": "completed",
      "subject": {
        "reference": "urn:uuid:ff9c2208-39aa-415e-b4d5-410b2bb23bac"
      },
      "context": {
        "reference": "urn:uuid:4fcac6d7-ab58-41dc-b3a6-340099e4d0ad"
      },
      "authored": "2021-08-03T13:04:53+00:00",
      "item": [ {
        "linkId": "Tx221119",
        "text": "FunctionallyImpaired",
        "answer": [ {
          "valueString": "*"
        } ]
      } ]
    }
  }, {
    "fullUrl": "urn:uuid:9f951cea-a717-4654-813e-582cb6aca3c9",
    "resource": {
      "resourceType": "Questionnaire",
      "id": "9f951cea-a717-4654-813e-582cb6aca3c9",
      "identifier": [ {
        "value": "1766749"
      } ],
      "version": "2021-08-03T13:04:53.000Z",
      "status": "active",
      "experimental": false,
      "date": "2021-08-03T13:04:53+00:00",
      "publisher": "User ID: '922' User name: 'AndrewJ.Walford' User skill set: 'T4'",
      "lastReviewDate": "2021-08-03",
      "contact": [ {
        "telecom": [ {
          "system": "phone",
          "value": "07798501130"
        } ]
      } ],
      "subjectType": [ "Patient" ],
      "item": [ {
        "linkId": "1766749",
        "prefix": "5400",
        "text": "FunctionallyImpaired",
        "type": "choice",
        "required": true,
        "repeats": false,
        "option": [ {
          "valueString": "==\"\"present\"\", Selected: false"
        }, {
          "valueString": "*, Selected: true"
        } ]
      } ]
    }
  }, {
    "fullUrl": "urn:uuid:3b2f65b6-81e1-4bb4-a1d6-80caec4bccd4",
    "resource": {
      "resourceType": "QuestionnaireResponse",
      "id": "3b2f65b6-81e1-4bb4-a1d6-80caec4bccd4",
      "identifier": {
        "value": "1766749"
      },
      "questionnaire": {
        "reference": "urn:uuid:c1a521e0-9c3d-4d15-b462-64b5ac35ba08"
      },
      "status": "completed",
      "subject": {
        "reference": "urn:uuid:ff9c2208-39aa-415e-b4d5-410b2bb23bac"
      },
      "context": {
        "reference": "urn:uuid:4fcac6d7-ab58-41dc-b3a6-340099e4d0ad"
      },
      "authored": "2021-08-03T13:04:53+00:00",
      "item": [ {
        "linkId": "Tx221639",
        "text": "Have you been unable to pass urine for the last 12 hours, except for a few drops?",
        "answer": [ {
          "valueString": "no (ABLE TO pass urine)"
        } ]
      } ]
    }
  }, {
    "fullUrl": "urn:uuid:c1a521e0-9c3d-4d15-b462-64b5ac35ba08",
    "resource": {
      "resourceType": "Questionnaire",
      "id": "c1a521e0-9c3d-4d15-b462-64b5ac35ba08",
      "identifier": [ {
        "value": "1766749"
      } ],
      "version": "2021-08-03T13:04:53.000Z",
      "status": "active",
      "experimental": false,
      "date": "2021-08-03T13:04:53+00:00",
      "publisher": "User ID: '922' User name: 'AndrewJ.Walford' User skill set: 'T4'",
      "lastReviewDate": "2021-08-03",
      "contact": [ {
        "telecom": [ {
          "system": "phone",
          "value": "07798501130"
        } ]
      } ],
      "subjectType": [ "Patient" ],
      "item": [ {
        "linkId": "1766749",
        "prefix": "6100",
        "text": "Have you been unable to pass urine for the last 12 hours, except for a few drops?",
        "type": "choice",
        "required": true,
        "repeats": false,
        "option": [ {
          "valueString": "yes (UNABLE TO pass urine), Selected: false"
        }, {
          "valueString": "not sure, Selected: false"
        }, {
          "valueString": "no (ABLE TO pass urine), Selected: true"
        } ]
      } ]
    }
  }, {
    "fullUrl": "urn:uuid:2c96e0b7-b473-4df7-9155-1a46af855d40",
    "resource": {
      "resourceType": "QuestionnaireResponse",
      "id": "2c96e0b7-b473-4df7-9155-1a46af855d40",
      "identifier": {
        "value": "1766749"
      },
      "questionnaire": {
        "reference": "urn:uuid:c1d851f5-094b-443d-a513-8bc2645be302"
      },
      "status": "completed",
      "subject": {
        "reference": "urn:uuid:ff9c2208-39aa-415e-b4d5-410b2bb23bac"
      },
      "context": {
        "reference": "urn:uuid:4fcac6d7-ab58-41dc-b3a6-340099e4d0ad"
      },
      "authored": "2021-08-03T13:04:53+00:00",
      "item": [ {
        "linkId": "Tx221119",
        "text": "FunctionallyImpaired",
        "answer": [ {
          "valueString": "*"
        } ]
      } ]
    }
  }, {
    "fullUrl": "urn:uuid:c1d851f5-094b-443d-a513-8bc2645be302",
    "resource": {
      "resourceType": "Questionnaire",
      "id": "c1d851f5-094b-443d-a513-8bc2645be302",
      "identifier": [ {
        "value": "1766749"
      } ],
      "version": "2021-08-03T13:04:53.000Z",
      "status": "active",
      "experimental": false,
      "date": "2021-08-03T13:04:53+00:00",
      "publisher": "User ID: '922' User name: 'AndrewJ.Walford' User skill set: 'T4'",
      "lastReviewDate": "2021-08-03",
      "contact": [ {
        "telecom": [ {
          "system": "phone",
          "value": "07798501130"
        } ]
      } ],
      "subjectType": [ "Patient" ],
      "item": [ {
        "linkId": "1766749",
        "prefix": "7200",
        "text": "FunctionallyImpaired",
        "type": "choice",
        "required": true,
        "repeats": false,
        "option": [ {
          "valueString": "==\"\"present\"\", Selected: false"
        }, {
          "valueString": "*, Selected: true"
        } ]
      } ]
    }
  }, {
    "fullUrl": "urn:uuid:4058a89b-2155-4ad6-9de1-64688c9a8278",
    "resource": {
      "resourceType": "QuestionnaireResponse",
      "id": "4058a89b-2155-4ad6-9de1-64688c9a8278",
      "identifier": {
        "value": "1766749"
      },
      "questionnaire": {
        "reference": "urn:uuid:a4f8d613-af9a-45ec-aa8e-b0cbd0346421"
      },
      "status": "completed",
      "subject": {
        "reference": "urn:uuid:ff9c2208-39aa-415e-b4d5-410b2bb23bac"
      },
      "context": {
        "reference": "urn:uuid:4fcac6d7-ab58-41dc-b3a6-340099e4d0ad"
      },
      "authored": "2021-08-03T13:04:53+00:00",
      "item": [ {
        "linkId": "Tx223485",
        "text": "ConfusionDeclared",
        "answer": [ {
          "valueString": "*"
        } ]
      } ]
    }
  }, {
    "fullUrl": "urn:uuid:a4f8d613-af9a-45ec-aa8e-b0cbd0346421",
    "resource": {
      "resourceType": "Questionnaire",
      "id": "a4f8d613-af9a-45ec-aa8e-b0cbd0346421",
      "identifier": [ {
        "value": "1766749"
      } ],
      "version": "2021-08-03T13:04:53.000Z",
      "status": "active",
      "experimental": false,
      "date": "2021-08-03T13:04:53+00:00",
      "publisher": "User ID: '922' User name: 'AndrewJ.Walford' User skill set: 'T4'",
      "lastReviewDate": "2021-08-03",
      "contact": [ {
        "telecom": [ {
          "system": "phone",
          "value": "07798501130"
        } ]
      } ],
      "subjectType": [ "Patient" ],
      "item": [ {
        "linkId": "1766749",
        "prefix": "2900",
        "text": "ConfusionDeclared",
        "type": "choice",
        "required": true,
        "repeats": false,
        "option": [ {
          "valueString": "==\"\"present\"\", Selected: false"
        }, {
          "valueString": "*, Selected: true"
        } ]
      } ]
    }
  }, {
    "fullUrl": "urn:uuid:27f8b5cc-cbca-4918-ab98-cbcd578eb64b",
    "resource": {
      "resourceType": "QuestionnaireResponse",
      "id": "27f8b5cc-cbca-4918-ab98-cbcd578eb64b",
      "identifier": {
        "value": "1766749"
      },
      "questionnaire": {
        "reference": "urn:uuid:93aff98c-bafd-45dd-a3a7-b0807a51b65a"
      },
      "status": "completed",
      "subject": {
        "reference": "urn:uuid:ff9c2208-39aa-415e-b4d5-410b2bb23bac"
      },
      "context": {
        "reference": "urn:uuid:4fcac6d7-ab58-41dc-b3a6-340099e4d0ad"
      },
      "authored": "2021-08-03T13:04:53+00:00",
      "item": [ {
        "linkId": "Tx1213",
        "text": "Have you suddenly become confused OR more confused than usual?",
        "answer": [ {
          "valueString": "no"
        } ]
      } ]
    }
  }, {
    "fullUrl": "urn:uuid:93aff98c-bafd-45dd-a3a7-b0807a51b65a",
    "resource": {
      "resourceType": "Questionnaire",
      "id": "93aff98c-bafd-45dd-a3a7-b0807a51b65a",
      "identifier": [ {
        "value": "1766749"
      } ],
      "version": "2021-08-03T13:04:53.000Z",
      "status": "active",
      "experimental": false,
      "date": "2021-08-03T13:04:53+00:00",
      "publisher": "User ID: '922' User name: 'AndrewJ.Walford' User skill set: 'T4'",
      "lastReviewDate": "2021-08-03",
      "contact": [ {
        "telecom": [ {
          "system": "phone",
          "value": "07798501130"
        } ]
      } ],
      "subjectType": [ "Patient" ],
      "item": [ {
        "linkId": "1766749",
        "prefix": "7700",
        "text": "Have you suddenly become confused OR more confused than usual?",
        "type": "choice",
        "required": true,
        "repeats": false,
        "option": [ {
          "valueString": "yes, Selected: false"
        }, {
          "valueString": "not sure, Selected: false"
        }, {
          "valueString": "no, Selected: true"
        } ]
      } ]
    }
  }, {
    "fullUrl": "urn:uuid:b9ccb02c-7ee9-4edc-ac4f-007cbefaa71e",
    "resource": {
      "resourceType": "QuestionnaireResponse",
      "id": "b9ccb02c-7ee9-4edc-ac4f-007cbefaa71e",
      "identifier": {
        "value": "1766749"
      },
      "questionnaire": {
        "reference": "urn:uuid:5b096ba3-93a3-4995-b48a-204869272d00"
      },
      "status": "completed",
      "subject": {
        "reference": "urn:uuid:ff9c2208-39aa-415e-b4d5-410b2bb23bac"
      },
      "context": {
        "reference": "urn:uuid:4fcac6d7-ab58-41dc-b3a6-340099e4d0ad"
      },
      "authored": "2021-08-03T13:04:53+00:00",
      "item": [ {
        "linkId": "Tx220164",
        "text": "Are you breathing faster or harder when doing nothing at all?",
        "answer": [ {
          "valueString": "no"
        } ]
      } ]
    }
  }, {
    "fullUrl": "urn:uuid:5b096ba3-93a3-4995-b48a-204869272d00",
    "resource": {
      "resourceType": "Questionnaire",
      "id": "5b096ba3-93a3-4995-b48a-204869272d00",
      "identifier": [ {
        "value": "1766749"
      } ],
      "version": "2021-08-03T13:04:53.000Z",
      "status": "active",
      "experimental": false,
      "date": "2021-08-03T13:04:53+00:00",
      "publisher": "User ID: '922' User name: 'AndrewJ.Walford' User skill set: 'T4'",
      "lastReviewDate": "2021-08-03",
      "contact": [ {
        "telecom": [ {
          "system": "phone",
          "value": "07798501130"
        } ]
      } ],
      "subjectType": [ "Patient" ],
      "item": [ {
        "linkId": "1766749",
        "prefix": "3400",
        "text": "Are you breathing faster or harder when doing nothing at all?",
        "type": "choice",
        "required": true,
        "repeats": false,
        "option": [ {
          "valueString": "yes, Selected: false"
        }, {
          "valueString": "not sure, Selected: false"
        }, {
          "valueString": "no, Selected: true"
        } ]
      } ]
    }
  }, {
    "fullUrl": "urn:uuid:b0524566-73da-4ed3-9e50-560f87305b71",
    "resource": {
      "resourceType": "QuestionnaireResponse",
      "id": "b0524566-73da-4ed3-9e50-560f87305b71",
      "identifier": {
        "value": "1766749"
      },
      "questionnaire": {
        "reference": "urn:uuid:187aee59-bef1-4a57-af8f-dcf0eab815ab"
      },
      "status": "completed",
      "subject": {
        "reference": "urn:uuid:ff9c2208-39aa-415e-b4d5-410b2bb23bac"
      },
      "context": {
        "reference": "urn:uuid:4fcac6d7-ab58-41dc-b3a6-340099e4d0ad"
      },
      "authored": "2021-08-03T13:04:53+00:00",
      "item": [ {
        "linkId": "Tx224506",
        "text": "UnableToPassUrine",
        "answer": [ {
          "valueString": "*"
        } ]
      } ]
    }
  }, {
    "fullUrl": "urn:uuid:187aee59-bef1-4a57-af8f-dcf0eab815ab",
    "resource": {
      "resourceType": "Questionnaire",
      "id": "187aee59-bef1-4a57-af8f-dcf0eab815ab",
      "identifier": [ {
        "value": "1766749"
      } ],
      "version": "2021-08-03T13:04:53.000Z",
      "status": "active",
      "experimental": false,
      "date": "2021-08-03T13:04:53+00:00",
      "publisher": "User ID: '922' User name: 'AndrewJ.Walford' User skill set: 'T4'",
      "lastReviewDate": "2021-08-03",
      "contact": [ {
        "telecom": [ {
          "system": "phone",
          "value": "07798501130"
        } ]
      } ],
      "subjectType": [ "Patient" ],
      "item": [ {
        "linkId": "1766749",
        "prefix": "8300",
        "text": "UnableToPassUrine",
        "type": "choice",
        "required": true,
        "repeats": false,
        "option": [ {
          "valueString": "==\"\"present\"\", Selected: false"
        }, {
          "valueString": "*, Selected: true"
        } ]
      } ]
    }
  }, {
    "fullUrl": "urn:uuid:c0e8406c-e759-4134-a347-f883cb8bae2d",
    "resource": {
      "resourceType": "QuestionnaireResponse",
      "id": "c0e8406c-e759-4134-a347-f883cb8bae2d",
      "identifier": {
        "value": "1766749"
      },
      "questionnaire": {
        "reference": "urn:uuid:a76312f9-2159-4aaa-815e-92abfbcfbd06"
      },
      "status": "completed",
      "subject": {
        "reference": "urn:uuid:ff9c2208-39aa-415e-b4d5-410b2bb23bac"
      },
      "context": {
        "reference": "urn:uuid:4fcac6d7-ab58-41dc-b3a6-340099e4d0ad"
      },
      "authored": "2021-08-03T13:04:53+00:00",
      "item": [ {
        "linkId": "Tx222078",
        "text": "Have you got pain in the spine?",
        "answer": [ {
          "valueString": "no"
        } ]
      } ]
    }
  }, {
    "fullUrl": "urn:uuid:a76312f9-2159-4aaa-815e-92abfbcfbd06",
    "resource": {
      "resourceType": "Questionnaire",
      "id": "a76312f9-2159-4aaa-815e-92abfbcfbd06",
      "identifier": [ {
        "value": "1766749"
      } ],
      "version": "2021-08-03T13:04:53.000Z",
      "status": "active",
      "experimental": false,
      "date": "2021-08-03T13:04:53+00:00",
      "publisher": "User ID: '922' User name: 'AndrewJ.Walford' User skill set: 'T4'",
      "lastReviewDate": "2021-08-03",
      "contact": [ {
        "telecom": [ {
          "system": "phone",
          "value": "07798501130"
        } ]
      } ],
      "subjectType": [ "Patient" ],
      "item": [ {
        "linkId": "1766749",
        "prefix": "400",
        "text": "Have you got pain in the spine?",
        "type": "choice",
        "required": true,
        "repeats": false,
        "option": [ {
          "valueString": "yes, Selected: false"
        }, {
          "valueString": "not sure, Selected: false"
        }, {
          "valueString": "no, Selected: true"
        } ]
      } ]
    }
  }, {
    "fullUrl": "urn:uuid:5175359d-6e37-40a6-bccb-eeba17022e4d",
    "resource": {
      "resourceType": "QuestionnaireResponse",
      "id": "5175359d-6e37-40a6-bccb-eeba17022e4d",
      "identifier": {
        "value": "1766749"
      },
      "questionnaire": {
        "reference": "urn:uuid:fde2d873-50bb-4cfa-9de8-34daaaf8b154"
      },
      "status": "completed",
      "subject": {
        "reference": "urn:uuid:ff9c2208-39aa-415e-b4d5-410b2bb23bac"
      },
      "context": {
        "reference": "urn:uuid:4fcac6d7-ab58-41dc-b3a6-340099e4d0ad"
      },
      "authored": "2021-08-03T13:04:53+00:00",
      "item": [ {
        "linkId": "Tx220168",
        "text": "Have you got pain that is getting worse?",
        "answer": [ {
          "valueString": "no"
        } ]
      } ]
    }
  }, {
    "fullUrl": "urn:uuid:fde2d873-50bb-4cfa-9de8-34daaaf8b154",
    "resource": {
      "resourceType": "Questionnaire",
      "id": "fde2d873-50bb-4cfa-9de8-34daaaf8b154",
      "identifier": [ {
        "value": "1766749"
      } ],
      "version": "2021-08-03T13:04:53.000Z",
      "status": "active",
      "experimental": false,
      "date": "2021-08-03T13:04:53+00:00",
      "publisher": "User ID: '922' User name: 'AndrewJ.Walford' User skill set: 'T4'",
      "lastReviewDate": "2021-08-03",
      "contact": [ {
        "telecom": [ {
          "system": "phone",
          "value": "07798501130"
        } ]
      } ],
      "subjectType": [ "Patient" ],
      "item": [ {
        "linkId": "1766749",
        "prefix": "300",
        "text": "Have you got pain that is getting worse?",
        "type": "choice",
        "required": true,
        "repeats": false,
        "option": [ {
          "valueString": "yes, Selected: false"
        }, {
          "valueString": "not sure, Selected: false"
        }, {
          "valueString": "no, Selected: true"
        } ]
      } ]
    }
  }, {
    "fullUrl": "urn:uuid:6cc1b93d-5baf-4040-a529-e6f904f84194",
    "resource": {
      "resourceType": "QuestionnaireResponse",
      "id": "6cc1b93d-5baf-4040-a529-e6f904f84194",
      "identifier": {
        "value": "1766749"
      },
      "questionnaire": {
        "reference": "urn:uuid:096e7bdc-195a-4e45-a9b4-2526bba790c4"
      },
      "status": "completed",
      "subject": {
        "reference": "urn:uuid:ff9c2208-39aa-415e-b4d5-410b2bb23bac"
      },
      "context": {
        "reference": "urn:uuid:4fcac6d7-ab58-41dc-b3a6-340099e4d0ad"
      },
      "authored": "2021-08-03T13:04:53+00:00",
      "item": [ {
        "linkId": "Tx1122",
        "text": "Have you felt hot or feverish at any time in the last 12 hours?",
        "answer": [ {
          "valueString": "no"
        } ]
      } ]
    }
  }, {
    "fullUrl": "urn:uuid:096e7bdc-195a-4e45-a9b4-2526bba790c4",
    "resource": {
      "resourceType": "Questionnaire",
      "id": "096e7bdc-195a-4e45-a9b4-2526bba790c4",
      "identifier": [ {
        "value": "1766749"
      } ],
      "version": "2021-08-03T13:04:53.000Z",
      "status": "active",
      "experimental": false,
      "date": "2021-08-03T13:04:53+00:00",
      "publisher": "User ID: '922' User name: 'AndrewJ.Walford' User skill set: 'T4'",
      "lastReviewDate": "2021-08-03",
      "contact": [ {
        "telecom": [ {
          "system": "phone",
          "value": "07798501130"
        } ]
      } ],
      "subjectType": [ "Patient" ],
      "item": [ {
        "linkId": "1766749",
        "prefix": "500",
        "text": "Have you felt hot or feverish at any time in the last 12 hours?",
        "type": "choice",
        "required": true,
        "repeats": false,
        "option": [ {
          "valueString": "yes - temperature not taken, Selected: false"
        }, {
          "valueString": "yes - temperature taken (specify), Selected: false"
        }, {
          "valueString": "not sure, Selected: false"
        }, {
          "valueString": "no, Selected: true"
        } ]
      } ]
    }
  }, {
    "fullUrl": "urn:uuid:7405700f-afa6-4da8-b375-369ccc877ee5",
    "resource": {
      "resourceType": "QuestionnaireResponse",
      "id": "7405700f-afa6-4da8-b375-369ccc877ee5",
      "identifier": {
        "value": "1766749"
      },
      "questionnaire": {
        "reference": "urn:uuid:416130b8-2481-4538-904c-5720b12d6eb2"
      },
      "status": "completed",
      "subject": {
        "reference": "urn:uuid:ff9c2208-39aa-415e-b4d5-410b2bb23bac"
      },
      "context": {
        "reference": "urn:uuid:4fcac6d7-ab58-41dc-b3a6-340099e4d0ad"
      },
      "authored": "2021-08-03T13:04:53+00:00",
      "item": [ {
        "linkId": "Tx1233",
        "text": "Have you had a back injury IN THE LAST 4 WEEKS?",
        "answer": [ {
          "valueString": "no"
        } ]
      } ]
    }
  }, {
    "fullUrl": "urn:uuid:416130b8-2481-4538-904c-5720b12d6eb2",
    "resource": {
      "resourceType": "Questionnaire",
      "id": "416130b8-2481-4538-904c-5720b12d6eb2",
      "identifier": [ {
        "value": "1766749"
      } ],
      "version": "2021-08-03T13:04:53.000Z",
      "status": "active",
      "experimental": false,
      "date": "2021-08-03T13:04:53+00:00",
      "publisher": "User ID: '922' User name: 'AndrewJ.Walford' User skill set: 'T4'",
      "lastReviewDate": "2021-08-03",
      "contact": [ {
        "telecom": [ {
          "system": "phone",
          "value": "07798501130"
        } ]
      } ],
      "subjectType": [ "Patient" ],
      "item": [ {
        "linkId": "1766749",
        "prefix": "900",
        "text": "Have you had a back injury IN THE LAST 4 WEEKS?",
        "type": "choice",
        "required": true,
        "repeats": false,
        "option": [ {
          "valueString": "yes, Selected: false"
        }, {
          "valueString": "not sure, Selected: false"
        }, {
          "valueString": "no, Selected: true"
        } ]
      } ]
    }
  }, {
    "fullUrl": "urn:uuid:27b09f1c-864e-4ff5-843e-0ad45ec3c70a",
    "resource": {
      "resourceType": "QuestionnaireResponse",
      "id": "27b09f1c-864e-4ff5-843e-0ad45ec3c70a",
      "identifier": {
        "value": "1766749"
      },
      "questionnaire": {
        "reference": "urn:uuid:87c9a345-be4e-421c-85b7-21a341193f55"
      },
      "status": "completed",
      "subject": {
        "reference": "urn:uuid:ff9c2208-39aa-415e-b4d5-410b2bb23bac"
      },
      "context": {
        "reference": "urn:uuid:4fcac6d7-ab58-41dc-b3a6-340099e4d0ad"
      },
      "authored": "2021-08-03T13:04:53+00:00",
      "item": [ {
        "linkId": "Tx2947",
        "text": "Have you had any change of medication IN THE LAST 2 WEEKS?",
        "answer": [ {
          "valueString": "no"
        } ]
      } ]
    }
  }, {
    "fullUrl": "urn:uuid:87c9a345-be4e-421c-85b7-21a341193f55",
    "resource": {
      "resourceType": "Questionnaire",
      "id": "87c9a345-be4e-421c-85b7-21a341193f55",
      "identifier": [ {
        "value": "1766749"
      } ],
      "version": "2021-08-03T13:04:53.000Z",
      "status": "active",
      "experimental": false,
      "date": "2021-08-03T13:04:53+00:00",
      "publisher": "User ID: '922' User name: 'AndrewJ.Walford' User skill set: 'T4'",
      "lastReviewDate": "2021-08-03",
      "contact": [ {
        "telecom": [ {
          "system": "phone",
          "value": "07798501130"
        } ]
      } ],
      "subjectType": [ "Patient" ],
      "item": [ {
        "linkId": "1766749",
        "prefix": "1000",
        "text": "Have you had any change of medication IN THE LAST 2 WEEKS?",
        "type": "choice",
        "required": true,
        "repeats": false,
        "option": [ {
          "valueString": "started new medication, Selected: false"
        }, {
          "valueString": "changed the dose of medication, Selected: false"
        }, {
          "valueString": "stopped medication, Selected: false"
        }, {
          "valueString": "not sure, Selected: false"
        }, {
          "valueString": "no, Selected: true"
        } ]
      } ]
    }
  }, {
    "fullUrl": "urn:uuid:e921f8b7-d394-4279-a565-81aadd769fc1",
    "resource": {
      "resourceType": "QuestionnaireResponse",
      "id": "e921f8b7-d394-4279-a565-81aadd769fc1",
      "identifier": {
        "value": "1766749"
      },
      "questionnaire": {
        "reference": "urn:uuid:c79a5aef-02ff-462c-b44e-bf7e45c1b610"
      },
      "status": "completed",
      "subject": {
        "reference": "urn:uuid:ff9c2208-39aa-415e-b4d5-410b2bb23bac"
      },
      "context": {
        "reference": "urn:uuid:4fcac6d7-ab58-41dc-b3a6-340099e4d0ad"
      },
      "authored": "2021-08-03T13:04:53+00:00",
      "item": [ {
        "linkId": "Tx221449",
        "text": "STRING:SDPCFullPrimaryCareassessmentandprescribingcapability",
        "answer": [ {
          "valueString": "\"\"PC full Primary Care assessment and prescribing capability\"\""
        } ]
      } ]
    }
  }, {
    "fullUrl": "urn:uuid:c79a5aef-02ff-462c-b44e-bf7e45c1b610",
    "resource": {
      "resourceType": "Questionnaire",
      "id": "c79a5aef-02ff-462c-b44e-bf7e45c1b610",
      "identifier": [ {
        "value": "1766749"
      } ],
      "version": "2021-08-03T13:04:53.000Z",
      "status": "active",
      "experimental": false,
      "date": "2021-08-03T13:04:53+00:00",
      "publisher": "User ID: '922' User name: 'AndrewJ.Walford' User skill set: 'T4'",
      "lastReviewDate": "2021-08-03",
      "contact": [ {
        "telecom": [ {
          "system": "phone",
          "value": "07798501130"
        } ]
      } ],
      "subjectType": [ "Patient" ],
      "item": [ {
        "linkId": "1766749",
        "prefix": "1200",
        "text": "STRING:SDPCFullPrimaryCareassessmentandprescribingcapability",
        "type": "choice",
        "required": true,
        "repeats": false,
        "option": [ {
          "valueString": "\"\"PC full Primary Care assessment and prescribing capability\"\", Selected: true"
        } ]
      } ]
    }
  }, {
    "fullUrl": "urn:uuid:3b7bdf0c-ebe2-45a0-8453-e0b4d8a3a46a",
    "resource": {
      "resourceType": "QuestionnaireResponse",
      "id": "3b7bdf0c-ebe2-45a0-8453-e0b4d8a3a46a",
      "identifier": {
        "value": "1766749"
      },
      "questionnaire": {
        "reference": "urn:uuid:1684c160-abde-4ae0-80eb-ed8dc2ffdc2c"
      },
      "status": "completed",
      "subject": {
        "reference": "urn:uuid:ff9c2208-39aa-415e-b4d5-410b2bb23bac"
      },
      "context": {
        "reference": "urn:uuid:4fcac6d7-ab58-41dc-b3a6-340099e4d0ad"
      },
      "authored": "2021-08-03T13:04:53+00:00"
    }
  }, {
    "fullUrl": "urn:uuid:1684c160-abde-4ae0-80eb-ed8dc2ffdc2c",
    "resource": {
      "resourceType": "Questionnaire",
      "id": "1684c160-abde-4ae0-80eb-ed8dc2ffdc2c",
      "identifier": [ {
        "value": "1766749"
      } ],
      "version": "2021-08-03T13:04:53.000Z",
      "status": "active",
      "experimental": false,
      "date": "2021-08-03T13:04:53+00:00",
      "publisher": "User ID: '922' User name: 'AndrewJ.Walford' User skill set: 'T4'",
      "lastReviewDate": "2021-08-03",
      "contact": [ {
        "telecom": [ {
          "system": "phone",
          "value": "07798501130"
        } ]
      } ],
      "subjectType": [ "Patient" ]
    }
  }, {
    "fullUrl": "urn:uuid:dedb7ba3-eb32-480d-815b-cf01525666fc",
    "resource": {
      "resourceType": "QuestionnaireResponse",
      "id": "dedb7ba3-eb32-480d-815b-cf01525666fc",
      "identifier": {
        "value": "1766749"
      },
      "questionnaire": {
        "reference": "urn:uuid:530d89d6-b57d-4869-a6b6-9fc425cf85af"
      },
      "status": "completed",
      "subject": {
        "reference": "urn:uuid:ff9c2208-39aa-415e-b4d5-410b2bb23bac"
      },
      "context": {
        "reference": "urn:uuid:4fcac6d7-ab58-41dc-b3a6-340099e4d0ad"
      },
      "authored": "2021-08-03T13:04:53+00:00",
      "item": [ {
        "linkId": "N/A"
      } ]
    }
  }, {
    "fullUrl": "urn:uuid:530d89d6-b57d-4869-a6b6-9fc425cf85af",
    "resource": {
      "resourceType": "Questionnaire",
      "id": "530d89d6-b57d-4869-a6b6-9fc425cf85af",
      "identifier": [ {
        "value": "1766749"
      } ],
      "version": "2021-08-03T13:04:53.000Z",
      "status": "active",
      "experimental": false,
      "date": "2021-08-03T13:04:53+00:00",
      "publisher": "User ID: '922' User name: 'AndrewJ.Walford' User skill set: 'T4'",
      "lastReviewDate": "2021-08-03",
      "contact": [ {
        "telecom": [ {
          "system": "phone",
          "value": "07798501130"
        } ]
      } ],
      "subjectType": [ "Patient" ],
      "item": [ {
        "linkId": "1766749",
        "type": "choice",
        "required": true,
        "repeats": false,
        "option": [ {
          "valueString": ", Selected: false"
        } ]
      } ]
    }
  }, {
    "fullUrl": "urn:uuid:86389514-5a47-44ad-9605-1d02b34ef915",
    "resource": {
      "resourceType": "QuestionnaireResponse",
      "id": "86389514-5a47-44ad-9605-1d02b34ef915",
      "identifier": {
        "value": "1766749"
      },
      "questionnaire": {
        "reference": "urn:uuid:f7a96889-cce4-4a13-bdab-2a15394b1641"
      },
      "status": "completed",
      "subject": {
        "reference": "urn:uuid:ff9c2208-39aa-415e-b4d5-410b2bb23bac"
      },
      "context": {
        "reference": "urn:uuid:4fcac6d7-ab58-41dc-b3a6-340099e4d0ad"
      },
      "authored": "2021-08-03T13:04:53+00:00"
    }
  }, {
    "fullUrl": "urn:uuid:f7a96889-cce4-4a13-bdab-2a15394b1641",
    "resource": {
      "resourceType": "Questionnaire",
      "id": "f7a96889-cce4-4a13-bdab-2a15394b1641",
      "identifier": [ {
        "value": "1766749"
      } ],
      "version": "2021-08-03T13:04:53.000Z",
      "status": "active",
      "experimental": false,
      "date": "2021-08-03T13:04:53+00:00",
      "publisher": "User ID: '922' User name: 'AndrewJ.Walford' User skill set: 'T4'",
      "lastReviewDate": "2021-08-03",
      "contact": [ {
        "telecom": [ {
          "system": "phone",
          "value": "07798501130"
        } ]
      } ],
      "subjectType": [ "Patient" ]
    }
  }, {
    "fullUrl": "urn:uuid:e8215119-41f1-4067-ab1c-455ac4e73469",
    "resource": {
      "resourceType": "Observation",
      "id": "e8215119-41f1-4067-ab1c-455ac4e73469",
      "status": "final",
      "code": {
        "coding": [ {
          "system": "http://snomed.info/sct",
          "code": "33962009",
          "display": "Presenting complaint"
        } ]
      },
      "subject": {
        "reference": "urn:uuid:ff9c2208-39aa-415e-b4d5-410b2bb23bac"
      },
      "context": {
        "reference": "urn:uuid:4fcac6d7-ab58-41dc-b3a6-340099e4d0ad"
      }
    }
  }, {
    "fullUrl": "urn:uuid:52f0fa2f-add9-424e-95ae-c857d652a66f",
    "resource": {
      "resourceType": "PractitionerRole",
      "id": "52f0fa2f-add9-424e-95ae-c857d652a66f",
      "practitioner": {
        "reference": "urn:uuid:6c5d0b08-81fc-4aeb-bd09-bd2228c8c902"
      },
      "organization": {
        "reference": "urn:uuid:d6ce485f-0422-42ad-bd48-5bffa58809da"
      },
      "code": [ {
        "coding": [ {
          "system": "2.16.840.1.113883.2.1.3.2.4.17.339",
          "code": "NP",
          "display": "Nurse Practitioner"
        } ]
      } ]
    }
  }, {
    "fullUrl": "urn:uuid:d6ce485f-0422-42ad-bd48-5bffa58809da",
    "resource": {
      "resourceType": "Organization",
      "id": "d6ce485f-0422-42ad-bd48-5bffa58809da",
      "identifier": [ {
        "value": "RX7"
      } ],
      "name": "NWAS 111"
    }
  }, {
    "fullUrl": "urn:uuid:42d9e59d-d74f-45e0-9d17-63fddc974ed5",
    "resource": {
      "resourceType": "RelatedPerson",
      "id": "42d9e59d-d74f-45e0-9d17-63fddc974ed5",
      "patient": {
        "reference": "urn:uuid:ff9c2208-39aa-415e-b4d5-410b2bb23bac"
      },
      "relationship": {
        "coding": [ {
          "system": "http://hl7.org/fhir/v2/0131",
          "code": "C",
          "display": "Emergency Contact"
        } ]
      },
      "telecom": [ {
        "system": "phone",
        "value": "tel:07798501130"
      } ]
    }
  }, {
    "fullUrl": "urn:uuid:23a94560-b1f9-4e26-814d-57fe679f17a5",
    "resource": {
      "resourceType": "Device",
      "id": "23a94560-b1f9-4e26-814d-57fe679f17a5",
      "model": "111 Adaptor",
      "version": "1.0.3"
    }
  }, {
    "fullUrl": "urn:uuid:391312ea-1f22-47ae-a618-1bf69d1d2025",
    "resource": {
      "resourceType": "List",
      "id": "391312ea-1f22-47ae-a618-1bf69d1d2025",
      "status": "current",
      "mode": "working",
      "title": "111 Report List",
      "code": {
        "coding": [ {
          "system": "http://snomed.info/sct",
          "code": "225390008",
          "display": "Triage"
        } ]
      },
      "subject": {
        "reference": "urn:uuid:ff9c2208-39aa-415e-b4d5-410b2bb23bac"
      },
      "encounter": {
        "reference": "urn:uuid:4fcac6d7-ab58-41dc-b3a6-340099e4d0ad"
      },
      "date": "2021-08-03T13:04:53+00:00",
      "source": {
        "reference": "urn:uuid:23a94560-b1f9-4e26-814d-57fe679f17a5"
      },
      "orderedBy": {
        "coding": [ {
          "system": "http://hl7.org/fhir/list-order",
          "code": "event-date",
          "display": "Sorted by Event Date"
        } ]
      },
      "entry": [ {
        "item": {
          "reference": "urn:uuid:8a5f70f6-55ea-4547-9d3a-ec2e831f471d"
        }
      }, {
        "item": {
          "reference": "urn:uuid:e8215119-41f1-4067-ab1c-455ac4e73469"
        }
      }, {
        "item": {
          "reference": "urn:uuid:cd1c3188-27bc-4137-b8e6-5789274541f3"
        }
      }, {
        "item": {
          "reference": "urn:uuid:a308380d-5242-4776-b493-6489bbe34fe6"
        }
      }, {
        "item": {
          "reference": "urn:uuid:24bde91f-454d-4fdf-a839-813375c14a0d"
        }
      }, {
        "item": {
          "reference": "urn:uuid:6c5d0b08-81fc-4aeb-bd09-bd2228c8c902"
        }
      }, {
        "item": {
          "reference": "urn:uuid:42d9e59d-d74f-45e0-9d17-63fddc974ed5"
        }
      }, {
        "item": {
          "reference": "urn:uuid:d6ce485f-0422-42ad-bd48-5bffa58809da"
        }
      }, {
        "item": {
          "reference": "urn:uuid:11ee93ea-3559-4201-b482-8f8e7d92a4c6"
        }
      }, {
        "item": {
          "reference": "urn:uuid:aeff8e40-5555-4fbf-bafc-f510960db3ea"
        }
      }, {
        "item": {
          "reference": "urn:uuid:3b7bdf0c-ebe2-45a0-8453-e0b4d8a3a46a"
        }
      }, {
        "item": {
          "reference": "urn:uuid:3b2f65b6-81e1-4bb4-a1d6-80caec4bccd4"
        }
      }, {
        "item": {
          "reference": "urn:uuid:4058a89b-2155-4ad6-9de1-64688c9a8278"
        }
      }, {
        "item": {
          "reference": "urn:uuid:b47cd9b0-5c23-43b7-800a-21ea8bc5ba7c"
        }
      }, {
        "item": {
          "reference": "urn:uuid:416130b8-2481-4538-904c-5720b12d6eb2"
        }
      }, {
        "item": {
          "reference": "urn:uuid:a312b643-353c-4cf0-bd3d-8406d97d22a8"
        }
      }, {
        "item": {
          "reference": "urn:uuid:db0d4bbc-beb0-42c6-9c2c-31b4049b79cd"
        }
      }, {
        "item": {
          "reference": "urn:uuid:2c864a07-10ea-416a-8a20-ac8623dd9a2f"
        }
      }, {
        "item": {
          "reference": "urn:uuid:f9a04d7d-d04e-4737-a76c-3b3bc8966e08"
        }
      }, {
        "item": {
          "reference": "urn:uuid:86389514-5a47-44ad-9605-1d02b34ef915"
        }
      }, {
        "item": {
          "reference": "urn:uuid:c79a5aef-02ff-462c-b44e-bf7e45c1b610"
        }
      }, {
        "item": {
          "reference": "urn:uuid:93aff98c-bafd-45dd-a3a7-b0807a51b65a"
        }
      }, {
        "item": {
          "reference": "urn:uuid:b6cbf045-43d5-4bc6-9646-3467b19f5e89"
        }
      }, {
        "item": {
          "reference": "urn:uuid:c0e8406c-e759-4134-a347-f883cb8bae2d"
        }
      }, {
        "item": {
          "reference": "urn:uuid:7405700f-afa6-4da8-b375-369ccc877ee5"
        }
      }, {
        "item": {
          "reference": "urn:uuid:530d89d6-b57d-4869-a6b6-9fc425cf85af"
        }
      }, {
        "item": {
          "reference": "urn:uuid:c1d851f5-094b-443d-a513-8bc2645be302"
        }
      }, {
        "item": {
          "reference": "urn:uuid:1684c160-abde-4ae0-80eb-ed8dc2ffdc2c"
        }
      }, {
        "item": {
          "reference": "urn:uuid:187aee59-bef1-4a57-af8f-dcf0eab815ab"
        }
      }, {
        "item": {
          "reference": "urn:uuid:969aca15-57f7-48a7-a7e4-df5504caa9d1"
        }
      }, {
        "item": {
          "reference": "urn:uuid:a76312f9-2159-4aaa-815e-92abfbcfbd06"
        }
      }, {
        "item": {
          "reference": "urn:uuid:ecc16ccf-01ae-4cd5-821a-0e8d78b8ebbe"
        }
      }, {
        "item": {
          "reference": "urn:uuid:debd4785-79e3-4b82-a8b1-8a04589b3aaf"
        }
      }, {
        "item": {
          "reference": "urn:uuid:8ef7c78c-6a90-43aa-86c7-05431f423571"
        }
      }, {
        "item": {
          "reference": "urn:uuid:211c238e-ac2b-4ca2-ad23-eec17bd6006d"
        }
      }, {
        "item": {
          "reference": "urn:uuid:b0524566-73da-4ed3-9e50-560f87305b71"
        }
      }, {
        "item": {
          "reference": "urn:uuid:1b362c02-b47c-4223-b86a-e8527030cee3"
        }
      }, {
        "item": {
          "reference": "urn:uuid:a7650f78-c476-409d-94f7-30d747ed61cc"
        }
      }, {
        "item": {
          "reference": "urn:uuid:cdf2b8cd-e32a-4096-971b-b1e2980ab454"
        }
      }, {
        "item": {
          "reference": "urn:uuid:27f8b5cc-cbca-4918-ab98-cbcd578eb64b"
        }
      }, {
        "item": {
          "reference": "urn:uuid:dedb7ba3-eb32-480d-815b-cf01525666fc"
        }
      }, {
        "item": {
          "reference": "urn:uuid:a4f8d613-af9a-45ec-aa8e-b0cbd0346421"
        }
      }, {
        "item": {
          "reference": "urn:uuid:5175359d-6e37-40a6-bccb-eeba17022e4d"
        }
      }, {
        "item": {
          "reference": "urn:uuid:096e7bdc-195a-4e45-a9b4-2526bba790c4"
        }
      }, {
        "item": {
          "reference": "urn:uuid:e921f8b7-d394-4279-a565-81aadd769fc1"
        }
      }, {
        "item": {
          "reference": "urn:uuid:df9d1c9a-ca06-4acb-9059-9484bc9521bf"
        }
      }, {
        "item": {
          "reference": "urn:uuid:d989bd61-3bc4-4680-84e8-3b6a6e263290"
        }
      }, {
        "item": {
          "reference": "urn:uuid:aa499a5f-3691-4efe-b9e5-5337362adb53"
        }
      }, {
        "item": {
          "reference": "urn:uuid:18827841-eaed-4504-8d4e-dda7537c7be5"
        }
      }, {
        "item": {
          "reference": "urn:uuid:6cc1b93d-5baf-4040-a529-e6f904f84194"
        }
      }, {
        "item": {
          "reference": "urn:uuid:3923a58c-93e5-45a2-a15a-3be16b6238d1"
        }
      }, {
        "item": {
          "reference": "urn:uuid:c8591b7f-86c3-4d3c-b419-5de81eced50c"
        }
      }, {
        "item": {
          "reference": "urn:uuid:f7a96889-cce4-4a13-bdab-2a15394b1641"
        }
      }, {
        "item": {
          "reference": "urn:uuid:a990ce5c-f6d4-4e5f-a1cb-d74b6b7bcc56"
        }
      }, {
        "item": {
          "reference": "urn:uuid:2a3fbb8a-77af-4639-8e04-a7a59aaec5cd"
        }
      }, {
        "item": {
          "reference": "urn:uuid:f6a62d60-cf69-416b-a114-e0601649b124"
        }
      }, {
        "item": {
          "reference": "urn:uuid:fde2d873-50bb-4cfa-9de8-34daaaf8b154"
        }
      }, {
        "item": {
          "reference": "urn:uuid:7f61dbd7-81f8-4467-8251-93ba97a6041b"
        }
      }, {
        "item": {
          "reference": "urn:uuid:5b096ba3-93a3-4995-b48a-204869272d00"
        }
      }, {
        "item": {
          "reference": "urn:uuid:ff216abf-4e14-4078-a182-9e2731877a27"
        }
      }, {
        "item": {
          "reference": "urn:uuid:87c9a345-be4e-421c-85b7-21a341193f55"
        }
      }, {
        "item": {
          "reference": "urn:uuid:bd87770c-738e-4d0a-8a01-0914ae9afbf5"
        }
      }, {
        "item": {
          "reference": "urn:uuid:e418882b-ddfe-4dfd-93f5-a6cc4dbf391f"
        }
      }, {
        "item": {
          "reference": "urn:uuid:0002a4ff-4a74-4900-b615-5c806693aedb"
        }
      }, {
        "item": {
          "reference": "urn:uuid:2c96e0b7-b473-4df7-9155-1a46af855d40"
        }
      }, {
        "item": {
          "reference": "urn:uuid:606cf672-0281-4a09-97dc-21e1053508fe"
        }
      }, {
        "item": {
          "reference": "urn:uuid:8b1ea961-569d-4137-ac70-88be7c44a336"
        }
      }, {
        "item": {
          "reference": "urn:uuid:27b09f1c-864e-4ff5-843e-0ad45ec3c70a"
        }
      }, {
        "item": {
          "reference": "urn:uuid:c1a521e0-9c3d-4d15-b462-64b5ac35ba08"
        }
      }, {
        "item": {
          "reference": "urn:uuid:9f951cea-a717-4654-813e-582cb6aca3c9"
        }
      }, {
        "item": {
          "reference": "urn:uuid:b9ccb02c-7ee9-4edc-ac4f-007cbefaa71e"
        }
      }, {
        "item": {
          "reference": "urn:uuid:b143f94e-3a6e-47ad-ab56-85d5e29eef35"
        }
      }, {
        "item": {
          "reference": "urn:uuid:6173e095-a4c9-4d8b-82fd-41bbcb8d433f"
        }
      } ]
    }
  } ]
}