{
  "resourceType": "Bundle",
  "meta": {
    "lastUpdated": "2022-05-12T06:46:16.330+00:00"
  },
  "identifier": {
    "type": {
      "text": "ClinicalDocument VersionNumber"
    },
    "value": "1"
  },
  "type": "message",
  "entry": [ {
    "fullUrl": "urn:uuid:B447241A-CEBD-41DF-AC62-46FE8022876F",
    "resource": {
      "resourceType": "MessageHeader",
      "id": "B447241A-CEBD-41DF-AC62-46FE8022876F",
      "event": {
        "system": "https://fhir.nhs.uk/STU3/CodeSystem/EventType-1",
        "code": "referral-1",
        "display": "Referral"
      },
      "destination": [ {
        "endpoint": "urn:nhs-uk:addressing:ods:Y02837001:DOSServiceID:1340268940"
      } ],
      "timestamp": "2021-08-03T13:04:53.000+00:00",
      "source": {
        "name": "NHS 111 Adaptor",
        "endpoint": "http://localhost:8080/report"
      },
      "reason": {
        "coding": [ {
          "system": "urn:nhs-itk:ns:201005:interaction",
          "code": "urn:nhs-itk:interaction:primaryOutofHourRecipientNHS111CDADocument-v2-0"
        } ]
      }
    }
  }, {
    "fullUrl": "urn:uuid:5188df46-9270-4897-9c58-879f5cadcf92",
    "resource": {
      "resourceType": "Encounter",
      "id": "5188df46-9270-4897-9c58-879f5cadcf92",
      "identifier": [ {
        "system": "2.16.840.1.113883.2.1.3.2.4.18.49",
        "value": "0163118D-0756-4A98-8F34-458721C6481F"
      }, {
        "system": "2.16.840.1.113883.2.1.3.2.4.18.34",
        "value": "1766749"
      }, {
        "system": "2.16.840.1.113883.2.1.3.2.4.18.35",
        "value": "1766749"
      } ],
      "status": "finished",
      "type": [ {
        "text": "111 Encounter Referral"
      } ],
      "subject": {
        "reference": "urn:uuid:7233f988-564c-4f3b-b4b3-2679f3744be0"
      },
      "participant": [ {
        "type": [ {
          "coding": [ {
            "system": "http://hl7.org/fhir/ValueSet/encounter-participant-type",
            "code": "PPRF",
            "display": "Author"
          } ]
        } ],
        "individual": {
          "reference": "urn:uuid:57c8e291-af01-4658-8f0e-60e50be8e4fe"
        }
      } ],
      "period": {
        "start": "2021-08-03T12:35:22+00:00",
        "end": "2021-08-03T13:04:53+00:00"
      },
      "location": [ {
        "location": {
          "reference": "urn:uuid:a427eaa7-7764-418b-bca1-09a55efed9ea"
        },
        "status": "completed"
      } ],
      "serviceProvider": {
        "reference": "urn:uuid:86b4875e-5d55-409a-a52d-58883189b55d"
      }
    }
  }, {
    "fullUrl": "urn:uuid:86b4875e-5d55-409a-a52d-58883189b55d",
    "resource": {
      "resourceType": "Organization",
      "id": "86b4875e-5d55-409a-a52d-58883189b55d",
      "active": true,
      "type": [ {
        "text": "CST"
      } ],
      "name": "NWAS 111"
    }
  }, {
    "fullUrl": "urn:uuid:57c8e291-af01-4658-8f0e-60e50be8e4fe",
    "resource": {
      "resourceType": "Practitioner",
      "id": "57c8e291-af01-4658-8f0e-60e50be8e4fe",
      "active": true,
      "name": [ {
        "text": "AndrewJ.Walford"
      } ]
    }
  }, {
    "fullUrl": "urn:uuid:a427eaa7-7764-418b-bca1-09a55efed9ea",
    "resource": {
      "resourceType": "Location",
      "id": "a427eaa7-7764-418b-bca1-09a55efed9ea",
      "address": {
        "type": "physical",
        "line": [ "Fleetwood Health & Wellbeing Centre", "Dock Street", "Fleetwood" ],
        "postalCode": "FY7 6HP"
      }
    }
  }, {
    "fullUrl": "urn:uuid:7233f988-564c-4f3b-b4b3-2679f3744be0",
    "resource": {
      "resourceType": "Patient",
      "id": "7233f988-564c-4f3b-b4b3-2679f3744be0",
      "active": true,
      "name": [ {
        "use": "official",
        "family": "Please Disregard",
        "given": [ "Dx10 Test" ]
      } ],
      "telecom": [ {
        "system": "phone",
        "value": "tel:07798501130",
        "use": "mobile"
      }, {
        "system": "phone",
        "value": "tel:07798501130"
      } ],
      "gender": "male",
      "birthDate": "1980-01-01",
      "address": [ {
        "use": "home",
        "line": [ "Fleetwood Health & Wellbeing Centre", "Dock Street", "Fleetwood" ],
        "postalCode": "FY7 6HP"
      }, {
        "type": "physical",
        "line": [ "Fleetwood Health & Wellbeing Centre", "Dock Street", "Fleetwood" ],
        "postalCode": "FY7 6HP"
      } ]
    }
  }, {
    "fullUrl": "urn:uuid:c9f63c65-bebb-4d04-80b6-84fe1933c38f",
    "resource": {
      "resourceType": "HealthcareService",
      "id": "c9f63c65-bebb-4d04-80b6-84fe1933c38f",
      "active": true,
      "providedBy": {
        "reference": "urn:uuid:c6e5ed46-ac50-41d2-adcb-3ed6b65d324b"
      },
      "location": [ {
        "reference": "urn:uuid:5c2742c8-e0d6-4129-b57a-50773a9d46f9"
      } ],
      "name": "Urgent Treatment Centre - Minor Injury Unit Same Day Health Cent",
      "telecom": [ {
        "system": "phone",
        "value": "tel:03001231144NP:01253955551",
        "use": "work"
      } ]
    }
  }, {
    "fullUrl": "urn:uuid:5c2742c8-e0d6-4129-b57a-50773a9d46f9",
    "resource": {
      "resourceType": "Location",
      "id": "5c2742c8-e0d6-4129-b57a-50773a9d46f9",
      "telecom": [ {
        "system": "phone",
        "value": "tel:03001231144NP:01253955551",
        "use": "work"
      } ],
      "address": {
        "use": "work",
        "line": [ "x", "x", "x" ],
        "postalCode": "FY7 6HP"
      },
      "managingOrganization": {
        "reference": "urn:uuid:c6e5ed46-ac50-41d2-adcb-3ed6b65d324b"
      }
    }
  }, {
    "fullUrl": "urn:uuid:c6e5ed46-ac50-41d2-adcb-3ed6b65d324b",
    "resource": {
      "resourceType": "Organization",
      "id": "c6e5ed46-ac50-41d2-adcb-3ed6b65d324b",
      "identifier": [ {
        "value": "Y02837001"
      } ],
      "type": [ {
        "coding": [ {
          "code": "PRCP",
          "display": "Urgent Treatment Centre - Minor Injury Unit Same Day Health Cent"
        } ]
      } ],
      "name": "Urgent Treatment Centre - Minor Injury Unit Same Day Health Cent"
    }
  }, {
    "fullUrl": "urn:uuid:cb1db2b6-6e2e-4572-b0c2-791a9361b8f0",
    "resource": {
      "resourceType": "ReferralRequest",
      "id": "cb1db2b6-6e2e-4572-b0c2-791a9361b8f0",
      "status": "active",
      "intent": "plan",
      "priority": "routine",
      "subject": {
        "reference": "urn:uuid:7233f988-564c-4f3b-b4b3-2679f3744be0"
      },
      "context": {
        "reference": "urn:uuid:5188df46-9270-4897-9c58-879f5cadcf92"
      },
      "occurrencePeriod": {
        "start": "2021-08-03T13:04:53+00:00"
      },
      "authoredOn": "2021-08-03T12:35:22+00:00",
      "requester": {
        "agent": {
          "reference": "urn:uuid:910fe434-5ebe-4cab-ad21-103e89a00f2c"
        },
        "onBehalfOf": {
          "reference": "urn:uuid:86b4875e-5d55-409a-a52d-58883189b55d"
        }
      },
      "recipient": [ {
        "reference": "urn:uuid:c3d579cf-2338-44ca-8b2c-83d4da72fe36"
      }, {
        "reference": "urn:uuid:c9f63c65-bebb-4d04-80b6-84fe1933c38f"
      } ],
      "reasonReference": [ {
        "reference": "urn:uuid:1ff22198-f62d-433a-a8d2-1ee137da01e7"
      } ],
      "supportingInfo": [ {
        "reference": "urn:uuid:4769d20e-c668-4ec0-a071-cd862a313667"
      } ]
    }
  }, {
    "fullUrl": "urn:uuid:4769d20e-c668-4ec0-a071-cd862a313667",
    "resource": {
      "resourceType": "ProcedureRequest",
      "id": "4769d20e-c668-4ec0-a071-cd862a313667",
      "status": "active",
      "intent": "plan",
      "priority": "routine",
      "doNotPerform": false,
      "code": {
        "coding": [ {
          "system": "2.16.840.1.113883.2.1.3.2.4.17.325",
          "code": "Dx10",
          "display": "Must Contact A Local Service For A Non-urgent Appointment"
        } ]
      },
      "subject": {
        "reference": "urn:uuid:7233f988-564c-4f3b-b4b3-2679f3744be0"
      },
      "occurrencePeriod": {
        "start": "2021-08-03T13:04:53+00:00"
      },
      "reasonReference": [ {
        "reference": "urn:uuid:1ff22198-f62d-433a-a8d2-1ee137da01e7"
      } ]
    }
  }, {
    "fullUrl": "urn:uuid:c3d579cf-2338-44ca-8b2c-83d4da72fe36",
    "resource": {
      "resourceType": "Practitioner",
      "id": "c3d579cf-2338-44ca-8b2c-83d4da72fe36",
      "active": true,
      "telecom": [ {
        "system": "phone",
        "value": "tel:03001231144NP:01253955551",
        "use": "work"
      } ],
      "address": [ {
        "type": "physical",
        "line": [ "x", "x", "x" ],
        "postalCode": "FY7 6HP"
      } ]
    }
  }, {
    "fullUrl": "urn:uuid:7b33fab7-4828-4e2c-a4c0-d6c07337d3d3",
    "resource": {
      "resourceType": "Composition",
      "id": "7b33fab7-4828-4e2c-a4c0-d6c07337d3d3",
      "identifier": {
        "use": "usual",
        "value": "DEF337D1-08BF-4631-B11E-28F64349A031"
      },
      "status": "final",
      "type": {
        "coding": [ {
          "system": "http://snomed.info/sct",
          "code": "371531000",
          "display": "Report of clinical encounter (record artifact)"
        } ]
      },
      "subject": {
        "reference": "urn:uuid:7233f988-564c-4f3b-b4b3-2679f3744be0"
      },
      "encounter": {
        "reference": "urn:uuid:5188df46-9270-4897-9c58-879f5cadcf92"
      },
      "date": "2021-08-03T13:04:53+00:00",
      "author": [ {
        "reference": "urn:uuid:57c8e291-af01-4658-8f0e-60e50be8e4fe"
      } ],
      "title": "111 Report",
      "confidentiality": "N",
      "section": [ {
        "section": [ {
          "title": "Patient's Reported Condition",
          "text": {
            "status": "generated",
            "div": "<div xmlns=\"http://www.w3.org/1999/xhtml\">**test From Nwas111 - No Action Required - Please Disregard Test</div>"
          }
        }, {
          "title": "Case Summary",
          "text": {
            "status": "generated",
            "div": "<div xmlns=\"http://www.w3.org/1999/xhtml\">&lt;content styleCode=&quot;bold&quot;&gt;Pathways Disposition: Dx10&lt;/content&gt;\n                                                    &lt;br/&gt;\n                                                    &lt;content&gt;Must Contact A Local Service For A Non-urgent Appointment User comment - '**Test From NWAS111 - No Action required - Please Disregard Test case**'&lt;/content&gt;\n                                                    &lt;br/&gt;\n                                                    &lt;br/&gt;\n                                                    &lt;content styleCode=&quot;bold&quot;&gt;Consultation Summary:&lt;/content&gt;\n                                                    &lt;br/&gt;\n                                                    &lt;content&gt;Illness - '**Test From NWAS111 - No Action required - Please Disregard Test case**'&lt;/content&gt;\n                                                    &lt;br/&gt;\n                                                    &lt;content&gt;Warm to touch&lt;/content&gt;\n                                                    &lt;br/&gt;\n                                                    &lt;br/&gt;\n                                                    &lt;content styleCode=&quot;bold&quot;&gt;Pathways Assessment:&lt;/content&gt;\n                                                    &lt;br/&gt;\n                                                    &lt;content&gt;An injury or health problem was the reason for the contact.&lt;/content&gt;\n                                                    &lt;br/&gt;\n                                                    &lt;content&gt;User comment - '**Test From NWAS111 - No Action required - Please Disregard Test case**'&lt;/content&gt;\n                                                    &lt;br/&gt;\n                                                    &lt;content&gt;Heavy bleeding had not occurred in the previous 2 hours.&lt;/content&gt;\n                                                    &lt;br/&gt;\n                                                    &lt;content&gt;An illness or health problem was the main problem.&lt;/content&gt;\n                                                    &lt;br/&gt;\n                                                    &lt;content&gt;User comment - '**Test From NWAS111 - No Action required - Please Disregard Test case**'&lt;/content&gt;\n                                                    &lt;br/&gt;\n                                                    &lt;content&gt;The individual was not fighting for breath.&lt;/content&gt;\n                                                    &lt;br/&gt;\n                                                    &lt;content&gt;The main reason for the assessment was not an allergic reaction, heart attack, chest/upper back pain, probable stroke, recent fit/seizure or suicide attempt.&lt;/content&gt;\n                                                    &lt;br/&gt;\n                                                    &lt;content&gt;The main reason for contact was not new confusion, declared diabetic hypo/hyperglycaemia, or ICD shock.&lt;/content&gt;\n                                                    &lt;br/&gt;\n                                                    &lt;content&gt;The skin on the torso felt normal, warm or hot.&lt;/content&gt;\n                                                    &lt;br/&gt;\n                                                    &lt;content&gt;Pathway selected - Difficulty Passing Urine&lt;/content&gt;\n                                                    &lt;br/&gt;\n                                                    &lt;content&gt;The individual was able to carry out most or all normal activities.&lt;/content&gt;\n                                                    &lt;br/&gt;\n                                                    &lt;content&gt;There was no new loss of bowel control or leg movement and no saddle or lower limb paraesthesia.&lt;/content&gt;\n                                                    &lt;br/&gt;\n                                                    &lt;content&gt;There was no inability to pass urine over the last 12 hours.&lt;/content&gt;\n                                                    &lt;br/&gt;\n                                                    &lt;content&gt;There was no new or worsening confusion.&lt;/content&gt;\n                                                    &lt;br/&gt;\n                                                    &lt;content&gt;Breathing harder or faster when doing nothing was not described.&lt;/content&gt;\n                                                    &lt;br/&gt;\n                                                    &lt;content&gt;There was no spinal pain.&lt;/content&gt;\n                                                    &lt;br/&gt;\n                                                    &lt;content&gt;The pain was not getting worse.&lt;/content&gt;\n                                                    &lt;br/&gt;\n                                                    &lt;content&gt;There was no fever at the time of assessment or within the previous 12 hours.&lt;/content&gt;\n                                                    &lt;br/&gt;\n                                                    &lt;content&gt;The individual had not experienced a back injury within the previous 4 weeks.&lt;/content&gt;\n                                                    &lt;br/&gt;\n                                                    &lt;content&gt;Medication type or dosage had not changed within the previous 2 weeks.&lt;/content&gt;\n                                                    &lt;br/&gt;\n                                                    &lt;content&gt;User comment - 'Urgent Treatment Centre - Same Day Health Centre - Fleetwood'&lt;/content&gt;\n                                                    &lt;br/&gt;\n                                                    &lt;br/&gt;\n                                                    &lt;content styleCode=&quot;bold&quot;&gt;Advice Given:&lt;/content&gt;\n                                                    &lt;br/&gt;\n                                                    &lt;content&gt;Unless advised not to, paracetamol may be used to relieve pain or fever. Follow the instructions in the pack. If in doubt ask a pharmacist.&lt;/content&gt;\n                                                    &lt;br/&gt;\n                                                    &lt;br/&gt;</div>"
          }
        } ]
      }, {
        "title": "ReferralRequest",
        "entry": [ {
          "reference": "urn:uuid:cb1db2b6-6e2e-4572-b0c2-791a9361b8f0"
        } ]
      }, {
        "title": "QuestionnaireResponse",
        "entry": [ {
          "reference": "urn:uuid:5f6000c9-c461-4c2b-99c3-561078d749b7"
        } ]
      }, {
        "title": "QuestionnaireResponse",
        "entry": [ {
          "reference": "urn:uuid:d16a17bd-5ffa-435f-ab3e-fbbdd9b7c560"
        } ]
      }, {
        "title": "QuestionnaireResponse",
        "entry": [ {
          "reference": "urn:uuid:34ff49a8-1e65-4073-90ba-343dd4c9d476"
        } ]
      }, {
        "title": "QuestionnaireResponse",
        "entry": [ {
          "reference": "urn:uuid:e10561ee-8ac6-41b2-824a-12c0574ff8f2"
        } ]
      }, {
        "title": "QuestionnaireResponse",
        "entry": [ {
          "reference": "urn:uuid:288ad32f-fde6-4d9d-8d52-a3150087420c"
        } ]
      }, {
        "title": "QuestionnaireResponse",
        "entry": [ {
          "reference": "urn:uuid:963b2e52-ff59-4ded-8425-aec05d90e44a"
        } ]
      }, {
        "title": "QuestionnaireResponse",
        "entry": [ {
          "reference": "urn:uuid:b913c892-7f25-49cf-adee-4b28d81bb5b3"
        } ]
      }, {
        "title": "QuestionnaireResponse",
        "entry": [ {
          "reference": "urn:uuid:735c9904-c3ad-4bad-98e3-31c0ca7715a8"
        } ]
      }, {
        "title": "QuestionnaireResponse",
        "entry": [ {
          "reference": "urn:uuid:e96c4a16-304e-40e5-8a32-918e94cccd97"
        } ]
      }, {
        "title": "QuestionnaireResponse",
        "entry": [ {
          "reference": "urn:uuid:fc4b3291-c88a-46c4-872e-9f70c078e610"
        } ]
      }, {
        "title": "QuestionnaireResponse",
        "entry": [ {
          "reference": "urn:uuid:a03639d4-16a6-4756-b662-ac75d3127bda"
        } ]
      }, {
        "title": "QuestionnaireResponse",
        "entry": [ {
          "reference": "urn:uuid:e118ad9b-6301-48d3-8c1c-38dd15c04863"
        } ]
      }, {
        "title": "QuestionnaireResponse",
        "entry": [ {
          "reference": "urn:uuid:1b28106b-e201-4c97-aa61-b37b388fc440"
        } ]
      }, {
        "title": "QuestionnaireResponse",
        "entry": [ {
          "reference": "urn:uuid:10156d97-1eb5-4934-8076-ab4aa73623a7"
        } ]
      }, {
        "title": "QuestionnaireResponse",
        "entry": [ {
          "reference": "urn:uuid:5e3071bb-0bcb-40e3-b8a6-9fd6f7b95c6d"
        } ]
      }, {
        "title": "QuestionnaireResponse",
        "entry": [ {
          "reference": "urn:uuid:75d74226-ec5f-492f-b696-e442eb396797"
        } ]
      }, {
        "title": "QuestionnaireResponse",
        "entry": [ {
          "reference": "urn:uuid:18a5e906-475f-4875-8187-43d0961c0b0f"
        } ]
      }, {
        "title": "QuestionnaireResponse",
        "entry": [ {
          "reference": "urn:uuid:bf68940b-2c92-458c-be28-11215a3e111f"
        } ]
      }, {
        "title": "QuestionnaireResponse",
        "entry": [ {
          "reference": "urn:uuid:80c0555b-6552-414c-b128-bb36e45d21d5"
        } ]
      }, {
        "title": "QuestionnaireResponse",
        "entry": [ {
          "reference": "urn:uuid:70a23794-ec0c-411f-9cdc-eb398a473cd7"
        } ]
      }, {
        "title": "QuestionnaireResponse",
        "entry": [ {
          "reference": "urn:uuid:8cc5c87c-d03c-477b-a304-0b1dc2b5eb2f"
        } ]
      }, {
        "title": "QuestionnaireResponse",
        "entry": [ {
          "reference": "urn:uuid:72c0dfc5-9477-44fb-bcd7-e07ac3076983"
        } ]
      }, {
        "title": "QuestionnaireResponse",
        "entry": [ {
          "reference": "urn:uuid:67d87079-3f7a-404f-a41d-50215db66969"
        } ]
      }, {
        "title": "QuestionnaireResponse",
        "entry": [ {
          "reference": "urn:uuid:c40568e6-9ae3-43b0-96ee-a9f70d588c61"
        } ]
      }, {
        "title": "QuestionnaireResponse",
        "entry": [ {
          "reference": "urn:uuid:1476ef3e-5b9b-4eb0-9107-2a45a5430b9a"
        } ]
      }, {
        "title": "QuestionnaireResponse",
        "entry": [ {
          "reference": "urn:uuid:b9eea3e5-646f-40b0-b082-683780ad0b95"
        } ]
      }, {
        "title": "QuestionnaireResponse",
        "entry": [ {
          "reference": "urn:uuid:9a1326a8-e676-4b3a-85d4-2bb28bd13731"
        } ]
      }, {
        "title": "QuestionnaireResponse",
        "entry": [ {
          "reference": "urn:uuid:d16460c0-049f-4db0-a24b-243e21ab1e52"
        } ]
      }, {
        "title": "QuestionnaireResponse",
        "entry": [ {
          "reference": "urn:uuid:999a765f-fc10-4e97-b0ef-393b9423e282"
        } ]
      }, {
        "title": "QuestionnaireResponse",
        "entry": [ {
          "reference": "urn:uuid:59856cfb-c306-44b8-8d41-c201c4aa632b"
        } ]
      }, {
        "title": "QuestionnaireResponse",
        "entry": [ {
          "reference": "urn:uuid:8078ff40-f464-4de3-adc2-3d58bae305bf"
        } ]
      }, {
        "title": "QuestionnaireResponse",
        "entry": [ {
          "reference": "urn:uuid:f6dac07b-a00a-4c32-96a2-edc49f85e93a"
        } ]
      } ]
    }
  }, {
    "fullUrl": "urn:uuid:5b9859ab-cc46-4705-a84a-4fa92af126ae",
    "resource": {
      "resourceType": "Consent",
      "id": "5b9859ab-cc46-4705-a84a-4fa92af126ae",
      "identifier": {
        "use": "usual",
        "value": "DEF337D1-08BF-4631-B11E-28F64349A031"
      },
      "status": "active",
      "patient": {
        "reference": "urn:uuid:7233f988-564c-4f3b-b4b3-2679f3744be0"
      },
      "period": {
        "start": "2021-08-03T12:35:22+00:00",
        "end": "2021-08-03T13:04:53+00:00"
      },
      "consentingParty": [ {
        "reference": "urn:uuid:7233f988-564c-4f3b-b4b3-2679f3744be0"
      } ],
      "action": [ {
        "coding": [ {
          "system": "http://snomed.info/sct",
          "code": "425691002",
          "display": "Consent given for electronic record sharing"
        } ],
        "text": "Consent given for electronic record sharing"
      } ],
      "organization": [ {
        "reference": "urn:uuid:86b4875e-5d55-409a-a52d-58883189b55d"
      } ],
      "policyRule": "http://hl7.org/fhir/ConsentPolicy/opt-out",
      "data": [ {
        "meaning": "related",
        "reference": {
          "reference": "urn:uuid:5188df46-9270-4897-9c58-879f5cadcf92"
        }
      } ]
    }
  }, {
    "fullUrl": "urn:uuid:1ff22198-f62d-433a-a8d2-1ee137da01e7",
    "resource": {
      "resourceType": "Condition",
      "id": "1ff22198-f62d-433a-a8d2-1ee137da01e7",
      "clinicalStatus": "active",
      "verificationStatus": "unknown",
      "subject": {
        "reference": "urn:uuid:7233f988-564c-4f3b-b4b3-2679f3744be0"
      },
      "context": {
        "reference": "urn:uuid:5188df46-9270-4897-9c58-879f5cadcf92"
      },
      "evidence": [ {
        "detail": [ {
          "reference": "urn:uuid:5f6000c9-c461-4c2b-99c3-561078d749b7"
        } ]
      }, {
        "detail": [ {
          "reference": "urn:uuid:d16a17bd-5ffa-435f-ab3e-fbbdd9b7c560"
        } ]
      }, {
        "detail": [ {
          "reference": "urn:uuid:34ff49a8-1e65-4073-90ba-343dd4c9d476"
        } ]
      }, {
        "detail": [ {
          "reference": "urn:uuid:e10561ee-8ac6-41b2-824a-12c0574ff8f2"
        } ]
      }, {
        "detail": [ {
          "reference": "urn:uuid:288ad32f-fde6-4d9d-8d52-a3150087420c"
        } ]
      }, {
        "detail": [ {
          "reference": "urn:uuid:963b2e52-ff59-4ded-8425-aec05d90e44a"
        } ]
      }, {
        "detail": [ {
          "reference": "urn:uuid:b913c892-7f25-49cf-adee-4b28d81bb5b3"
        } ]
      }, {
        "detail": [ {
          "reference": "urn:uuid:735c9904-c3ad-4bad-98e3-31c0ca7715a8"
        } ]
      }, {
        "detail": [ {
          "reference": "urn:uuid:e96c4a16-304e-40e5-8a32-918e94cccd97"
        } ]
      }, {
        "detail": [ {
          "reference": "urn:uuid:fc4b3291-c88a-46c4-872e-9f70c078e610"
        } ]
      }, {
        "detail": [ {
          "reference": "urn:uuid:a03639d4-16a6-4756-b662-ac75d3127bda"
        } ]
      }, {
        "detail": [ {
          "reference": "urn:uuid:e118ad9b-6301-48d3-8c1c-38dd15c04863"
        } ]
      }, {
        "detail": [ {
          "reference": "urn:uuid:1b28106b-e201-4c97-aa61-b37b388fc440"
        } ]
      }, {
        "detail": [ {
          "reference": "urn:uuid:10156d97-1eb5-4934-8076-ab4aa73623a7"
        } ]
      }, {
        "detail": [ {
          "reference": "urn:uuid:5e3071bb-0bcb-40e3-b8a6-9fd6f7b95c6d"
        } ]
      }, {
        "detail": [ {
          "reference": "urn:uuid:75d74226-ec5f-492f-b696-e442eb396797"
        } ]
      }, {
        "detail": [ {
          "reference": "urn:uuid:18a5e906-475f-4875-8187-43d0961c0b0f"
        } ]
      }, {
        "detail": [ {
          "reference": "urn:uuid:bf68940b-2c92-458c-be28-11215a3e111f"
        } ]
      }, {
        "detail": [ {
          "reference": "urn:uuid:80c0555b-6552-414c-b128-bb36e45d21d5"
        } ]
      }, {
        "detail": [ {
          "reference": "urn:uuid:70a23794-ec0c-411f-9cdc-eb398a473cd7"
        } ]
      }, {
        "detail": [ {
          "reference": "urn:uuid:8cc5c87c-d03c-477b-a304-0b1dc2b5eb2f"
        } ]
      }, {
        "detail": [ {
          "reference": "urn:uuid:72c0dfc5-9477-44fb-bcd7-e07ac3076983"
        } ]
      }, {
        "detail": [ {
          "reference": "urn:uuid:67d87079-3f7a-404f-a41d-50215db66969"
        } ]
      }, {
        "detail": [ {
          "reference": "urn:uuid:c40568e6-9ae3-43b0-96ee-a9f70d588c61"
        } ]
      }, {
        "detail": [ {
          "reference": "urn:uuid:1476ef3e-5b9b-4eb0-9107-2a45a5430b9a"
        } ]
      }, {
        "detail": [ {
          "reference": "urn:uuid:b9eea3e5-646f-40b0-b082-683780ad0b95"
        } ]
      }, {
        "detail": [ {
          "reference": "urn:uuid:9a1326a8-e676-4b3a-85d4-2bb28bd13731"
        } ]
      }, {
        "detail": [ {
          "reference": "urn:uuid:d16460c0-049f-4db0-a24b-243e21ab1e52"
        } ]
      }, {
        "detail": [ {
          "reference": "urn:uuid:999a765f-fc10-4e97-b0ef-393b9423e282"
        } ]
      }, {
        "detail": [ {
          "reference": "urn:uuid:59856cfb-c306-44b8-8d41-c201c4aa632b"
        } ]
      }, {
        "detail": [ {
          "reference": "urn:uuid:8078ff40-f464-4de3-adc2-3d58bae305bf"
        } ]
      }, {
        "detail": [ {
          "reference": "urn:uuid:f6dac07b-a00a-4c32-96a2-edc49f85e93a"
        } ]
      } ]
    }
  }, {
    "fullUrl": "urn:uuid:5f6000c9-c461-4c2b-99c3-561078d749b7",
    "resource": {
      "resourceType": "QuestionnaireResponse",
      "id": "5f6000c9-c461-4c2b-99c3-561078d749b7",
      "identifier": {
        "value": "1766749"
      },
      "questionnaire": {
        "reference": "urn:uuid:2b3299de-860f-42e3-8a42-966be3fb8458"
      },
      "status": "completed",
      "subject": {
        "reference": "urn:uuid:7233f988-564c-4f3b-b4b3-2679f3744be0"
      },
      "context": {
        "reference": "urn:uuid:5188df46-9270-4897-9c58-879f5cadcf92"
      },
      "authored": "2021-08-03T13:04:53+00:00",
      "item": [ {
        "linkId": "Tx220109",
        "text": "What is the reason for the contact?",
        "answer": [ {
          "valueString": "an injury or other health problem"
        } ]
      } ]
    }
  }, {
    "fullUrl": "urn:uuid:2b3299de-860f-42e3-8a42-966be3fb8458",
    "resource": {
      "resourceType": "Questionnaire",
      "id": "2b3299de-860f-42e3-8a42-966be3fb8458",
      "identifier": [ {
        "value": "1766749"
      } ],
      "version": "2021-08-03T13:04:53.000Z",
      "status": "active",
      "experimental": false,
      "date": "2021-08-03T13:04:53+00:00",
      "publisher": "User ID: '922' User name: 'AndrewJ.Walford' User skill set: 'T4'",
      "lastReviewDate": "2021-08-03",
      "contact": [ {
        "telecom": [ {
          "system": "phone",
          "value": "07798501130"
        } ]
      } ],
      "subjectType": [ "Patient" ],
      "item": [ {
        "linkId": "1766749",
        "prefix": "5",
        "text": "What is the reason for the contact?",
        "type": "choice",
        "required": true,
        "repeats": false,
        "option": [ {
          "valueString": "an injury or other health problem, Selected: true"
        }, {
          "valueString": "a need to access another healthcare service, Selected: false"
        }, {
          "valueString": "a healthcare professional requesting contact with another clinician, Selected: false"
        }, {
          "valueString": "a report of results or tests, Selected: false"
        }, {
          "valueString": "more, Selected: false"
        } ]
      } ]
    }
  }, {
    "fullUrl": "urn:uuid:d16a17bd-5ffa-435f-ab3e-fbbdd9b7c560",
    "resource": {
      "resourceType": "QuestionnaireResponse",
      "id": "d16a17bd-5ffa-435f-ab3e-fbbdd9b7c560",
      "identifier": {
        "value": "1766749"
      },
      "questionnaire": {
        "reference": "urn:uuid:ef9db948-139b-4061-ac4b-a7a4a36c4193"
      },
      "status": "completed",
      "subject": {
        "reference": "urn:uuid:7233f988-564c-4f3b-b4b3-2679f3744be0"
      },
      "context": {
        "reference": "urn:uuid:5188df46-9270-4897-9c58-879f5cadcf92"
      },
      "authored": "2021-08-03T13:04:53+00:00",
      "item": [ {
        "linkId": "Tx221788",
        "text": "STRING:to'ImmediateThreatsToLife(SPA/OOHversion)'-'ABC'menu",
        "answer": [ {
          "valueString": "\"\"present\"\""
        } ]
      } ]
    }
  }, {
    "fullUrl": "urn:uuid:ef9db948-139b-4061-ac4b-a7a4a36c4193",
    "resource": {
      "resourceType": "Questionnaire",
      "id": "ef9db948-139b-4061-ac4b-a7a4a36c4193",
      "identifier": [ {
        "value": "1766749"
      } ],
      "version": "2021-08-03T13:04:53.000Z",
      "status": "active",
      "experimental": false,
      "date": "2021-08-03T13:04:53+00:00",
      "publisher": "User ID: '922' User name: 'AndrewJ.Walford' User skill set: 'T4'",
      "lastReviewDate": "2021-08-03",
      "contact": [ {
        "telecom": [ {
          "system": "phone",
          "value": "07798501130"
        } ]
      } ],
      "subjectType": [ "Patient" ],
      "item": [ {
        "linkId": "1766749",
        "prefix": "500",
        "text": "STRING:to'ImmediateThreatsToLife(SPA/OOHversion)'-'ABC'menu",
        "type": "choice",
        "required": true,
        "repeats": false,
        "option": [ {
          "valueString": "\"\"present\"\", Selected: true"
        } ]
      } ]
    }
  }, {
    "fullUrl": "urn:uuid:34ff49a8-1e65-4073-90ba-343dd4c9d476",
    "resource": {
      "resourceType": "QuestionnaireResponse",
      "id": "34ff49a8-1e65-4073-90ba-343dd4c9d476",
      "identifier": {
        "value": "1766749"
      },
      "questionnaire": {
        "reference": "urn:uuid:a1643b41-a425-4ed3-91e0-5d3f52156e38"
      },
      "status": "completed",
      "subject": {
        "reference": "urn:uuid:7233f988-564c-4f3b-b4b3-2679f3744be0"
      },
      "context": {
        "reference": "urn:uuid:5188df46-9270-4897-9c58-879f5cadcf92"
      },
      "authored": "2021-08-03T13:04:53+00:00",
      "item": [ {
        "linkId": "Tx221814",
        "text": "STRING:aninjuryorotherhealthproblemestablishedinEntryFlow",
        "answer": [ {
          "valueString": "\"\"present\"\""
        } ]
      } ]
    }
  }, {
    "fullUrl": "urn:uuid:a1643b41-a425-4ed3-91e0-5d3f52156e38",
    "resource": {
      "resourceType": "Questionnaire",
      "id": "a1643b41-a425-4ed3-91e0-5d3f52156e38",
      "identifier": [ {
        "value": "1766749"
      } ],
      "version": "2021-08-03T13:04:53.000Z",
      "status": "active",
      "experimental": false,
      "date": "2021-08-03T13:04:53+00:00",
      "publisher": "User ID: '922' User name: 'AndrewJ.Walford' User skill set: 'T4'",
      "lastReviewDate": "2021-08-03",
      "contact": [ {
        "telecom": [ {
          "system": "phone",
          "value": "07798501130"
        } ]
      } ],
      "subjectType": [ "Patient" ],
      "item": [ {
        "linkId": "1766749",
        "prefix": "0",
        "text": "STRING:aninjuryorotherhealthproblemestablishedinEntryFlow",
        "type": "choice",
        "required": true,
        "repeats": false,
        "option": [ {
          "valueString": "\"\"present\"\", Selected: true"
        } ]
      } ]
    }
  }, {
    "fullUrl": "urn:uuid:e10561ee-8ac6-41b2-824a-12c0574ff8f2",
    "resource": {
      "resourceType": "QuestionnaireResponse",
      "id": "e10561ee-8ac6-41b2-824a-12c0574ff8f2",
      "identifier": {
        "value": "1766749"
      },
      "questionnaire": {
        "reference": "urn:uuid:5dd3c4f6-9cf6-48f0-8197-cfa87e0931bb"
      },
      "status": "completed",
      "subject": {
        "reference": "urn:uuid:7233f988-564c-4f3b-b4b3-2679f3744be0"
      },
      "context": {
        "reference": "urn:uuid:5188df46-9270-4897-9c58-879f5cadcf92"
      },
      "authored": "2021-08-03T13:04:53+00:00",
      "item": [ {
        "linkId": "Tx224120",
        "text": "Have you been bleeding RED BLOOD very heavily IN THE LAST 2 HOURS?",
        "answer": [ {
          "valueString": "no"
        } ]
      } ]
    }
  }, {
    "fullUrl": "urn:uuid:5dd3c4f6-9cf6-48f0-8197-cfa87e0931bb",
    "resource": {
      "resourceType": "Questionnaire",
      "id": "5dd3c4f6-9cf6-48f0-8197-cfa87e0931bb",
      "identifier": [ {
        "value": "1766749"
      } ],
      "version": "2021-08-03T13:04:53.000Z",
      "status": "active",
      "experimental": false,
      "date": "2021-08-03T13:04:53+00:00",
      "publisher": "User ID: '922' User name: 'AndrewJ.Walford' User skill set: 'T4'",
      "lastReviewDate": "2021-08-03",
      "contact": [ {
        "telecom": [ {
          "system": "phone",
          "value": "07798501130"
        } ]
      } ],
      "subjectType": [ "Patient" ],
      "item": [ {
        "linkId": "1766749",
        "prefix": "7000",
        "text": "Have you been bleeding RED BLOOD very heavily IN THE LAST 2 HOURS?",
        "type": "choice",
        "required": true,
        "repeats": false,
        "option": [ {
          "valueString": "yes, Selected: false"
        }, {
          "valueString": "not sure, Selected: false"
        }, {
          "valueString": "no, Selected: true"
        } ]
      } ]
    }
  }, {
    "fullUrl": "urn:uuid:288ad32f-fde6-4d9d-8d52-a3150087420c",
    "resource": {
      "resourceType": "QuestionnaireResponse",
      "id": "288ad32f-fde6-4d9d-8d52-a3150087420c",
      "identifier": {
        "value": "1766749"
      },
      "questionnaire": {
        "reference": "urn:uuid:51288d4a-bbfc-4612-bcfd-b089cab49988"
      },
      "status": "completed",
      "subject": {
        "reference": "urn:uuid:7233f988-564c-4f3b-b4b3-2679f3744be0"
      },
      "context": {
        "reference": "urn:uuid:5188df46-9270-4897-9c58-879f5cadcf92"
      },
      "authored": "2021-08-03T13:04:53+00:00",
      "item": [ {
        "linkId": "Tx221343",
        "text": "SocialConcernsExcluded",
        "answer": [ {
          "valueString": "*"
        } ]
      } ]
    }
  }, {
    "fullUrl": "urn:uuid:51288d4a-bbfc-4612-bcfd-b089cab49988",
    "resource": {
      "resourceType": "Questionnaire",
      "id": "51288d4a-bbfc-4612-bcfd-b089cab49988",
      "identifier": [ {
        "value": "1766749"
      } ],
      "version": "2021-08-03T13:04:53.000Z",
      "status": "active",
      "experimental": false,
      "date": "2021-08-03T13:04:53+00:00",
      "publisher": "User ID: '922' User name: 'AndrewJ.Walford' User skill set: 'T4'",
      "lastReviewDate": "2021-08-03",
      "contact": [ {
        "telecom": [ {
          "system": "phone",
          "value": "07798501130"
        } ]
      } ],
      "subjectType": [ "Patient" ],
      "item": [ {
        "linkId": "1766749",
        "prefix": "2700",
        "text": "SocialConcernsExcluded",
        "type": "choice",
        "required": true,
        "repeats": false,
        "option": [ {
          "valueString": "==\"\"present\"\", Selected: false"
        }, {
          "valueString": "*, Selected: true"
        } ]
      } ]
    }
  }, {
    "fullUrl": "urn:uuid:963b2e52-ff59-4ded-8425-aec05d90e44a",
    "resource": {
      "resourceType": "QuestionnaireResponse",
      "id": "963b2e52-ff59-4ded-8425-aec05d90e44a",
      "identifier": {
        "value": "1766749"
      },
      "questionnaire": {
        "reference": "urn:uuid:d7f18b45-399d-4842-b8c9-482ed40e043d"
      },
      "status": "completed",
      "subject": {
        "reference": "urn:uuid:7233f988-564c-4f3b-b4b3-2679f3744be0"
      },
      "context": {
        "reference": "urn:uuid:5188df46-9270-4897-9c58-879f5cadcf92"
      },
      "authored": "2021-08-03T13:04:53+00:00",
      "item": [ {
        "linkId": "Tx130011",
        "text": "What is the main problem?",
        "answer": [ {
          "valueString": "illness or other health problem (specify)"
        } ]
      } ]
    }
  }, {
    "fullUrl": "urn:uuid:d7f18b45-399d-4842-b8c9-482ed40e043d",
    "resource": {
      "resourceType": "Questionnaire",
      "id": "d7f18b45-399d-4842-b8c9-482ed40e043d",
      "identifier": [ {
        "value": "1766749"
      } ],
      "version": "2021-08-03T13:04:53.000Z",
      "status": "active",
      "experimental": false,
      "date": "2021-08-03T13:04:53+00:00",
      "publisher": "User ID: '922' User name: 'AndrewJ.Walford' User skill set: 'T4'",
      "lastReviewDate": "2021-08-03",
      "contact": [ {
        "telecom": [ {
          "system": "phone",
          "value": "07798501130"
        } ]
      } ],
      "subjectType": [ "Patient" ],
      "item": [ {
        "linkId": "1766749",
        "prefix": "3400",
        "text": "What is the main problem?",
        "type": "choice",
        "required": true,
        "repeats": false,
        "option": [ {
          "valueString": "the individual has been told to follow a particular course of action (specify), Selected: false"
        }, {
          "valueString": "the individual is an identified frequent caller, Selected: false"
        }, {
          "valueString": "injury (specify), Selected: false"
        }, {
          "valueString": "illness or other health problem (specify), Selected: true"
        }, {
          "valueString": "child protection/vulnerable adult concern, Selected: false"
        }, {
          "valueString": "social or domestic emergency, Selected: false"
        }, {
          "valueString": "the environment potentially poses an immediate threat to life (specify), Selected: false"
        } ]
      } ]
    }
  }, {
    "fullUrl": "urn:uuid:b913c892-7f25-49cf-adee-4b28d81bb5b3",
    "resource": {
      "resourceType": "QuestionnaireResponse",
      "id": "b913c892-7f25-49cf-adee-4b28d81bb5b3",
      "identifier": {
        "value": "1766749"
      },
      "questionnaire": {
        "reference": "urn:uuid:1a4262a6-f076-4d3b-8974-5ba6d0f62c98"
      },
      "status": "completed",
      "subject": {
        "reference": "urn:uuid:7233f988-564c-4f3b-b4b3-2679f3744be0"
      },
      "context": {
        "reference": "urn:uuid:5188df46-9270-4897-9c58-879f5cadcf92"
      },
      "authored": "2021-08-03T13:04:53+00:00",
      "item": [ {
        "linkId": "Tx61025",
        "text": "Are you so breathless that speaking more than a few words is impossible?",
        "answer": [ {
          "valueString": "no"
        } ]
      } ]
    }
  }, {
    "fullUrl": "urn:uuid:1a4262a6-f076-4d3b-8974-5ba6d0f62c98",
    "resource": {
      "resourceType": "Questionnaire",
      "id": "1a4262a6-f076-4d3b-8974-5ba6d0f62c98",
      "identifier": [ {
        "value": "1766749"
      } ],
      "version": "2021-08-03T13:04:53.000Z",
      "status": "active",
      "experimental": false,
      "date": "2021-08-03T13:04:53+00:00",
      "publisher": "User ID: '922' User name: 'AndrewJ.Walford' User skill set: 'T4'",
      "lastReviewDate": "2021-08-03",
      "contact": [ {
        "telecom": [ {
          "system": "phone",
          "value": "07798501130"
        } ]
      } ],
      "subjectType": [ "Patient" ],
      "item": [ {
        "linkId": "1766749",
        "prefix": "0",
        "text": "Are you so breathless that speaking more than a few words is impossible?",
        "type": "choice",
        "required": true,
        "repeats": false,
        "option": [ {
          "valueString": "yes, Selected: false"
        }, {
          "valueString": "not sure, Selected: false"
        }, {
          "valueString": "no, Selected: true"
        } ]
      } ]
    }
  }, {
    "fullUrl": "urn:uuid:735c9904-c3ad-4bad-98e3-31c0ca7715a8",
    "resource": {
      "resourceType": "QuestionnaireResponse",
      "id": "735c9904-c3ad-4bad-98e3-31c0ca7715a8",
      "identifier": {
        "value": "1766749"
      },
      "questionnaire": {
        "reference": "urn:uuid:251f7b46-d7db-4799-9365-0a26bef817df"
      },
      "status": "completed",
      "subject": {
        "reference": "urn:uuid:7233f988-564c-4f3b-b4b3-2679f3744be0"
      },
      "context": {
        "reference": "urn:uuid:5188df46-9270-4897-9c58-879f5cadcf92"
      },
      "authored": "2021-08-03T13:04:53+00:00",
      "item": [ {
        "linkId": "Tx220845",
        "text": "SYSTEM_FLUPANDEMIC",
        "answer": [ {
          "valueString": "*"
        } ]
      } ]
    }
  }, {
    "fullUrl": "urn:uuid:251f7b46-d7db-4799-9365-0a26bef817df",
    "resource": {
      "resourceType": "Questionnaire",
      "id": "251f7b46-d7db-4799-9365-0a26bef817df",
      "identifier": [ {
        "value": "1766749"
      } ],
      "version": "2021-08-03T13:04:53.000Z",
      "status": "active",
      "experimental": false,
      "date": "2021-08-03T13:04:53+00:00",
      "publisher": "User ID: '922' User name: 'AndrewJ.Walford' User skill set: 'T4'",
      "lastReviewDate": "2021-08-03",
      "contact": [ {
        "telecom": [ {
          "system": "phone",
          "value": "07798501130"
        } ]
      } ],
      "subjectType": [ "Patient" ],
      "item": [ {
        "linkId": "1766749",
        "prefix": "100",
        "text": "SYSTEM_FLUPANDEMIC",
        "type": "choice",
        "required": true,
        "repeats": false,
        "option": [ {
          "valueString": "==\"\"pandemic\"\", Selected: false"
        }, {
          "valueString": "*, Selected: true"
        } ]
      } ]
    }
  }, {
    "fullUrl": "urn:uuid:e96c4a16-304e-40e5-8a32-918e94cccd97",
    "resource": {
      "resourceType": "QuestionnaireResponse",
      "id": "e96c4a16-304e-40e5-8a32-918e94cccd97",
      "identifier": {
        "value": "1766749"
      },
      "questionnaire": {
        "reference": "urn:uuid:ffe9f4b9-8e2e-4f9f-8ebd-0620cb035d70"
      },
      "status": "completed",
      "subject": {
        "reference": "urn:uuid:7233f988-564c-4f3b-b4b3-2679f3744be0"
      },
      "context": {
        "reference": "urn:uuid:5188df46-9270-4897-9c58-879f5cadcf92"
      },
      "authored": "2021-08-03T13:04:53+00:00",
      "item": [ {
        "linkId": "Tx223440",
        "text": "WHAT IS SAID TO BE THE MAIN REASON FOR THIS CONTACT?",
        "answer": [ {
          "valueString": "more"
        } ]
      } ]
    }
  }, {
    "fullUrl": "urn:uuid:ffe9f4b9-8e2e-4f9f-8ebd-0620cb035d70",
    "resource": {
      "resourceType": "Questionnaire",
      "id": "ffe9f4b9-8e2e-4f9f-8ebd-0620cb035d70",
      "identifier": [ {
        "value": "1766749"
      } ],
      "version": "2021-08-03T13:04:53.000Z",
      "status": "active",
      "experimental": false,
      "date": "2021-08-03T13:04:53+00:00",
      "publisher": "User ID: '922' User name: 'AndrewJ.Walford' User skill set: 'T4'",
      "lastReviewDate": "2021-08-03",
      "contact": [ {
        "telecom": [ {
          "system": "phone",
          "value": "07798501130"
        } ]
      } ],
      "subjectType": [ "Patient" ],
      "item": [ {
        "linkId": "1766749",
        "prefix": "5000",
        "text": "WHAT IS SAID TO BE THE MAIN REASON FOR THIS CONTACT?",
        "type": "choice",
        "required": true,
        "repeats": false,
        "option": [ {
          "valueString": "a probable allergic reaction now, Selected: false"
        }, {
          "valueString": "a probable heart attack, Selected: false"
        }, {
          "valueString": "chest or upper back pain, Selected: false"
        }, {
          "valueString": "a probable stroke or mini-stroke, Selected: false"
        }, {
          "valueString": "a probable fit or seizure within the last 12 hours, Selected: false"
        }, {
          "valueString": "a suicide attempt, Selected: false"
        }, {
          "valueString": "more, Selected: true"
        } ]
      } ]
    }
  }, {
    "fullUrl": "urn:uuid:fc4b3291-c88a-46c4-872e-9f70c078e610",
    "resource": {
      "resourceType": "QuestionnaireResponse",
      "id": "fc4b3291-c88a-46c4-872e-9f70c078e610",
      "identifier": {
        "value": "1766749"
      },
      "questionnaire": {
        "reference": "urn:uuid:0fa5e802-6bf7-44d3-9d59-ca290f985b24"
      },
      "status": "completed",
      "subject": {
        "reference": "urn:uuid:7233f988-564c-4f3b-b4b3-2679f3744be0"
      },
      "context": {
        "reference": "urn:uuid:5188df46-9270-4897-9c58-879f5cadcf92"
      },
      "authored": "2021-08-03T13:04:53+00:00",
      "item": [ {
        "linkId": "Tx220032",
        "text": "WHAT IS SAID TO BE THE MAIN REASON FOR THIS CONTACT?",
        "answer": [ {
          "valueString": "none of the above"
        } ]
      } ]
    }
  }, {
    "fullUrl": "urn:uuid:0fa5e802-6bf7-44d3-9d59-ca290f985b24",
    "resource": {
      "resourceType": "Questionnaire",
      "id": "0fa5e802-6bf7-44d3-9d59-ca290f985b24",
      "identifier": [ {
        "value": "1766749"
      } ],
      "version": "2021-08-03T13:04:53.000Z",
      "status": "active",
      "experimental": false,
      "date": "2021-08-03T13:04:53+00:00",
      "publisher": "User ID: '922' User name: 'AndrewJ.Walford' User skill set: 'T4'",
      "lastReviewDate": "2021-08-03",
      "contact": [ {
        "telecom": [ {
          "system": "phone",
          "value": "07798501130"
        } ]
      } ],
      "subjectType": [ "Patient" ],
      "item": [ {
        "linkId": "1766749",
        "prefix": "1900",
        "text": "WHAT IS SAID TO BE THE MAIN REASON FOR THIS CONTACT?",
        "type": "choice",
        "required": true,
        "repeats": false,
        "option": [ {
          "valueString": "new confusion now, Selected: false"
        }, {
          "valueString": "a diabetic hypo (low blood sugar) or a diabetic hyper (high blood sugar), Selected: false"
        }, {
          "valueString": "recovery from an ICD (implanted cardioverter defibrillator) shock, Selected: false"
        }, {
          "valueString": "none of the above, Selected: true"
        } ]
      } ]
    }
  }, {
    "fullUrl": "urn:uuid:a03639d4-16a6-4756-b662-ac75d3127bda",
    "resource": {
      "resourceType": "QuestionnaireResponse",
      "id": "a03639d4-16a6-4756-b662-ac75d3127bda",
      "identifier": {
        "value": "1766749"
      },
      "questionnaire": {
        "reference": "urn:uuid:db99916b-9a15-4382-b9b1-8f5182ec2b16"
      },
      "status": "completed",
      "subject": {
        "reference": "urn:uuid:7233f988-564c-4f3b-b4b3-2679f3744be0"
      },
      "context": {
        "reference": "urn:uuid:5188df46-9270-4897-9c58-879f5cadcf92"
      },
      "authored": "2021-08-03T13:04:53+00:00",
      "item": [ {
        "linkId": "Tx223142",
        "text": "Does the skin on the chest, back or abdomen feel a normal temperature?",
        "answer": [ {
          "valueString": "yes - normal, warm or hot"
        } ]
      } ]
    }
  }, {
    "fullUrl": "urn:uuid:db99916b-9a15-4382-b9b1-8f5182ec2b16",
    "resource": {
      "resourceType": "Questionnaire",
      "id": "db99916b-9a15-4382-b9b1-8f5182ec2b16",
      "identifier": [ {
        "value": "1766749"
      } ],
      "version": "2021-08-03T13:04:53.000Z",
      "status": "active",
      "experimental": false,
      "date": "2021-08-03T13:04:53+00:00",
      "publisher": "User ID: '922' User name: 'AndrewJ.Walford' User skill set: 'T4'",
      "lastReviewDate": "2021-08-03",
      "contact": [ {
        "telecom": [ {
          "system": "phone",
          "value": "07798501130"
        } ]
      } ],
      "subjectType": [ "Patient" ],
      "item": [ {
        "linkId": "1766749",
        "prefix": "4000",
        "text": "Does the skin on the chest, back or abdomen feel a normal temperature?",
        "type": "choice",
        "required": true,
        "repeats": false,
        "option": [ {
          "valueString": "yes - normal, warm or hot, Selected: true"
        }, {
          "valueString": "not sure, Selected: false"
        }, {
          "valueString": "no - cool OR cold, Selected: false"
        }, {
          "valueString": "not safe to touch, Selected: false"
        } ]
      } ]
    }
  }, {
    "fullUrl": "urn:uuid:e118ad9b-6301-48d3-8c1c-38dd15c04863",
    "resource": {
      "resourceType": "QuestionnaireResponse",
      "id": "e118ad9b-6301-48d3-8c1c-38dd15c04863",
      "identifier": {
        "value": "1766749"
      },
      "questionnaire": {
        "reference": "urn:uuid:6745c17f-41e2-45de-b2f0-9961a20145d3"
      },
      "status": "completed",
      "subject": {
        "reference": "urn:uuid:7233f988-564c-4f3b-b4b3-2679f3744be0"
      },
      "context": {
        "reference": "urn:uuid:5188df46-9270-4897-9c58-879f5cadcf92"
      },
      "authored": "2021-08-03T13:04:53+00:00",
      "item": [ {
        "linkId": "Tx221724",
        "text": "STRING:ShockAsked",
        "answer": [ {
          "valueString": "\"\"present\"\""
        } ]
      } ]
    }
  }, {
    "fullUrl": "urn:uuid:6745c17f-41e2-45de-b2f0-9961a20145d3",
    "resource": {
      "resourceType": "Questionnaire",
      "id": "6745c17f-41e2-45de-b2f0-9961a20145d3",
      "identifier": [ {
        "value": "1766749"
      } ],
      "version": "2021-08-03T13:04:53.000Z",
      "status": "active",
      "experimental": false,
      "date": "2021-08-03T13:04:53+00:00",
      "publisher": "User ID: '922' User name: 'AndrewJ.Walford' User skill set: 'T4'",
      "lastReviewDate": "2021-08-03",
      "contact": [ {
        "telecom": [ {
          "system": "phone",
          "value": "07798501130"
        } ]
      } ],
      "subjectType": [ "Patient" ],
      "item": [ {
        "linkId": "1766749",
        "prefix": "3300",
        "text": "STRING:ShockAsked",
        "type": "choice",
        "required": true,
        "repeats": false,
        "option": [ {
          "valueString": "\"\"present\"\", Selected: true"
        } ]
      } ]
    }
  }, {
    "fullUrl": "urn:uuid:1b28106b-e201-4c97-aa61-b37b388fc440",
    "resource": {
      "resourceType": "QuestionnaireResponse",
      "id": "1b28106b-e201-4c97-aa61-b37b388fc440",
      "identifier": {
        "value": "1766749"
      },
      "questionnaire": {
        "reference": "urn:uuid:488109f5-360d-4851-89c9-112cff9a7001"
      },
      "status": "completed",
      "subject": {
        "reference": "urn:uuid:7233f988-564c-4f3b-b4b3-2679f3744be0"
      },
      "context": {
        "reference": "urn:uuid:5188df46-9270-4897-9c58-879f5cadcf92"
      },
      "authored": "2021-08-03T13:04:53+00:00"
    }
  }, {
    "fullUrl": "urn:uuid:488109f5-360d-4851-89c9-112cff9a7001",
    "resource": {
      "resourceType": "Questionnaire",
      "id": "488109f5-360d-4851-89c9-112cff9a7001",
      "identifier": [ {
        "value": "1766749"
      } ],
      "version": "2021-08-03T13:04:53.000Z",
      "status": "active",
      "experimental": false,
      "date": "2021-08-03T13:04:53+00:00",
      "publisher": "User ID: '922' User name: 'AndrewJ.Walford' User skill set: 'T4'",
      "lastReviewDate": "2021-08-03",
      "contact": [ {
        "telecom": [ {
          "system": "phone",
          "value": "07798501130"
        } ]
      } ],
      "subjectType": [ "Patient" ]
    }
  }, {
    "fullUrl": "urn:uuid:10156d97-1eb5-4934-8076-ab4aa73623a7",
    "resource": {
      "resourceType": "QuestionnaireResponse",
      "id": "10156d97-1eb5-4934-8076-ab4aa73623a7",
      "identifier": {
        "value": "1766749"
      },
      "questionnaire": {
        "reference": "urn:uuid:ac217dc9-b41c-4287-aceb-dbc4485c4986"
      },
      "status": "completed",
      "subject": {
        "reference": "urn:uuid:7233f988-564c-4f3b-b4b3-2679f3744be0"
      },
      "context": {
        "reference": "urn:uuid:5188df46-9270-4897-9c58-879f5cadcf92"
      },
      "authored": "2021-08-03T13:04:53+00:00"
    }
  }, {
    "fullUrl": "urn:uuid:ac217dc9-b41c-4287-aceb-dbc4485c4986",
    "resource": {
      "resourceType": "Questionnaire",
      "id": "ac217dc9-b41c-4287-aceb-dbc4485c4986",
      "identifier": [ {
        "value": "1766749"
      } ],
      "version": "2021-08-03T13:04:53.000Z",
      "status": "active",
      "experimental": false,
      "date": "2021-08-03T13:04:53+00:00",
      "publisher": "User ID: '922' User name: 'AndrewJ.Walford' User skill set: 'T4'",
      "lastReviewDate": "2021-08-03",
      "contact": [ {
        "telecom": [ {
          "system": "phone",
          "value": "07798501130"
        } ]
      } ],
      "subjectType": [ "Patient" ]
    }
  }, {
    "fullUrl": "urn:uuid:5e3071bb-0bcb-40e3-b8a6-9fd6f7b95c6d",
    "resource": {
      "resourceType": "QuestionnaireResponse",
      "id": "5e3071bb-0bcb-40e3-b8a6-9fd6f7b95c6d",
      "identifier": {
        "value": "1766749"
      },
      "questionnaire": {
        "reference": "urn:uuid:8bf184d6-3fa5-4770-8707-6fe45c890c6a"
      },
      "status": "completed",
      "subject": {
        "reference": "urn:uuid:7233f988-564c-4f3b-b4b3-2679f3744be0"
      },
      "context": {
        "reference": "urn:uuid:5188df46-9270-4897-9c58-879f5cadcf92"
      },
      "authored": "2021-08-03T13:04:53+00:00",
      "item": [ {
        "linkId": "Tx224190",
        "text": "Does the problem stop you from doing ALL of your normal activities?",
        "answer": [ {
          "valueString": "no - able to do most or all of their activities"
        } ]
      } ]
    }
  }, {
    "fullUrl": "urn:uuid:8bf184d6-3fa5-4770-8707-6fe45c890c6a",
    "resource": {
      "resourceType": "Questionnaire",
      "id": "8bf184d6-3fa5-4770-8707-6fe45c890c6a",
      "identifier": [ {
        "value": "1766749"
      } ],
      "version": "2021-08-03T13:04:53.000Z",
      "status": "active",
      "experimental": false,
      "date": "2021-08-03T13:04:53+00:00",
      "publisher": "User ID: '922' User name: 'AndrewJ.Walford' User skill set: 'T4'",
      "lastReviewDate": "2021-08-03",
      "contact": [ {
        "telecom": [ {
          "system": "phone",
          "value": "07798501130"
        } ]
      } ],
      "subjectType": [ "Patient" ],
      "item": [ {
        "linkId": "1766749",
        "prefix": "4900",
        "text": "Does the problem stop you from doing ALL of your normal activities?",
        "type": "choice",
        "required": true,
        "repeats": false,
        "option": [ {
          "valueString": "yes - unable to do all of their normal activities, Selected: false"
        }, {
          "valueString": "no - able to do some of their normal activities, Selected: false"
        }, {
          "valueString": "no - able to do most or all of their activities, Selected: true"
        } ]
      } ]
    }
  }, {
    "fullUrl": "urn:uuid:75d74226-ec5f-492f-b696-e442eb396797",
    "resource": {
      "resourceType": "QuestionnaireResponse",
      "id": "75d74226-ec5f-492f-b696-e442eb396797",
      "identifier": {
        "value": "1766749"
      },
      "questionnaire": {
        "reference": "urn:uuid:cadc054d-b5d4-49ba-9e99-b2f53bf7171a"
      },
      "status": "completed",
      "subject": {
        "reference": "urn:uuid:7233f988-564c-4f3b-b4b3-2679f3744be0"
      },
      "context": {
        "reference": "urn:uuid:5188df46-9270-4897-9c58-879f5cadcf92"
      },
      "authored": "2021-08-03T13:04:53+00:00",
      "item": [ {
        "linkId": "Tx220244",
        "text": "Have you got any of the following new symptoms?",
        "answer": [ {
          "valueString": "no"
        } ]
      } ]
    }
  }, {
    "fullUrl": "urn:uuid:cadc054d-b5d4-49ba-9e99-b2f53bf7171a",
    "resource": {
      "resourceType": "Questionnaire",
      "id": "cadc054d-b5d4-49ba-9e99-b2f53bf7171a",
      "identifier": [ {
        "value": "1766749"
      } ],
      "version": "2021-08-03T13:04:53.000Z",
      "status": "active",
      "experimental": false,
      "date": "2021-08-03T13:04:53+00:00",
      "publisher": "User ID: '922' User name: 'AndrewJ.Walford' User skill set: 'T4'",
      "lastReviewDate": "2021-08-03",
      "contact": [ {
        "telecom": [ {
          "system": "phone",
          "value": "07798501130"
        } ]
      } ],
      "subjectType": [ "Patient" ],
      "item": [ {
        "linkId": "1766749",
        "prefix": "17",
        "text": "Have you got any of the following new symptoms?",
        "type": "choice",
        "required": true,
        "repeats": false,
        "option": [ {
          "valueString": "unable to control the bowels, Selected: false"
        }, {
          "valueString": "unable to move one or both legs, Selected: false"
        }, {
          "valueString": "numbness or pins and needles in both legs or around the back passage, Selected: false"
        }, {
          "valueString": "not sure, Selected: false"
        }, {
          "valueString": "no, Selected: true"
        } ]
      } ]
    }
  }, {
    "fullUrl": "urn:uuid:18a5e906-475f-4875-8187-43d0961c0b0f",
    "resource": {
      "resourceType": "QuestionnaireResponse",
      "id": "18a5e906-475f-4875-8187-43d0961c0b0f",
      "identifier": {
        "value": "1766749"
      },
      "questionnaire": {
        "reference": "urn:uuid:7e18b446-f933-4e03-b5e9-02d3fbb06701"
      },
      "status": "completed",
      "subject": {
        "reference": "urn:uuid:7233f988-564c-4f3b-b4b3-2679f3744be0"
      },
      "context": {
        "reference": "urn:uuid:5188df46-9270-4897-9c58-879f5cadcf92"
      },
      "authored": "2021-08-03T13:04:53+00:00",
      "item": [ {
        "linkId": "Tx221119",
        "text": "FunctionallyImpaired",
        "answer": [ {
          "valueString": "*"
        } ]
      } ]
    }
  }, {
    "fullUrl": "urn:uuid:7e18b446-f933-4e03-b5e9-02d3fbb06701",
    "resource": {
      "resourceType": "Questionnaire",
      "id": "7e18b446-f933-4e03-b5e9-02d3fbb06701",
      "identifier": [ {
        "value": "1766749"
      } ],
      "version": "2021-08-03T13:04:53.000Z",
      "status": "active",
      "experimental": false,
      "date": "2021-08-03T13:04:53+00:00",
      "publisher": "User ID: '922' User name: 'AndrewJ.Walford' User skill set: 'T4'",
      "lastReviewDate": "2021-08-03",
      "contact": [ {
        "telecom": [ {
          "system": "phone",
          "value": "07798501130"
        } ]
      } ],
      "subjectType": [ "Patient" ],
      "item": [ {
        "linkId": "1766749",
        "prefix": "5400",
        "text": "FunctionallyImpaired",
        "type": "choice",
        "required": true,
        "repeats": false,
        "option": [ {
          "valueString": "==\"\"present\"\", Selected: false"
        }, {
          "valueString": "*, Selected: true"
        } ]
      } ]
    }
  }, {
    "fullUrl": "urn:uuid:bf68940b-2c92-458c-be28-11215a3e111f",
    "resource": {
      "resourceType": "QuestionnaireResponse",
      "id": "bf68940b-2c92-458c-be28-11215a3e111f",
      "identifier": {
        "value": "1766749"
      },
      "questionnaire": {
        "reference": "urn:uuid:714710e7-514d-4996-aa4d-c4ef0af6ade0"
      },
      "status": "completed",
      "subject": {
        "reference": "urn:uuid:7233f988-564c-4f3b-b4b3-2679f3744be0"
      },
      "context": {
        "reference": "urn:uuid:5188df46-9270-4897-9c58-879f5cadcf92"
      },
      "authored": "2021-08-03T13:04:53+00:00",
      "item": [ {
        "linkId": "Tx221639",
        "text": "Have you been unable to pass urine for the last 12 hours, except for a few drops?",
        "answer": [ {
          "valueString": "no (ABLE TO pass urine)"
        } ]
      } ]
    }
  }, {
    "fullUrl": "urn:uuid:714710e7-514d-4996-aa4d-c4ef0af6ade0",
    "resource": {
      "resourceType": "Questionnaire",
      "id": "714710e7-514d-4996-aa4d-c4ef0af6ade0",
      "identifier": [ {
        "value": "1766749"
      } ],
      "version": "2021-08-03T13:04:53.000Z",
      "status": "active",
      "experimental": false,
      "date": "2021-08-03T13:04:53+00:00",
      "publisher": "User ID: '922' User name: 'AndrewJ.Walford' User skill set: 'T4'",
      "lastReviewDate": "2021-08-03",
      "contact": [ {
        "telecom": [ {
          "system": "phone",
          "value": "07798501130"
        } ]
      } ],
      "subjectType": [ "Patient" ],
      "item": [ {
        "linkId": "1766749",
        "prefix": "6100",
        "text": "Have you been unable to pass urine for the last 12 hours, except for a few drops?",
        "type": "choice",
        "required": true,
        "repeats": false,
        "option": [ {
          "valueString": "yes (UNABLE TO pass urine), Selected: false"
        }, {
          "valueString": "not sure, Selected: false"
        }, {
          "valueString": "no (ABLE TO pass urine), Selected: true"
        } ]
      } ]
    }
  }, {
    "fullUrl": "urn:uuid:80c0555b-6552-414c-b128-bb36e45d21d5",
    "resource": {
      "resourceType": "QuestionnaireResponse",
      "id": "80c0555b-6552-414c-b128-bb36e45d21d5",
      "identifier": {
        "value": "1766749"
      },
      "questionnaire": {
        "reference": "urn:uuid:7ac1bb1c-3fad-43cf-b0bc-8643136c3691"
      },
      "status": "completed",
      "subject": {
        "reference": "urn:uuid:7233f988-564c-4f3b-b4b3-2679f3744be0"
      },
      "context": {
        "reference": "urn:uuid:5188df46-9270-4897-9c58-879f5cadcf92"
      },
      "authored": "2021-08-03T13:04:53+00:00",
      "item": [ {
        "linkId": "Tx221119",
        "text": "FunctionallyImpaired",
        "answer": [ {
          "valueString": "*"
        } ]
      } ]
    }
  }, {
    "fullUrl": "urn:uuid:7ac1bb1c-3fad-43cf-b0bc-8643136c3691",
    "resource": {
      "resourceType": "Questionnaire",
      "id": "7ac1bb1c-3fad-43cf-b0bc-8643136c3691",
      "identifier": [ {
        "value": "1766749"
      } ],
      "version": "2021-08-03T13:04:53.000Z",
      "status": "active",
      "experimental": false,
      "date": "2021-08-03T13:04:53+00:00",
      "publisher": "User ID: '922' User name: 'AndrewJ.Walford' User skill set: 'T4'",
      "lastReviewDate": "2021-08-03",
      "contact": [ {
        "telecom": [ {
          "system": "phone",
          "value": "07798501130"
        } ]
      } ],
      "subjectType": [ "Patient" ],
      "item": [ {
        "linkId": "1766749",
        "prefix": "7200",
        "text": "FunctionallyImpaired",
        "type": "choice",
        "required": true,
        "repeats": false,
        "option": [ {
          "valueString": "==\"\"present\"\", Selected: false"
        }, {
          "valueString": "*, Selected: true"
        } ]
      } ]
    }
  }, {
    "fullUrl": "urn:uuid:70a23794-ec0c-411f-9cdc-eb398a473cd7",
    "resource": {
      "resourceType": "QuestionnaireResponse",
      "id": "70a23794-ec0c-411f-9cdc-eb398a473cd7",
      "identifier": {
        "value": "1766749"
      },
      "questionnaire": {
        "reference": "urn:uuid:929a8d8d-8480-429e-8bfd-08392bd87b90"
      },
      "status": "completed",
      "subject": {
        "reference": "urn:uuid:7233f988-564c-4f3b-b4b3-2679f3744be0"
      },
      "context": {
        "reference": "urn:uuid:5188df46-9270-4897-9c58-879f5cadcf92"
      },
      "authored": "2021-08-03T13:04:53+00:00",
      "item": [ {
        "linkId": "Tx223485",
        "text": "ConfusionDeclared",
        "answer": [ {
          "valueString": "*"
        } ]
      } ]
    }
  }, {
    "fullUrl": "urn:uuid:929a8d8d-8480-429e-8bfd-08392bd87b90",
    "resource": {
      "resourceType": "Questionnaire",
      "id": "929a8d8d-8480-429e-8bfd-08392bd87b90",
      "identifier": [ {
        "value": "1766749"
      } ],
      "version": "2021-08-03T13:04:53.000Z",
      "status": "active",
      "experimental": false,
      "date": "2021-08-03T13:04:53+00:00",
      "publisher": "User ID: '922' User name: 'AndrewJ.Walford' User skill set: 'T4'",
      "lastReviewDate": "2021-08-03",
      "contact": [ {
        "telecom": [ {
          "system": "phone",
          "value": "07798501130"
        } ]
      } ],
      "subjectType": [ "Patient" ],
      "item": [ {
        "linkId": "1766749",
        "prefix": "2900",
        "text": "ConfusionDeclared",
        "type": "choice",
        "required": true,
        "repeats": false,
        "option": [ {
          "valueString": "==\"\"present\"\", Selected: false"
        }, {
          "valueString": "*, Selected: true"
        } ]
      } ]
    }
  }, {
    "fullUrl": "urn:uuid:8cc5c87c-d03c-477b-a304-0b1dc2b5eb2f",
    "resource": {
      "resourceType": "QuestionnaireResponse",
      "id": "8cc5c87c-d03c-477b-a304-0b1dc2b5eb2f",
      "identifier": {
        "value": "1766749"
      },
      "questionnaire": {
        "reference": "urn:uuid:aaaea13d-879d-4e7a-a14b-bdf5f4731f45"
      },
      "status": "completed",
      "subject": {
        "reference": "urn:uuid:7233f988-564c-4f3b-b4b3-2679f3744be0"
      },
      "context": {
        "reference": "urn:uuid:5188df46-9270-4897-9c58-879f5cadcf92"
      },
      "authored": "2021-08-03T13:04:53+00:00",
      "item": [ {
        "linkId": "Tx1213",
        "text": "Have you suddenly become confused OR more confused than usual?",
        "answer": [ {
          "valueString": "no"
        } ]
      } ]
    }
  }, {
    "fullUrl": "urn:uuid:aaaea13d-879d-4e7a-a14b-bdf5f4731f45",
    "resource": {
      "resourceType": "Questionnaire",
      "id": "aaaea13d-879d-4e7a-a14b-bdf5f4731f45",
      "identifier": [ {
        "value": "1766749"
      } ],
      "version": "2021-08-03T13:04:53.000Z",
      "status": "active",
      "experimental": false,
      "date": "2021-08-03T13:04:53+00:00",
      "publisher": "User ID: '922' User name: 'AndrewJ.Walford' User skill set: 'T4'",
      "lastReviewDate": "2021-08-03",
      "contact": [ {
        "telecom": [ {
          "system": "phone",
          "value": "07798501130"
        } ]
      } ],
      "subjectType": [ "Patient" ],
      "item": [ {
        "linkId": "1766749",
        "prefix": "7700",
        "text": "Have you suddenly become confused OR more confused than usual?",
        "type": "choice",
        "required": true,
        "repeats": false,
        "option": [ {
          "valueString": "yes, Selected: false"
        }, {
          "valueString": "not sure, Selected: false"
        }, {
          "valueString": "no, Selected: true"
        } ]
      } ]
    }
  }, {
    "fullUrl": "urn:uuid:72c0dfc5-9477-44fb-bcd7-e07ac3076983",
    "resource": {
      "resourceType": "QuestionnaireResponse",
      "id": "72c0dfc5-9477-44fb-bcd7-e07ac3076983",
      "identifier": {
        "value": "1766749"
      },
      "questionnaire": {
        "reference": "urn:uuid:977833fe-a4cc-4c8f-9a44-4f6ce1efe7e3"
      },
      "status": "completed",
      "subject": {
        "reference": "urn:uuid:7233f988-564c-4f3b-b4b3-2679f3744be0"
      },
      "context": {
        "reference": "urn:uuid:5188df46-9270-4897-9c58-879f5cadcf92"
      },
      "authored": "2021-08-03T13:04:53+00:00",
      "item": [ {
        "linkId": "Tx220164",
        "text": "Are you breathing faster or harder when doing nothing at all?",
        "answer": [ {
          "valueString": "no"
        } ]
      } ]
    }
  }, {
    "fullUrl": "urn:uuid:977833fe-a4cc-4c8f-9a44-4f6ce1efe7e3",
    "resource": {
      "resourceType": "Questionnaire",
      "id": "977833fe-a4cc-4c8f-9a44-4f6ce1efe7e3",
      "identifier": [ {
        "value": "1766749"
      } ],
      "version": "2021-08-03T13:04:53.000Z",
      "status": "active",
      "experimental": false,
      "date": "2021-08-03T13:04:53+00:00",
      "publisher": "User ID: '922' User name: 'AndrewJ.Walford' User skill set: 'T4'",
      "lastReviewDate": "2021-08-03",
      "contact": [ {
        "telecom": [ {
          "system": "phone",
          "value": "07798501130"
        } ]
      } ],
      "subjectType": [ "Patient" ],
      "item": [ {
        "linkId": "1766749",
        "prefix": "3400",
        "text": "Are you breathing faster or harder when doing nothing at all?",
        "type": "choice",
        "required": true,
        "repeats": false,
        "option": [ {
          "valueString": "yes, Selected: false"
        }, {
          "valueString": "not sure, Selected: false"
        }, {
          "valueString": "no, Selected: true"
        } ]
      } ]
    }
  }, {
    "fullUrl": "urn:uuid:67d87079-3f7a-404f-a41d-50215db66969",
    "resource": {
      "resourceType": "QuestionnaireResponse",
      "id": "67d87079-3f7a-404f-a41d-50215db66969",
      "identifier": {
        "value": "1766749"
      },
      "questionnaire": {
        "reference": "urn:uuid:986adacc-2c62-4ab3-8d58-15b7218b5ee3"
      },
      "status": "completed",
      "subject": {
        "reference": "urn:uuid:7233f988-564c-4f3b-b4b3-2679f3744be0"
      },
      "context": {
        "reference": "urn:uuid:5188df46-9270-4897-9c58-879f5cadcf92"
      },
      "authored": "2021-08-03T13:04:53+00:00",
      "item": [ {
        "linkId": "Tx224506",
        "text": "UnableToPassUrine",
        "answer": [ {
          "valueString": "*"
        } ]
      } ]
    }
  }, {
    "fullUrl": "urn:uuid:986adacc-2c62-4ab3-8d58-15b7218b5ee3",
    "resource": {
      "resourceType": "Questionnaire",
      "id": "986adacc-2c62-4ab3-8d58-15b7218b5ee3",
      "identifier": [ {
        "value": "1766749"
      } ],
      "version": "2021-08-03T13:04:53.000Z",
      "status": "active",
      "experimental": false,
      "date": "2021-08-03T13:04:53+00:00",
      "publisher": "User ID: '922' User name: 'AndrewJ.Walford' User skill set: 'T4'",
      "lastReviewDate": "2021-08-03",
      "contact": [ {
        "telecom": [ {
          "system": "phone",
          "value": "07798501130"
        } ]
      } ],
      "subjectType": [ "Patient" ],
      "item": [ {
        "linkId": "1766749",
        "prefix": "8300",
        "text": "UnableToPassUrine",
        "type": "choice",
        "required": true,
        "repeats": false,
        "option": [ {
          "valueString": "==\"\"present\"\", Selected: false"
        }, {
          "valueString": "*, Selected: true"
        } ]
      } ]
    }
  }, {
    "fullUrl": "urn:uuid:c40568e6-9ae3-43b0-96ee-a9f70d588c61",
    "resource": {
      "resourceType": "QuestionnaireResponse",
      "id": "c40568e6-9ae3-43b0-96ee-a9f70d588c61",
      "identifier": {
        "value": "1766749"
      },
      "questionnaire": {
        "reference": "urn:uuid:ca218aa5-886d-42cb-a3e2-4166c2ee7e0e"
      },
      "status": "completed",
      "subject": {
        "reference": "urn:uuid:7233f988-564c-4f3b-b4b3-2679f3744be0"
      },
      "context": {
        "reference": "urn:uuid:5188df46-9270-4897-9c58-879f5cadcf92"
      },
      "authored": "2021-08-03T13:04:53+00:00",
      "item": [ {
        "linkId": "Tx222078",
        "text": "Have you got pain in the spine?",
        "answer": [ {
          "valueString": "no"
        } ]
      } ]
    }
  }, {
    "fullUrl": "urn:uuid:ca218aa5-886d-42cb-a3e2-4166c2ee7e0e",
    "resource": {
      "resourceType": "Questionnaire",
      "id": "ca218aa5-886d-42cb-a3e2-4166c2ee7e0e",
      "identifier": [ {
        "value": "1766749"
      } ],
      "version": "2021-08-03T13:04:53.000Z",
      "status": "active",
      "experimental": false,
      "date": "2021-08-03T13:04:53+00:00",
      "publisher": "User ID: '922' User name: 'AndrewJ.Walford' User skill set: 'T4'",
      "lastReviewDate": "2021-08-03",
      "contact": [ {
        "telecom": [ {
          "system": "phone",
          "value": "07798501130"
        } ]
      } ],
      "subjectType": [ "Patient" ],
      "item": [ {
        "linkId": "1766749",
        "prefix": "400",
        "text": "Have you got pain in the spine?",
        "type": "choice",
        "required": true,
        "repeats": false,
        "option": [ {
          "valueString": "yes, Selected: false"
        }, {
          "valueString": "not sure, Selected: false"
        }, {
          "valueString": "no, Selected: true"
        } ]
      } ]
    }
  }, {
    "fullUrl": "urn:uuid:1476ef3e-5b9b-4eb0-9107-2a45a5430b9a",
    "resource": {
      "resourceType": "QuestionnaireResponse",
      "id": "1476ef3e-5b9b-4eb0-9107-2a45a5430b9a",
      "identifier": {
        "value": "1766749"
      },
      "questionnaire": {
        "reference": "urn:uuid:fa2624d8-46c4-4792-95dc-4b2b6fc64bfd"
      },
      "status": "completed",
      "subject": {
        "reference": "urn:uuid:7233f988-564c-4f3b-b4b3-2679f3744be0"
      },
      "context": {
        "reference": "urn:uuid:5188df46-9270-4897-9c58-879f5cadcf92"
      },
      "authored": "2021-08-03T13:04:53+00:00",
      "item": [ {
        "linkId": "Tx220168",
        "text": "Have you got pain that is getting worse?",
        "answer": [ {
          "valueString": "no"
        } ]
      } ]
    }
  }, {
    "fullUrl": "urn:uuid:fa2624d8-46c4-4792-95dc-4b2b6fc64bfd",
    "resource": {
      "resourceType": "Questionnaire",
      "id": "fa2624d8-46c4-4792-95dc-4b2b6fc64bfd",
      "identifier": [ {
        "value": "1766749"
      } ],
      "version": "2021-08-03T13:04:53.000Z",
      "status": "active",
      "experimental": false,
      "date": "2021-08-03T13:04:53+00:00",
      "publisher": "User ID: '922' User name: 'AndrewJ.Walford' User skill set: 'T4'",
      "lastReviewDate": "2021-08-03",
      "contact": [ {
        "telecom": [ {
          "system": "phone",
          "value": "07798501130"
        } ]
      } ],
      "subjectType": [ "Patient" ],
      "item": [ {
        "linkId": "1766749",
        "prefix": "300",
        "text": "Have you got pain that is getting worse?",
        "type": "choice",
        "required": true,
        "repeats": false,
        "option": [ {
          "valueString": "yes, Selected: false"
        }, {
          "valueString": "not sure, Selected: false"
        }, {
          "valueString": "no, Selected: true"
        } ]
      } ]
    }
  }, {
    "fullUrl": "urn:uuid:b9eea3e5-646f-40b0-b082-683780ad0b95",
    "resource": {
      "resourceType": "QuestionnaireResponse",
      "id": "b9eea3e5-646f-40b0-b082-683780ad0b95",
      "identifier": {
        "value": "1766749"
      },
      "questionnaire": {
        "reference": "urn:uuid:f73f6ff3-a5cc-4178-a7d5-ff58ef671a4d"
      },
      "status": "completed",
      "subject": {
        "reference": "urn:uuid:7233f988-564c-4f3b-b4b3-2679f3744be0"
      },
      "context": {
        "reference": "urn:uuid:5188df46-9270-4897-9c58-879f5cadcf92"
      },
      "authored": "2021-08-03T13:04:53+00:00",
      "item": [ {
        "linkId": "Tx1122",
        "text": "Have you felt hot or feverish at any time in the last 12 hours?",
        "answer": [ {
          "valueString": "no"
        } ]
      } ]
    }
  }, {
    "fullUrl": "urn:uuid:f73f6ff3-a5cc-4178-a7d5-ff58ef671a4d",
    "resource": {
      "resourceType": "Questionnaire",
      "id": "f73f6ff3-a5cc-4178-a7d5-ff58ef671a4d",
      "identifier": [ {
        "value": "1766749"
      } ],
      "version": "2021-08-03T13:04:53.000Z",
      "status": "active",
      "experimental": false,
      "date": "2021-08-03T13:04:53+00:00",
      "publisher": "User ID: '922' User name: 'AndrewJ.Walford' User skill set: 'T4'",
      "lastReviewDate": "2021-08-03",
      "contact": [ {
        "telecom": [ {
          "system": "phone",
          "value": "07798501130"
        } ]
      } ],
      "subjectType": [ "Patient" ],
      "item": [ {
        "linkId": "1766749",
        "prefix": "500",
        "text": "Have you felt hot or feverish at any time in the last 12 hours?",
        "type": "choice",
        "required": true,
        "repeats": false,
        "option": [ {
          "valueString": "yes - temperature not taken, Selected: false"
        }, {
          "valueString": "yes - temperature taken (specify), Selected: false"
        }, {
          "valueString": "not sure, Selected: false"
        }, {
          "valueString": "no, Selected: true"
        } ]
      } ]
    }
  }, {
    "fullUrl": "urn:uuid:9a1326a8-e676-4b3a-85d4-2bb28bd13731",
    "resource": {
      "resourceType": "QuestionnaireResponse",
      "id": "9a1326a8-e676-4b3a-85d4-2bb28bd13731",
      "identifier": {
        "value": "1766749"
      },
      "questionnaire": {
        "reference": "urn:uuid:8937d19c-2594-4b4d-97c2-55cf988c5412"
      },
      "status": "completed",
      "subject": {
        "reference": "urn:uuid:7233f988-564c-4f3b-b4b3-2679f3744be0"
      },
      "context": {
        "reference": "urn:uuid:5188df46-9270-4897-9c58-879f5cadcf92"
      },
      "authored": "2021-08-03T13:04:53+00:00",
      "item": [ {
        "linkId": "Tx1233",
        "text": "Have you had a back injury IN THE LAST 4 WEEKS?",
        "answer": [ {
          "valueString": "no"
        } ]
      } ]
    }
  }, {
    "fullUrl": "urn:uuid:8937d19c-2594-4b4d-97c2-55cf988c5412",
    "resource": {
      "resourceType": "Questionnaire",
      "id": "8937d19c-2594-4b4d-97c2-55cf988c5412",
      "identifier": [ {
        "value": "1766749"
      } ],
      "version": "2021-08-03T13:04:53.000Z",
      "status": "active",
      "experimental": false,
      "date": "2021-08-03T13:04:53+00:00",
      "publisher": "User ID: '922' User name: 'AndrewJ.Walford' User skill set: 'T4'",
      "lastReviewDate": "2021-08-03",
      "contact": [ {
        "telecom": [ {
          "system": "phone",
          "value": "07798501130"
        } ]
      } ],
      "subjectType": [ "Patient" ],
      "item": [ {
        "linkId": "1766749",
        "prefix": "900",
        "text": "Have you had a back injury IN THE LAST 4 WEEKS?",
        "type": "choice",
        "required": true,
        "repeats": false,
        "option": [ {
          "valueString": "yes, Selected: false"
        }, {
          "valueString": "not sure, Selected: false"
        }, {
          "valueString": "no, Selected: true"
        } ]
      } ]
    }
  }, {
    "fullUrl": "urn:uuid:d16460c0-049f-4db0-a24b-243e21ab1e52",
    "resource": {
      "resourceType": "QuestionnaireResponse",
      "id": "d16460c0-049f-4db0-a24b-243e21ab1e52",
      "identifier": {
        "value": "1766749"
      },
      "questionnaire": {
        "reference": "urn:uuid:711c2cd3-fa10-43c3-8ee1-00da0eff7910"
      },
      "status": "completed",
      "subject": {
        "reference": "urn:uuid:7233f988-564c-4f3b-b4b3-2679f3744be0"
      },
      "context": {
        "reference": "urn:uuid:5188df46-9270-4897-9c58-879f5cadcf92"
      },
      "authored": "2021-08-03T13:04:53+00:00",
      "item": [ {
        "linkId": "Tx2947",
        "text": "Have you had any change of medication IN THE LAST 2 WEEKS?",
        "answer": [ {
          "valueString": "no"
        } ]
      } ]
    }
  }, {
    "fullUrl": "urn:uuid:711c2cd3-fa10-43c3-8ee1-00da0eff7910",
    "resource": {
      "resourceType": "Questionnaire",
      "id": "711c2cd3-fa10-43c3-8ee1-00da0eff7910",
      "identifier": [ {
        "value": "1766749"
      } ],
      "version": "2021-08-03T13:04:53.000Z",
      "status": "active",
      "experimental": false,
      "date": "2021-08-03T13:04:53+00:00",
      "publisher": "User ID: '922' User name: 'AndrewJ.Walford' User skill set: 'T4'",
      "lastReviewDate": "2021-08-03",
      "contact": [ {
        "telecom": [ {
          "system": "phone",
          "value": "07798501130"
        } ]
      } ],
      "subjectType": [ "Patient" ],
      "item": [ {
        "linkId": "1766749",
        "prefix": "1000",
        "text": "Have you had any change of medication IN THE LAST 2 WEEKS?",
        "type": "choice",
        "required": true,
        "repeats": false,
        "option": [ {
          "valueString": "started new medication, Selected: false"
        }, {
          "valueString": "changed the dose of medication, Selected: false"
        }, {
          "valueString": "stopped medication, Selected: false"
        }, {
          "valueString": "not sure, Selected: false"
        }, {
          "valueString": "no, Selected: true"
        } ]
      } ]
    }
  }, {
    "fullUrl": "urn:uuid:999a765f-fc10-4e97-b0ef-393b9423e282",
    "resource": {
      "resourceType": "QuestionnaireResponse",
      "id": "999a765f-fc10-4e97-b0ef-393b9423e282",
      "identifier": {
        "value": "1766749"
      },
      "questionnaire": {
        "reference": "urn:uuid:86e79250-7fd2-4257-8bfe-dac8edb81231"
      },
      "status": "completed",
      "subject": {
        "reference": "urn:uuid:7233f988-564c-4f3b-b4b3-2679f3744be0"
      },
      "context": {
        "reference": "urn:uuid:5188df46-9270-4897-9c58-879f5cadcf92"
      },
      "authored": "2021-08-03T13:04:53+00:00",
      "item": [ {
        "linkId": "Tx221449",
        "text": "STRING:SDPCFullPrimaryCareassessmentandprescribingcapability",
        "answer": [ {
          "valueString": "\"\"PC full Primary Care assessment and prescribing capability\"\""
        } ]
      } ]
    }
  }, {
    "fullUrl": "urn:uuid:86e79250-7fd2-4257-8bfe-dac8edb81231",
    "resource": {
      "resourceType": "Questionnaire",
      "id": "86e79250-7fd2-4257-8bfe-dac8edb81231",
      "identifier": [ {
        "value": "1766749"
      } ],
      "version": "2021-08-03T13:04:53.000Z",
      "status": "active",
      "experimental": false,
      "date": "2021-08-03T13:04:53+00:00",
      "publisher": "User ID: '922' User name: 'AndrewJ.Walford' User skill set: 'T4'",
      "lastReviewDate": "2021-08-03",
      "contact": [ {
        "telecom": [ {
          "system": "phone",
          "value": "07798501130"
        } ]
      } ],
      "subjectType": [ "Patient" ],
      "item": [ {
        "linkId": "1766749",
        "prefix": "1200",
        "text": "STRING:SDPCFullPrimaryCareassessmentandprescribingcapability",
        "type": "choice",
        "required": true,
        "repeats": false,
        "option": [ {
          "valueString": "\"\"PC full Primary Care assessment and prescribing capability\"\", Selected: true"
        } ]
      } ]
    }
  }, {
    "fullUrl": "urn:uuid:59856cfb-c306-44b8-8d41-c201c4aa632b",
    "resource": {
      "resourceType": "QuestionnaireResponse",
      "id": "59856cfb-c306-44b8-8d41-c201c4aa632b",
      "identifier": {
        "value": "1766749"
      },
      "questionnaire": {
        "reference": "urn:uuid:ba8ee65b-8486-49fd-a3d5-4a1eaf5500c9"
      },
      "status": "completed",
      "subject": {
        "reference": "urn:uuid:7233f988-564c-4f3b-b4b3-2679f3744be0"
      },
      "context": {
        "reference": "urn:uuid:5188df46-9270-4897-9c58-879f5cadcf92"
      },
      "authored": "2021-08-03T13:04:53+00:00"
    }
  }, {
    "fullUrl": "urn:uuid:ba8ee65b-8486-49fd-a3d5-4a1eaf5500c9",
    "resource": {
      "resourceType": "Questionnaire",
      "id": "ba8ee65b-8486-49fd-a3d5-4a1eaf5500c9",
      "identifier": [ {
        "value": "1766749"
      } ],
      "version": "2021-08-03T13:04:53.000Z",
      "status": "active",
      "experimental": false,
      "date": "2021-08-03T13:04:53+00:00",
      "publisher": "User ID: '922' User name: 'AndrewJ.Walford' User skill set: 'T4'",
      "lastReviewDate": "2021-08-03",
      "contact": [ {
        "telecom": [ {
          "system": "phone",
          "value": "07798501130"
        } ]
      } ],
      "subjectType": [ "Patient" ]
    }
  }, {
    "fullUrl": "urn:uuid:8078ff40-f464-4de3-adc2-3d58bae305bf",
    "resource": {
      "resourceType": "QuestionnaireResponse",
      "id": "8078ff40-f464-4de3-adc2-3d58bae305bf",
      "identifier": {
        "value": "1766749"
      },
      "questionnaire": {
        "reference": "urn:uuid:40a8693d-c525-4b15-a99d-0787b14b3cdd"
      },
      "status": "completed",
      "subject": {
        "reference": "urn:uuid:7233f988-564c-4f3b-b4b3-2679f3744be0"
      },
      "context": {
        "reference": "urn:uuid:5188df46-9270-4897-9c58-879f5cadcf92"
      },
      "authored": "2021-08-03T13:04:53+00:00",
      "item": [ {
        "linkId": "N/A"
      } ]
    }
  }, {
    "fullUrl": "urn:uuid:40a8693d-c525-4b15-a99d-0787b14b3cdd",
    "resource": {
      "resourceType": "Questionnaire",
      "id": "40a8693d-c525-4b15-a99d-0787b14b3cdd",
      "identifier": [ {
        "value": "1766749"
      } ],
      "version": "2021-08-03T13:04:53.000Z",
      "status": "active",
      "experimental": false,
      "date": "2021-08-03T13:04:53+00:00",
      "publisher": "User ID: '922' User name: 'AndrewJ.Walford' User skill set: 'T4'",
      "lastReviewDate": "2021-08-03",
      "contact": [ {
        "telecom": [ {
          "system": "phone",
          "value": "07798501130"
        } ]
      } ],
      "subjectType": [ "Patient" ],
      "item": [ {
        "linkId": "1766749",
        "type": "choice",
        "required": true,
        "repeats": false,
        "option": [ {
          "valueString": ", Selected: false"
        } ]
      } ]
    }
  }, {
    "fullUrl": "urn:uuid:f6dac07b-a00a-4c32-96a2-edc49f85e93a",
    "resource": {
      "resourceType": "QuestionnaireResponse",
      "id": "f6dac07b-a00a-4c32-96a2-edc49f85e93a",
      "identifier": {
        "value": "1766749"
      },
      "questionnaire": {
        "reference": "urn:uuid:c60c4bb2-5bee-4cef-a453-197c9ab97e52"
      },
      "status": "completed",
      "subject": {
        "reference": "urn:uuid:7233f988-564c-4f3b-b4b3-2679f3744be0"
      },
      "context": {
        "reference": "urn:uuid:5188df46-9270-4897-9c58-879f5cadcf92"
      },
      "authored": "2021-08-03T13:04:53+00:00"
    }
  }, {
    "fullUrl": "urn:uuid:c60c4bb2-5bee-4cef-a453-197c9ab97e52",
    "resource": {
      "resourceType": "Questionnaire",
      "id": "c60c4bb2-5bee-4cef-a453-197c9ab97e52",
      "identifier": [ {
        "value": "1766749"
      } ],
      "version": "2021-08-03T13:04:53.000Z",
      "status": "active",
      "experimental": false,
      "date": "2021-08-03T13:04:53+00:00",
      "publisher": "User ID: '922' User name: 'AndrewJ.Walford' User skill set: 'T4'",
      "lastReviewDate": "2021-08-03",
      "contact": [ {
        "telecom": [ {
          "system": "phone",
          "value": "07798501130"
        } ]
      } ],
      "subjectType": [ "Patient" ]
    }
  }, {
    "fullUrl": "urn:uuid:a38da86a-9307-43e7-a809-0624c38648c1",
    "resource": {
      "resourceType": "Observation",
      "id": "a38da86a-9307-43e7-a809-0624c38648c1",
      "status": "final",
      "code": {
        "coding": [ {
          "system": "http://snomed.info/sct",
          "code": "33962009",
          "display": "Presenting complaint"
        } ]
      },
      "subject": {
        "reference": "urn:uuid:7233f988-564c-4f3b-b4b3-2679f3744be0"
      },
      "context": {
        "reference": "urn:uuid:5188df46-9270-4897-9c58-879f5cadcf92"
      }
    }
  }, {
    "fullUrl": "urn:uuid:990a5f73-0e8e-401d-b86d-f5b3336145ad",
    "resource": {
      "resourceType": "PractitionerRole",
      "id": "990a5f73-0e8e-401d-b86d-f5b3336145ad",
      "practitioner": {
        "reference": "urn:uuid:57c8e291-af01-4658-8f0e-60e50be8e4fe"
      },
      "organization": {
        "reference": "urn:uuid:a8514e98-4fd7-4300-9f45-b938f14ca4bb"
      },
      "code": [ {
        "coding": [ {
          "system": "2.16.840.1.113883.2.1.3.2.4.17.339",
          "code": "NP",
          "display": "Nurse Practitioner"
        } ]
      } ]
    }
  }, {
    "fullUrl": "urn:uuid:a8514e98-4fd7-4300-9f45-b938f14ca4bb",
    "resource": {
      "resourceType": "Organization",
      "id": "a8514e98-4fd7-4300-9f45-b938f14ca4bb",
      "identifier": [ {
        "value": "RX7"
      } ],
      "name": "NWAS 111"
    }
  }, {
    "fullUrl": "urn:uuid:b3134065-147f-447a-a177-cc7441976ac9",
    "resource": {
      "resourceType": "RelatedPerson",
      "id": "b3134065-147f-447a-a177-cc7441976ac9",
      "patient": {
        "reference": "urn:uuid:7233f988-564c-4f3b-b4b3-2679f3744be0"
      },
      "relationship": {
        "coding": [ {
          "system": "http://hl7.org/fhir/v2/0131",
          "code": "C",
          "display": "Emergency Contact"
        } ]
      },
      "telecom": [ {
        "system": "phone",
        "value": "tel:07798501130"
      } ]
    }
  }, {
    "fullUrl": "urn:uuid:910fe434-5ebe-4cab-ad21-103e89a00f2c",
    "resource": {
      "resourceType": "Device",
      "id": "910fe434-5ebe-4cab-ad21-103e89a00f2c",
      "model": "111 Adaptor",
      "version": "1.0.1"
    }
  }, {
    "fullUrl": "urn:uuid:5d4bc205-d370-4398-a008-3224e59d156e",
    "resource": {
      "resourceType": "List",
      "id": "5d4bc205-d370-4398-a008-3224e59d156e",
      "status": "current",
      "mode": "working",
      "title": "111 Report List",
      "code": {
        "coding": [ {
          "system": "http://snomed.info/sct",
          "code": "225390008",
          "display": "Triage"
        } ]
      },
      "subject": {
        "reference": "urn:uuid:7233f988-564c-4f3b-b4b3-2679f3744be0"
      },
      "encounter": {
        "reference": "urn:uuid:5188df46-9270-4897-9c58-879f5cadcf92"
      },
      "date": "2021-08-03T13:04:53+00:00",
      "source": {
        "reference": "urn:uuid:910fe434-5ebe-4cab-ad21-103e89a00f2c"
      },
      "orderedBy": {
        "coding": [ {
          "system": "http://hl7.org/fhir/list-order",
          "code": "event-date",
          "display": "Sorted by Event Date"
        } ]
      },
      "entry": [ {
        "item": {
          "reference": "urn:uuid:a38da86a-9307-43e7-a809-0624c38648c1"
        }
      }, {
        "item": {
          "reference": "urn:uuid:86b4875e-5d55-409a-a52d-58883189b55d"
        }
      }, {
        "item": {
          "reference": "urn:uuid:b3134065-147f-447a-a177-cc7441976ac9"
        }
      }, {
        "item": {
          "reference": "urn:uuid:c6e5ed46-ac50-41d2-adcb-3ed6b65d324b"
        }
      }, {
        "item": {
          "reference": "urn:uuid:a8514e98-4fd7-4300-9f45-b938f14ca4bb"
        }
      }, {
        "item": {
          "reference": "urn:uuid:c3d579cf-2338-44ca-8b2c-83d4da72fe36"
        }
      }, {
        "item": {
          "reference": "urn:uuid:1ff22198-f62d-433a-a8d2-1ee137da01e7"
        }
      }, {
        "item": {
          "reference": "urn:uuid:57c8e291-af01-4658-8f0e-60e50be8e4fe"
        }
      }, {
        "item": {
          "reference": "urn:uuid:2b3299de-860f-42e3-8a42-966be3fb8458"
        }
      }, {
        "item": {
          "reference": "urn:uuid:ef9db948-139b-4061-ac4b-a7a4a36c4193"
        }
      }, {
        "item": {
          "reference": "urn:uuid:999a765f-fc10-4e97-b0ef-393b9423e282"
        }
      }, {
        "item": {
          "reference": "urn:uuid:a1643b41-a425-4ed3-91e0-5d3f52156e38"
        }
      }, {
        "item": {
          "reference": "urn:uuid:8bf184d6-3fa5-4770-8707-6fe45c890c6a"
        }
      }, {
        "item": {
          "reference": "urn:uuid:10156d97-1eb5-4934-8076-ab4aa73623a7"
        }
      }, {
        "item": {
          "reference": "urn:uuid:5e3071bb-0bcb-40e3-b8a6-9fd6f7b95c6d"
        }
      }, {
        "item": {
          "reference": "urn:uuid:714710e7-514d-4996-aa4d-c4ef0af6ade0"
        }
      }, {
        "item": {
          "reference": "urn:uuid:18a5e906-475f-4875-8187-43d0961c0b0f"
        }
      }, {
        "item": {
          "reference": "urn:uuid:8937d19c-2594-4b4d-97c2-55cf988c5412"
        }
      }, {
        "item": {
          "reference": "urn:uuid:ca218aa5-886d-42cb-a3e2-4166c2ee7e0e"
        }
      }, {
        "item": {
          "reference": "urn:uuid:8cc5c87c-d03c-477b-a304-0b1dc2b5eb2f"
        }
      }, {
        "item": {
          "reference": "urn:uuid:fa2624d8-46c4-4792-95dc-4b2b6fc64bfd"
        }
      }, {
        "item": {
          "reference": "urn:uuid:a03639d4-16a6-4756-b662-ac75d3127bda"
        }
      }, {
        "item": {
          "reference": "urn:uuid:db99916b-9a15-4382-b9b1-8f5182ec2b16"
        }
      }, {
        "item": {
          "reference": "urn:uuid:e96c4a16-304e-40e5-8a32-918e94cccd97"
        }
      }, {
        "item": {
          "reference": "urn:uuid:9a1326a8-e676-4b3a-85d4-2bb28bd13731"
        }
      }, {
        "item": {
          "reference": "urn:uuid:7ac1bb1c-3fad-43cf-b0bc-8643136c3691"
        }
      }, {
        "item": {
          "reference": "urn:uuid:288ad32f-fde6-4d9d-8d52-a3150087420c"
        }
      }, {
        "item": {
          "reference": "urn:uuid:80c0555b-6552-414c-b128-bb36e45d21d5"
        }
      }, {
        "item": {
          "reference": "urn:uuid:977833fe-a4cc-4c8f-9a44-4f6ce1efe7e3"
        }
      }, {
        "item": {
          "reference": "urn:uuid:1b28106b-e201-4c97-aa61-b37b388fc440"
        }
      }, {
        "item": {
          "reference": "urn:uuid:f73f6ff3-a5cc-4178-a7d5-ff58ef671a4d"
        }
      }, {
        "item": {
          "reference": "urn:uuid:5dd3c4f6-9cf6-48f0-8197-cfa87e0931bb"
        }
      }, {
        "item": {
          "reference": "urn:uuid:251f7b46-d7db-4799-9365-0a26bef817df"
        }
      }, {
        "item": {
          "reference": "urn:uuid:cadc054d-b5d4-49ba-9e99-b2f53bf7171a"
        }
      }, {
        "item": {
          "reference": "urn:uuid:f6dac07b-a00a-4c32-96a2-edc49f85e93a"
        }
      }, {
        "item": {
          "reference": "urn:uuid:c40568e6-9ae3-43b0-96ee-a9f70d588c61"
        }
      }, {
        "item": {
          "reference": "urn:uuid:8078ff40-f464-4de3-adc2-3d58bae305bf"
        }
      }, {
        "item": {
          "reference": "urn:uuid:72c0dfc5-9477-44fb-bcd7-e07ac3076983"
        }
      }, {
        "item": {
          "reference": "urn:uuid:986adacc-2c62-4ab3-8d58-15b7218b5ee3"
        }
      }, {
        "item": {
          "reference": "urn:uuid:70a23794-ec0c-411f-9cdc-eb398a473cd7"
        }
      }, {
        "item": {
          "reference": "urn:uuid:bf68940b-2c92-458c-be28-11215a3e111f"
        }
      }, {
        "item": {
          "reference": "urn:uuid:d16460c0-049f-4db0-a24b-243e21ab1e52"
        }
      }, {
        "item": {
          "reference": "urn:uuid:5f6000c9-c461-4c2b-99c3-561078d749b7"
        }
      }, {
        "item": {
          "reference": "urn:uuid:34ff49a8-1e65-4073-90ba-343dd4c9d476"
        }
      }, {
        "item": {
          "reference": "urn:uuid:7e18b446-f933-4e03-b5e9-02d3fbb06701"
        }
      }, {
        "item": {
          "reference": "urn:uuid:735c9904-c3ad-4bad-98e3-31c0ca7715a8"
        }
      }, {
        "item": {
          "reference": "urn:uuid:b9eea3e5-646f-40b0-b082-683780ad0b95"
        }
      }, {
        "item": {
          "reference": "urn:uuid:51288d4a-bbfc-4612-bcfd-b089cab49988"
        }
      }, {
        "item": {
          "reference": "urn:uuid:fc4b3291-c88a-46c4-872e-9f70c078e610"
        }
      }, {
        "item": {
          "reference": "urn:uuid:1476ef3e-5b9b-4eb0-9107-2a45a5430b9a"
        }
      }, {
        "item": {
          "reference": "urn:uuid:b913c892-7f25-49cf-adee-4b28d81bb5b3"
        }
      }, {
        "item": {
          "reference": "urn:uuid:929a8d8d-8480-429e-8bfd-08392bd87b90"
        }
      }, {
        "item": {
          "reference": "urn:uuid:ffe9f4b9-8e2e-4f9f-8ebd-0620cb035d70"
        }
      }, {
        "item": {
          "reference": "urn:uuid:e118ad9b-6301-48d3-8c1c-38dd15c04863"
        }
      }, {
        "item": {
          "reference": "urn:uuid:6745c17f-41e2-45de-b2f0-9961a20145d3"
        }
      }, {
        "item": {
          "reference": "urn:uuid:75d74226-ec5f-492f-b696-e442eb396797"
        }
      }, {
        "item": {
          "reference": "urn:uuid:aaaea13d-879d-4e7a-a14b-bdf5f4731f45"
        }
      }, {
        "item": {
          "reference": "urn:uuid:e10561ee-8ac6-41b2-824a-12c0574ff8f2"
        }
      }, {
        "item": {
          "reference": "urn:uuid:963b2e52-ff59-4ded-8425-aec05d90e44a"
        }
      }, {
        "item": {
          "reference": "urn:uuid:67d87079-3f7a-404f-a41d-50215db66969"
        }
      }, {
        "item": {
          "reference": "urn:uuid:ac217dc9-b41c-4287-aceb-dbc4485c4986"
        }
      }, {
        "item": {
          "reference": "urn:uuid:d7f18b45-399d-4842-b8c9-482ed40e043d"
        }
      }, {
        "item": {
          "reference": "urn:uuid:86e79250-7fd2-4257-8bfe-dac8edb81231"
        }
      }, {
        "item": {
          "reference": "urn:uuid:488109f5-360d-4851-89c9-112cff9a7001"
        }
      }, {
        "item": {
          "reference": "urn:uuid:c60c4bb2-5bee-4cef-a453-197c9ab97e52"
        }
      }, {
        "item": {
          "reference": "urn:uuid:1a4262a6-f076-4d3b-8974-5ba6d0f62c98"
        }
      }, {
        "item": {
          "reference": "urn:uuid:ba8ee65b-8486-49fd-a3d5-4a1eaf5500c9"
        }
      }, {
        "item": {
          "reference": "urn:uuid:d16a17bd-5ffa-435f-ab3e-fbbdd9b7c560"
        }
      }, {
        "item": {
          "reference": "urn:uuid:711c2cd3-fa10-43c3-8ee1-00da0eff7910"
        }
      }, {
        "item": {
          "reference": "urn:uuid:40a8693d-c525-4b15-a99d-0787b14b3cdd"
        }
      }, {
        "item": {
          "reference": "urn:uuid:0fa5e802-6bf7-44d3-9d59-ca290f985b24"
        }
      }, {
        "item": {
          "reference": "urn:uuid:59856cfb-c306-44b8-8d41-c201c4aa632b"
        }
      }, {
        "item": {
          "reference": "urn:uuid:cb1db2b6-6e2e-4572-b0c2-791a9361b8f0"
        }
      } ]
    }
  } ]
}