{
  "resourceType": "Bundle",
  "identifier": {
    "type": {
      "text": "ClinicalDocument VersionNumber"
    },
    "value": "1"
  },
  "type": "message",
  "entry": [ {
    "fullUrl": "urn:uuid:C34D38AA-2A35-4E0C-AAB2-BCC8D397736A",
    "resource": {
      "resourceType": "MessageHeader",
      "id": "C34D38AA-2A35-4E0C-AAB2-BCC8D397736A",
      "event": {
        "system": "https://fhir.nhs.uk/STU3/CodeSystem/EventType-1",
        "code": "referral-1",
        "display": "Referral"
      },
      "destination": [ {
        "endpoint": "urn:nhs-uk:addressing:ods:A82018:DOSServiceID:136753"
      } ],
      "timestamp": "2021-08-03T13:07:14.000+00:00",
      "source": {
        "name": "NHS 111 Adaptor",
        "endpoint": "http://localhost:8080/report"
      },
      "reason": {
        "coding": [ {
          "system": "urn:nhs-itk:ns:201005:interaction",
          "code": "urn:nhs-itk:interaction:primaryGeneralPractitionerRecipientNHS111CDADocument-v2-0"
        } ]
      }
    }
  }, {
    "fullUrl": "urn:uuid:7ac83628-a0f3-4b96-9cb9-7a29a6f6f180",
    "resource": {
      "resourceType": "Encounter",
      "id": "7ac83628-a0f3-4b96-9cb9-7a29a6f6f180",
      "identifier": [ {
        "system": "2.16.840.1.113883.2.1.3.2.4.18.49",
        "value": "6C072313-DFFB-4D60-9416-43B044FDBA9F"
      }, {
        "system": "2.16.840.1.113883.2.1.3.2.4.18.34",
        "value": "1766759"
      }, {
        "system": "2.16.840.1.113883.2.1.3.2.4.18.35",
        "value": "1766759"
      } ],
      "status": "finished",
      "type": [ {
        "text": "111 Encounter Referral"
      } ],
      "subject": {
        "reference": "urn:uuid:b5373c05-df1c-421a-b595-b873ab914b8f"
      },
      "participant": [ {
        "type": [ {
          "coding": [ {
            "system": "http://hl7.org/fhir/ValueSet/encounter-participant-type",
            "code": "PPRF",
            "display": "Author"
          } ]
        } ],
        "individual": {
          "reference": "urn:uuid:e074f9cc-19af-4304-a489-5ad244544e76"
        }
      } ],
      "period": {
        "start": "2021-08-03T13:07:14+00:00"
      },
      "location": [ {
        "location": {
          "reference": "urn:uuid:ad399a58-edd8-4c10-a0a7-dc3fe37e0a69"
        },
        "status": "active"
      }, {
        "location": {
          "reference": "urn:uuid:df6ca912-7b5d-4c9e-a7b9-4c4e20c784cb"
        },
        "status": "completed"
      } ],
      "serviceProvider": {
        "reference": "urn:uuid:94377c71-34bc-4f01-b680-e4ed11784834"
      }
    }
  }, {
    "fullUrl": "urn:uuid:94377c71-34bc-4f01-b680-e4ed11784834",
    "resource": {
      "resourceType": "Organization",
      "id": "94377c71-34bc-4f01-b680-e4ed11784834",
      "active": true,
      "type": [ {
        "text": "CST"
      } ],
      "name": "NWAS 111"
    }
  }, {
    "fullUrl": "urn:uuid:e074f9cc-19af-4304-a489-5ad244544e76",
    "resource": {
      "resourceType": "Practitioner",
      "id": "e074f9cc-19af-4304-a489-5ad244544e76",
      "active": true,
      "name": [ {
        "text": "AndrewJ.Walford"
      } ]
    }
  }, {
    "fullUrl": "urn:uuid:ad399a58-edd8-4c10-a0a7-dc3fe37e0a69",
    "resource": {
      "resourceType": "Location",
      "id": "ad399a58-edd8-4c10-a0a7-dc3fe37e0a69",
      "managingOrganization": {
        "reference": "urn:uuid:645017e1-b151-4e10-82d5-ee5564b6eb7a"
      }
    }
  }, {
    "fullUrl": "urn:uuid:645017e1-b151-4e10-82d5-ee5564b6eb7a",
    "resource": {
      "resourceType": "Organization",
      "id": "645017e1-b151-4e10-82d5-ee5564b6eb7a",
      "identifier": [ {
        "value": "A82018"
      } ],
      "type": [ {
        "text": "GP Practice"
      } ],
      "name": "Spencer St Surgery",
      "telecom": [ {
        "system": "phone",
        "value": "tel:01228529171",
        "use": "work"
      } ],
      "address": [ {
        "use": "work",
        "line": [ "Spencer Street Surgery", "10 Spencer Street", "Carlisle" ],
        "postalCode": "CA1 1BP"
      } ]
    }
  }, {
    "fullUrl": "urn:uuid:df6ca912-7b5d-4c9e-a7b9-4c4e20c784cb",
    "resource": {
      "resourceType": "Location",
      "id": "df6ca912-7b5d-4c9e-a7b9-4c4e20c784cb",
      "address": {
        "type": "physical",
        "line": [ "North West Ambulance Service Nhs Trust Salkeld Hall", "Infirmary Street", "Carlisle" ],
        "postalCode": "CA2 7AN"
      }
    }
  }, {
    "fullUrl": "urn:uuid:b5373c05-df1c-421a-b595-b873ab914b8f",
    "resource": {
      "resourceType": "Patient",
      "id": "b5373c05-df1c-421a-b595-b873ab914b8f",
      "active": true,
      "name": [ {
        "use": "official",
        "family": "Please Disregard",
        "given": [ "Dx09 Test" ]
      } ],
      "telecom": [ {
        "system": "phone",
        "value": "tel:07798501130",
        "use": "mobile"
      }, {
        "system": "phone",
        "value": "tel:07798501130"
      } ],
      "gender": "male",
      "birthDate": "1980-01-01",
      "address": [ {
        "use": "home",
        "line": [ "North West Ambulance Service Nhs Trust Salkeld Hall", "Infirmary Street", "Carlisle" ],
        "postalCode": "CA2 7AN"
      }, {
        "type": "physical",
        "line": [ "North West Ambulance Service Nhs Trust Salkeld Hall", "Infirmary Street", "Carlisle" ],
        "postalCode": "CA2 7AN"
      } ],
      "generalPractitioner": [ {
        "reference": "urn:uuid:ed9fedd7-bf68-4511-ac08-4c17be411e20"
      } ]
    }
  }, {
    "fullUrl": "urn:uuid:ed9fedd7-bf68-4511-ac08-4c17be411e20",
    "resource": {
      "resourceType": "Organization",
      "id": "ed9fedd7-bf68-4511-ac08-4c17be411e20",
      "identifier": [ {
        "value": "A82018"
      } ],
      "type": [ {
        "text": "GP Practice"
      } ],
      "name": "Spencer St Surgery",
      "telecom": [ {
        "system": "phone",
        "value": "tel:01228529171",
        "use": "work"
      } ],
      "address": [ {
        "use": "work",
        "line": [ "Spencer Street Surgery", "10 Spencer Street", "Carlisle" ],
        "postalCode": "CA1 1BP"
      } ]
    }
  }, {
    "fullUrl": "urn:uuid:386e27a4-edb7-4851-b05c-3ec711990225",
    "resource": {
      "resourceType": "HealthcareService",
      "id": "386e27a4-edb7-4851-b05c-3ec711990225",
      "active": true,
      "providedBy": {
        "reference": "urn:uuid:4205d035-0d0d-4693-8b25-08b39d2dbe53"
      },
      "location": [ {
        "reference": "urn:uuid:18a2b002-817e-4786-a86f-b199846135ef"
      } ],
      "name": "Spencer St Surgery",
      "telecom": [ {
        "system": "phone",
        "value": "tel:01228529171",
        "use": "work"
      } ]
    }
  }, {
    "fullUrl": "urn:uuid:18a2b002-817e-4786-a86f-b199846135ef",
    "resource": {
      "resourceType": "Location",
      "id": "18a2b002-817e-4786-a86f-b199846135ef",
      "telecom": [ {
        "system": "phone",
        "value": "tel:01228529171",
        "use": "work"
      } ],
      "address": {
        "use": "work",
        "line": [ "Spencer Street Surgery", "10 Spencer Street", "Carlisle" ],
        "postalCode": "CA1 1BP"
      },
      "managingOrganization": {
        "reference": "urn:uuid:4205d035-0d0d-4693-8b25-08b39d2dbe53"
      }
    }
  }, {
    "fullUrl": "urn:uuid:4205d035-0d0d-4693-8b25-08b39d2dbe53",
    "resource": {
      "resourceType": "Organization",
      "id": "4205d035-0d0d-4693-8b25-08b39d2dbe53",
      "identifier": [ {
        "value": "A82018"
      } ],
      "type": [ {
        "coding": [ {
          "code": "PRCP",
          "display": "Spencer St Surgery"
        } ]
      } ],
      "name": "Spencer St Surgery"
    }
  }, {
    "fullUrl": "urn:uuid:22ea0db0-7ded-4965-8414-f021e169cf98",
    "resource": {
      "resourceType": "ReferralRequest",
      "id": "22ea0db0-7ded-4965-8414-f021e169cf98",
      "status": "active",
      "intent": "plan",
      "priority": "routine",
      "subject": {
        "reference": "urn:uuid:b5373c05-df1c-421a-b595-b873ab914b8f"
      },
      "context": {
        "reference": "urn:uuid:7ac83628-a0f3-4b96-9cb9-7a29a6f6f180"
      },
      "occurrencePeriod": {
        "start": "2021-09-14T09:23:26+00:00",
        "end": "2021-09-14T10:23:26+00:00"
      },
      "authoredOn": "2021-08-03T12:36:56+00:00",
      "requester": {
        "agent": {
          "reference": "urn:uuid:b6993422-b53e-43f9-83a6-7e4a4a56443f"
        },
        "onBehalfOf": {
          "reference": "urn:uuid:94377c71-34bc-4f01-b680-e4ed11784834"
        }
      },
      "recipient": [ {
        "reference": "urn:uuid:a9bff702-6715-479e-8fed-26d068308231"
      }, {
        "reference": "urn:uuid:386e27a4-edb7-4851-b05c-3ec711990225"
      } ],
      "reasonReference": [ {
        "reference": "urn:uuid:9a5de28e-3866-4e70-b76e-8e674b47c906"
      } ],
      "supportingInfo": [ {
        "reference": "urn:uuid:141e91b4-8ab0-4171-9408-9ae66c912243"
      } ]
    }
  }, {
    "fullUrl": "urn:uuid:141e91b4-8ab0-4171-9408-9ae66c912243",
    "resource": {
      "resourceType": "ProcedureRequest",
      "id": "141e91b4-8ab0-4171-9408-9ae66c912243",
      "status": "active",
      "intent": "plan",
      "priority": "routine",
      "doNotPerform": false,
      "code": {
        "coding": [ {
          "system": "2.16.840.1.113883.2.1.3.2.4.17.325",
          "code": "Dx09",
          "display": "For Persistent Or Recurrent Symptoms: Get In Touch With A Local Service For A Non-urgent Appointment"
        } ]
      },
      "subject": {
        "reference": "urn:uuid:b5373c05-df1c-421a-b595-b873ab914b8f"
      },
      "occurrencePeriod": {
        "start": "2021-09-14T09:23:26+00:00",
        "end": "2021-09-14T10:23:26+00:00"
      },
      "reasonReference": [ {
        "reference": "urn:uuid:9a5de28e-3866-4e70-b76e-8e674b47c906"
      } ]
    }
  }, {
    "fullUrl": "urn:uuid:a9bff702-6715-479e-8fed-26d068308231",
    "resource": {
      "resourceType": "Practitioner",
      "id": "a9bff702-6715-479e-8fed-26d068308231",
      "active": true,
      "address": [ {
        "type": "physical",
        "line": [ "Spencer Street Surgery", "Spencer Street", "Carlisle" ],
        "postalCode": "CA1 1BP"
      } ]
    }
  }, {
    "fullUrl": "urn:uuid:c2591e71-6e74-4fff-8968-affa8fb24eb2",
    "resource": {
      "resourceType": "Composition",
      "id": "c2591e71-6e74-4fff-8968-affa8fb24eb2",
      "identifier": {
        "use": "usual",
        "value": "B5A4AC85-5A10-4D08-B956-83421A24BB81"
      },
      "status": "final",
      "type": {
        "coding": [ {
          "system": "http://snomed.info/sct",
          "code": "371531000",
          "display": "Report of clinical encounter (record artifact)"
        } ]
      },
      "subject": {
        "reference": "urn:uuid:b5373c05-df1c-421a-b595-b873ab914b8f"
      },
      "encounter": {
        "reference": "urn:uuid:7ac83628-a0f3-4b96-9cb9-7a29a6f6f180"
      },
      "date": "2021-09-14T09:23:26+00:00",
      "author": [ {
        "reference": "urn:uuid:e074f9cc-19af-4304-a489-5ad244544e76"
      } ],
      "title": "111 Report",
      "confidentiality": "N",
      "section": [ {
        "section": [ {
          "title": "Patient's Reported Condition",
          "text": {
            "status": "generated",
            "div": "<div xmlns=\"http://www.w3.org/1999/xhtml\">&lt;xml-fragment xmlns:npfitlc=&quot;NPFIT:HL7:Localisation&quot;&gt;**test From Nwas111 - No Action Required - Please Disregard Test&lt;/xml-fragment&gt;</div>"
          }
        }, {
          "title": "Case Summary",
          "text": {
            "status": "generated",
            "div": "<div xmlns=\"http://www.w3.org/1999/xhtml\">&lt;xml-fragment xmlns:npfitlc=&quot;NPFIT:HL7:Localisation&quot;&gt;\n                                                    &lt;urn:content styleCode=&quot;bold&quot; xmlns:urn=&quot;urn:hl7-org:v3&quot;&gt;Pathways Disposition: Dx09&lt;/urn:content&gt;\n                                                    &lt;urn:br xmlns:urn=&quot;urn:hl7-org:v3&quot;/&gt;\n                                                    &lt;urn:content xmlns:urn=&quot;urn:hl7-org:v3&quot;&gt;For Persistent Or Recurrent Symptoms: Get In Touch With A Local Service For A Non-urgent Appointment&lt;/urn:content&gt;\n                                                    &lt;urn:br xmlns:urn=&quot;urn:hl7-org:v3&quot;/&gt;\n                                                    &lt;urn:br xmlns:urn=&quot;urn:hl7-org:v3&quot;/&gt;\n                                                    &lt;urn:content styleCode=&quot;bold&quot; xmlns:urn=&quot;urn:hl7-org:v3&quot;&gt;Consultation Summary:&lt;/urn:content&gt;\n                                                    &lt;urn:br xmlns:urn=&quot;urn:hl7-org:v3&quot;/&gt;\n                                                    &lt;urn:content xmlns:urn=&quot;urn:hl7-org:v3&quot;&gt;Illness - '**Test From NWAS111 - No Action required - Please Disregard Test case**'&lt;/urn:content&gt;\n                                                    &lt;urn:br xmlns:urn=&quot;urn:hl7-org:v3&quot;/&gt;\n                                                    &lt;urn:content xmlns:urn=&quot;urn:hl7-org:v3&quot;&gt;Warm to touch&lt;/urn:content&gt;\n                                                    &lt;urn:br xmlns:urn=&quot;urn:hl7-org:v3&quot;/&gt;\n                                                    &lt;urn:content xmlns:urn=&quot;urn:hl7-org:v3&quot;&gt;Head lice&lt;/urn:content&gt;\n                                                    &lt;urn:br xmlns:urn=&quot;urn:hl7-org:v3&quot;/&gt;\n                                                    &lt;urn:content xmlns:urn=&quot;urn:hl7-org:v3&quot;&gt;Head lice contact&lt;/urn:content&gt;\n                                                    &lt;urn:br xmlns:urn=&quot;urn:hl7-org:v3&quot;/&gt;\n                                                    &lt;urn:content xmlns:urn=&quot;urn:hl7-org:v3&quot;&gt;Recent sudden loss of clumps of hair&lt;/urn:content&gt;\n                                                    &lt;urn:br xmlns:urn=&quot;urn:hl7-org:v3&quot;/&gt;\n                                                    &lt;urn:br xmlns:urn=&quot;urn:hl7-org:v3&quot;/&gt;\n                                                    &lt;urn:content styleCode=&quot;bold&quot; xmlns:urn=&quot;urn:hl7-org:v3&quot;&gt;Pathways Assessment:&lt;/urn:content&gt;\n                                                    &lt;urn:br xmlns:urn=&quot;urn:hl7-org:v3&quot;/&gt;\n                                                    &lt;urn:content xmlns:urn=&quot;urn:hl7-org:v3&quot;&gt;An injury or health problem was the reason for the contact.&lt;/urn:content&gt;\n                                                    &lt;urn:br xmlns:urn=&quot;urn:hl7-org:v3&quot;/&gt;\n                                                    &lt;urn:content xmlns:urn=&quot;urn:hl7-org:v3&quot;&gt;User comment - '**Test From NWAS111 - No Action required - Please Disregard Test case**'&lt;/urn:content&gt;\n                                                    &lt;urn:br xmlns:urn=&quot;urn:hl7-org:v3&quot;/&gt;\n                                                    &lt;urn:content xmlns:urn=&quot;urn:hl7-org:v3&quot;&gt;Heavy bleeding had not occurred in the previous 2 hours.&lt;/urn:content&gt;\n                                                    &lt;urn:br xmlns:urn=&quot;urn:hl7-org:v3&quot;/&gt;\n                                                    &lt;urn:content xmlns:urn=&quot;urn:hl7-org:v3&quot;&gt;An illness or health problem was the main problem.&lt;/urn:content&gt;\n                                                    &lt;urn:br xmlns:urn=&quot;urn:hl7-org:v3&quot;/&gt;\n                                                    &lt;urn:content xmlns:urn=&quot;urn:hl7-org:v3&quot;&gt;User comment - '**Test From NWAS111 - No Action required - Please Disregard Test case**'&lt;/urn:content&gt;\n                                                    &lt;urn:br xmlns:urn=&quot;urn:hl7-org:v3&quot;/&gt;\n                                                    &lt;urn:content xmlns:urn=&quot;urn:hl7-org:v3&quot;&gt;The individual was not fighting for breath.&lt;/urn:content&gt;\n                                                    &lt;urn:br xmlns:urn=&quot;urn:hl7-org:v3&quot;/&gt;\n                                                    &lt;urn:content xmlns:urn=&quot;urn:hl7-org:v3&quot;&gt;The main reason for the assessment was not an allergic reaction, heart attack, chest/upper back pain, probable stroke, recent fit/seizure or suicide attempt.&lt;/urn:content&gt;\n                                                    &lt;urn:br xmlns:urn=&quot;urn:hl7-org:v3&quot;/&gt;\n                                                    &lt;urn:content xmlns:urn=&quot;urn:hl7-org:v3&quot;&gt;The main reason for contact was not new confusion, declared diabetic hypo/hyperglycaemia, or ICD shock.&lt;/urn:content&gt;\n                                                    &lt;urn:br xmlns:urn=&quot;urn:hl7-org:v3&quot;/&gt;\n                                                    &lt;urn:content xmlns:urn=&quot;urn:hl7-org:v3&quot;&gt;The skin on the torso felt normal, warm or hot.&lt;/urn:content&gt;\n                                                    &lt;urn:br xmlns:urn=&quot;urn:hl7-org:v3&quot;/&gt;\n                                                    &lt;urn:content xmlns:urn=&quot;urn:hl7-org:v3&quot;&gt;Pathway selected - Skin Problems&lt;/urn:content&gt;\n                                                    &lt;urn:br xmlns:urn=&quot;urn:hl7-org:v3&quot;/&gt;\n                                                    &lt;urn:content xmlns:urn=&quot;urn:hl7-org:v3&quot;&gt;The main problem was not a rash, itch, jaundice, skin lumps or abnormal bruising.&lt;/urn:content&gt;\n                                                    &lt;urn:br xmlns:urn=&quot;urn:hl7-org:v3&quot;/&gt;\n                                                    &lt;urn:content xmlns:urn=&quot;urn:hl7-org:v3&quot;&gt;The main problem was head lice.&lt;/urn:content&gt;\n                                                    &lt;urn:br xmlns:urn=&quot;urn:hl7-org:v3&quot;/&gt;\n                                                    &lt;urn:content xmlns:urn=&quot;urn:hl7-org:v3&quot;&gt;There had been contact with somebody with head lice.&lt;/urn:content&gt;\n                                                    &lt;urn:br xmlns:urn=&quot;urn:hl7-org:v3&quot;/&gt;\n                                                    &lt;urn:content xmlns:urn=&quot;urn:hl7-org:v3&quot;&gt;There was recent patchy hair loss.&lt;/urn:content&gt;\n                                                    &lt;urn:br xmlns:urn=&quot;urn:hl7-org:v3&quot;/&gt;\n                                                    &lt;urn:content xmlns:urn=&quot;urn:hl7-org:v3&quot;&gt;User comment - 'GP - Spencer Street Surgery - Cumbria (Home GP)'&lt;/urn:content&gt;\n                                                    &lt;urn:br xmlns:urn=&quot;urn:hl7-org:v3&quot;/&gt;\n                                                    &lt;urn:br xmlns:urn=&quot;urn:hl7-org:v3&quot;/&gt;\n                                                    &lt;urn:content styleCode=&quot;bold&quot; xmlns:urn=&quot;urn:hl7-org:v3&quot;&gt;Advice Given:&lt;/urn:content&gt;\n                                                    &lt;urn:br xmlns:urn=&quot;urn:hl7-org:v3&quot;/&gt;\n                                                    &lt;urn:content xmlns:urn=&quot;urn:hl7-org:v3&quot;&gt;Head lice is common. Speak to a pharmacist for advice on suitable treatments.&lt;/urn:content&gt;\n                                                    &lt;urn:br xmlns:urn=&quot;urn:hl7-org:v3&quot;/&gt;\n                                                    &lt;urn:br xmlns:urn=&quot;urn:hl7-org:v3&quot;/&gt;\n                                                &lt;/xml-fragment&gt;</div>"
          }
        } ]
      }, {
        "title": "ReferralRequest",
        "entry": [ {
          "reference": "urn:uuid:22ea0db0-7ded-4965-8414-f021e169cf98"
        } ]
      }, {
        "title": "QuestionnaireResponse",
        "entry": [ {
          "reference": "urn:uuid:b8491360-4ccd-4b82-943f-93a1f007bc80"
        } ]
      }, {
        "title": "QuestionnaireResponse",
        "entry": [ {
          "reference": "urn:uuid:7f772cda-f4b5-4ea3-94a3-9138c4098031"
        } ]
      }, {
        "title": "QuestionnaireResponse",
        "entry": [ {
          "reference": "urn:uuid:c5b5aae0-164c-4af5-b625-6a04c254df8a"
        } ]
      }, {
        "title": "QuestionnaireResponse",
        "entry": [ {
          "reference": "urn:uuid:69900afa-1479-4037-8a94-123c3080e9ca"
        } ]
      }, {
        "title": "QuestionnaireResponse",
        "entry": [ {
          "reference": "urn:uuid:ea0051fd-a251-4b60-b737-ecfd67b7dd74"
        } ]
      }, {
        "title": "QuestionnaireResponse",
        "entry": [ {
          "reference": "urn:uuid:37c72d36-dd3f-4105-b080-532deedd59fb"
        } ]
      }, {
        "title": "QuestionnaireResponse",
        "entry": [ {
          "reference": "urn:uuid:0445efe4-106f-449b-b09e-8ea0a42c93a8"
        } ]
      }, {
        "title": "QuestionnaireResponse",
        "entry": [ {
          "reference": "urn:uuid:fc548085-03f0-4f34-99a8-0c631cdbfe78"
        } ]
      }, {
        "title": "QuestionnaireResponse",
        "entry": [ {
          "reference": "urn:uuid:781298c7-25ac-46b3-b98f-578dfd0b3298"
        } ]
      }, {
        "title": "QuestionnaireResponse",
        "entry": [ {
          "reference": "urn:uuid:cacf90e9-0586-4d94-b261-a0d8c6507256"
        } ]
      }, {
        "title": "QuestionnaireResponse",
        "entry": [ {
          "reference": "urn:uuid:7cb3dfa0-decb-41fc-8f58-03261b28e2f8"
        } ]
      }, {
        "title": "QuestionnaireResponse",
        "entry": [ {
          "reference": "urn:uuid:79871865-2535-4031-b5f8-4b39bc5aaf40"
        } ]
      }, {
        "title": "QuestionnaireResponse",
        "entry": [ {
          "reference": "urn:uuid:8a550654-e646-4cad-80bb-6912dda1c66b"
        } ]
      }, {
        "title": "QuestionnaireResponse",
        "entry": [ {
          "reference": "urn:uuid:bd68ccc5-aca4-4c42-99e6-ceafa0f2da03"
        } ]
      }, {
        "title": "QuestionnaireResponse",
        "entry": [ {
          "reference": "urn:uuid:5c1fd482-0dfd-4ac3-9f6b-3e0f9e151f8e"
        } ]
      }, {
        "title": "QuestionnaireResponse",
        "entry": [ {
          "reference": "urn:uuid:8645fce7-22a4-4cf9-98cf-29bcc3414aab"
        } ]
      }, {
        "title": "QuestionnaireResponse",
        "entry": [ {
          "reference": "urn:uuid:a1f5b391-1569-40c2-8fd6-7599063ea777"
        } ]
      }, {
        "title": "QuestionnaireResponse",
        "entry": [ {
          "reference": "urn:uuid:fb57655b-19b9-4c9b-be6d-6bbac9c7fc18"
        } ]
      }, {
        "title": "QuestionnaireResponse",
        "entry": [ {
          "reference": "urn:uuid:ea4ada84-c06d-4d4a-ab01-05d781755228"
        } ]
      }, {
        "title": "QuestionnaireResponse",
        "entry": [ {
          "reference": "urn:uuid:37758361-6388-4618-afed-5f10a8f5e46e"
        } ]
      }, {
        "title": "QuestionnaireResponse",
        "entry": [ {
          "reference": "urn:uuid:29131d0c-1753-4cc0-b4e0-5040cbab28b6"
        } ]
      } ]
    }
  }, {
    "fullUrl": "urn:uuid:a960dd28-c46f-4499-8242-c7a7f404addc",
    "resource": {
      "resourceType": "Consent",
      "id": "a960dd28-c46f-4499-8242-c7a7f404addc",
      "identifier": {
        "use": "usual",
        "value": "B5A4AC85-5A10-4D08-B956-83421A24BB81"
      },
      "status": "active",
      "patient": {
        "reference": "urn:uuid:b5373c05-df1c-421a-b595-b873ab914b8f"
      },
      "period": {
        "start": "2021-08-03T13:07:14+00:00"
      },
      "consentingParty": [ {
        "reference": "urn:uuid:b5373c05-df1c-421a-b595-b873ab914b8f"
      } ],
      "action": [ {
        "coding": [ {
          "system": "http://snomed.info/sct",
          "code": "425691002",
          "display": "Consent given for electronic record sharing"
        } ],
        "text": "Consent given for electronic record sharing"
      } ],
      "organization": [ {
        "reference": "urn:uuid:94377c71-34bc-4f01-b680-e4ed11784834"
      } ],
      "policyRule": "http://hl7.org/fhir/ConsentPolicy/opt-out",
      "data": [ {
        "meaning": "related",
        "reference": {
          "reference": "urn:uuid:7ac83628-a0f3-4b96-9cb9-7a29a6f6f180"
        }
      } ]
    }
  }, {
    "fullUrl": "urn:uuid:9a5de28e-3866-4e70-b76e-8e674b47c906",
    "resource": {
      "resourceType": "Condition",
      "id": "9a5de28e-3866-4e70-b76e-8e674b47c906",
      "clinicalStatus": "active",
      "verificationStatus": "unknown",
      "subject": {
        "reference": "urn:uuid:b5373c05-df1c-421a-b595-b873ab914b8f"
      },
      "context": {
        "reference": "urn:uuid:7ac83628-a0f3-4b96-9cb9-7a29a6f6f180"
      },
      "evidence": [ {
        "detail": [ {
          "reference": "urn:uuid:b8491360-4ccd-4b82-943f-93a1f007bc80"
        } ]
      }, {
        "detail": [ {
          "reference": "urn:uuid:7f772cda-f4b5-4ea3-94a3-9138c4098031"
        } ]
      }, {
        "detail": [ {
          "reference": "urn:uuid:c5b5aae0-164c-4af5-b625-6a04c254df8a"
        } ]
      }, {
        "detail": [ {
          "reference": "urn:uuid:69900afa-1479-4037-8a94-123c3080e9ca"
        } ]
      }, {
        "detail": [ {
          "reference": "urn:uuid:ea0051fd-a251-4b60-b737-ecfd67b7dd74"
        } ]
      }, {
        "detail": [ {
          "reference": "urn:uuid:37c72d36-dd3f-4105-b080-532deedd59fb"
        } ]
      }, {
        "detail": [ {
          "reference": "urn:uuid:0445efe4-106f-449b-b09e-8ea0a42c93a8"
        } ]
      }, {
        "detail": [ {
          "reference": "urn:uuid:fc548085-03f0-4f34-99a8-0c631cdbfe78"
        } ]
      }, {
        "detail": [ {
          "reference": "urn:uuid:781298c7-25ac-46b3-b98f-578dfd0b3298"
        } ]
      }, {
        "detail": [ {
          "reference": "urn:uuid:cacf90e9-0586-4d94-b261-a0d8c6507256"
        } ]
      }, {
        "detail": [ {
          "reference": "urn:uuid:7cb3dfa0-decb-41fc-8f58-03261b28e2f8"
        } ]
      }, {
        "detail": [ {
          "reference": "urn:uuid:79871865-2535-4031-b5f8-4b39bc5aaf40"
        } ]
      }, {
        "detail": [ {
          "reference": "urn:uuid:8a550654-e646-4cad-80bb-6912dda1c66b"
        } ]
      }, {
        "detail": [ {
          "reference": "urn:uuid:bd68ccc5-aca4-4c42-99e6-ceafa0f2da03"
        } ]
      }, {
        "detail": [ {
          "reference": "urn:uuid:5c1fd482-0dfd-4ac3-9f6b-3e0f9e151f8e"
        } ]
      }, {
        "detail": [ {
          "reference": "urn:uuid:8645fce7-22a4-4cf9-98cf-29bcc3414aab"
        } ]
      }, {
        "detail": [ {
          "reference": "urn:uuid:a1f5b391-1569-40c2-8fd6-7599063ea777"
        } ]
      }, {
        "detail": [ {
          "reference": "urn:uuid:fb57655b-19b9-4c9b-be6d-6bbac9c7fc18"
        } ]
      }, {
        "detail": [ {
          "reference": "urn:uuid:ea4ada84-c06d-4d4a-ab01-05d781755228"
        } ]
      }, {
        "detail": [ {
          "reference": "urn:uuid:37758361-6388-4618-afed-5f10a8f5e46e"
        } ]
      }, {
        "detail": [ {
          "reference": "urn:uuid:29131d0c-1753-4cc0-b4e0-5040cbab28b6"
        } ]
      } ]
    }
  }, {
    "fullUrl": "urn:uuid:b8491360-4ccd-4b82-943f-93a1f007bc80",
    "resource": {
      "resourceType": "QuestionnaireResponse",
      "id": "b8491360-4ccd-4b82-943f-93a1f007bc80",
      "identifier": {
        "value": "1766759"
      },
      "questionnaire": {
        "reference": "urn:uuid:0b9bcafc-5264-4981-9c14-e51e2d234212"
      },
      "status": "completed",
      "subject": {
        "reference": "urn:uuid:b5373c05-df1c-421a-b595-b873ab914b8f"
      },
      "context": {
        "reference": "urn:uuid:7ac83628-a0f3-4b96-9cb9-7a29a6f6f180"
      },
      "authored": "2021-08-03T13:07:14+00:00",
      "item": [ {
        "linkId": "Tx220109",
        "text": "What is the reason for the contact?",
        "answer": [ {
          "valueString": "an injury or other health problem"
        } ]
      } ]
    }
  }, {
    "fullUrl": "urn:uuid:0b9bcafc-5264-4981-9c14-e51e2d234212",
    "resource": {
      "resourceType": "Questionnaire",
      "id": "0b9bcafc-5264-4981-9c14-e51e2d234212",
      "identifier": [ {
        "value": "1766759"
      } ],
      "version": "2021-08-03T13:07:14.000Z",
      "status": "active",
      "experimental": false,
      "date": "2021-08-03T13:07:14+00:00",
      "publisher": "User ID: '922' User name: 'AndrewJ.Walford' User skill set: 'T4'",
      "lastReviewDate": "2021-08-03",
      "contact": [ {
        "telecom": [ {
          "value": "07798501130"
        } ]
      } ],
      "subjectType": [ "Patient" ],
      "item": [ {
        "linkId": "1766759",
        "prefix": "5",
        "text": "What is the reason for the contact?",
        "type": "choice",
        "required": true,
        "repeats": false,
        "option": [ {
          "valueString": "an injury or other health problem, Selected: true"
        }, {
          "valueString": "a need to access another healthcare service, Selected: false"
        }, {
          "valueString": "a healthcare professional requesting contact with another clinician, Selected: false"
        }, {
          "valueString": "a report of results or tests, Selected: false"
        }, {
          "valueString": "more, Selected: false"
        } ]
      } ]
    }
  }, {
    "fullUrl": "urn:uuid:7f772cda-f4b5-4ea3-94a3-9138c4098031",
    "resource": {
      "resourceType": "QuestionnaireResponse",
      "id": "7f772cda-f4b5-4ea3-94a3-9138c4098031",
      "identifier": {
        "value": "1766759"
      },
      "questionnaire": {
        "reference": "urn:uuid:2261b23d-ee5d-485a-8583-c36751b38526"
      },
      "status": "completed",
      "subject": {
        "reference": "urn:uuid:b5373c05-df1c-421a-b595-b873ab914b8f"
      },
      "context": {
        "reference": "urn:uuid:7ac83628-a0f3-4b96-9cb9-7a29a6f6f180"
      },
      "authored": "2021-08-03T13:07:14+00:00",
      "item": [ {
        "linkId": "Tx221788",
        "text": "STRING:to'ImmediateThreatsToLife(SPA/OOHversion)'-'ABC'menu",
        "answer": [ {
          "valueString": "\"\"present\"\""
        } ]
      } ]
    }
  }, {
    "fullUrl": "urn:uuid:2261b23d-ee5d-485a-8583-c36751b38526",
    "resource": {
      "resourceType": "Questionnaire",
      "id": "2261b23d-ee5d-485a-8583-c36751b38526",
      "identifier": [ {
        "value": "1766759"
      } ],
      "version": "2021-08-03T13:07:14.000Z",
      "status": "active",
      "experimental": false,
      "date": "2021-08-03T13:07:14+00:00",
      "publisher": "User ID: '922' User name: 'AndrewJ.Walford' User skill set: 'T4'",
      "lastReviewDate": "2021-08-03",
      "contact": [ {
        "telecom": [ {
          "value": "07798501130"
        } ]
      } ],
      "subjectType": [ "Patient" ],
      "item": [ {
        "linkId": "1766759",
        "prefix": "500",
        "text": "STRING:to'ImmediateThreatsToLife(SPA/OOHversion)'-'ABC'menu",
        "type": "choice",
        "required": true,
        "repeats": false,
        "option": [ {
          "valueString": "\"\"present\"\", Selected: true"
        } ]
      } ]
    }
  }, {
    "fullUrl": "urn:uuid:c5b5aae0-164c-4af5-b625-6a04c254df8a",
    "resource": {
      "resourceType": "QuestionnaireResponse",
      "id": "c5b5aae0-164c-4af5-b625-6a04c254df8a",
      "identifier": {
        "value": "1766759"
      },
      "questionnaire": {
        "reference": "urn:uuid:33b4dbd0-4620-4d5c-bc1a-674fd9753919"
      },
      "status": "completed",
      "subject": {
        "reference": "urn:uuid:b5373c05-df1c-421a-b595-b873ab914b8f"
      },
      "context": {
        "reference": "urn:uuid:7ac83628-a0f3-4b96-9cb9-7a29a6f6f180"
      },
      "authored": "2021-08-03T13:07:14+00:00",
      "item": [ {
        "linkId": "Tx221814",
        "text": "STRING:aninjuryorotherhealthproblemestablishedinEntryFlow",
        "answer": [ {
          "valueString": "\"\"present\"\""
        } ]
      } ]
    }
  }, {
    "fullUrl": "urn:uuid:33b4dbd0-4620-4d5c-bc1a-674fd9753919",
    "resource": {
      "resourceType": "Questionnaire",
      "id": "33b4dbd0-4620-4d5c-bc1a-674fd9753919",
      "identifier": [ {
        "value": "1766759"
      } ],
      "version": "2021-08-03T13:07:14.000Z",
      "status": "active",
      "experimental": false,
      "date": "2021-08-03T13:07:14+00:00",
      "publisher": "User ID: '922' User name: 'AndrewJ.Walford' User skill set: 'T4'",
      "lastReviewDate": "2021-08-03",
      "contact": [ {
        "telecom": [ {
          "value": "07798501130"
        } ]
      } ],
      "subjectType": [ "Patient" ],
      "item": [ {
        "linkId": "1766759",
        "prefix": "0",
        "text": "STRING:aninjuryorotherhealthproblemestablishedinEntryFlow",
        "type": "choice",
        "required": true,
        "repeats": false,
        "option": [ {
          "valueString": "\"\"present\"\", Selected: true"
        } ]
      } ]
    }
  }, {
    "fullUrl": "urn:uuid:69900afa-1479-4037-8a94-123c3080e9ca",
    "resource": {
      "resourceType": "QuestionnaireResponse",
      "id": "69900afa-1479-4037-8a94-123c3080e9ca",
      "identifier": {
        "value": "1766759"
      },
      "questionnaire": {
        "reference": "urn:uuid:09cc48bd-9415-4f12-b95b-d01396b83b69"
      },
      "status": "completed",
      "subject": {
        "reference": "urn:uuid:b5373c05-df1c-421a-b595-b873ab914b8f"
      },
      "context": {
        "reference": "urn:uuid:7ac83628-a0f3-4b96-9cb9-7a29a6f6f180"
      },
      "authored": "2021-08-03T13:07:14+00:00",
      "item": [ {
        "linkId": "Tx224120",
        "text": "Have you been bleeding RED BLOOD very heavily IN THE LAST 2 HOURS?",
        "answer": [ {
          "valueString": "no"
        } ]
      } ]
    }
  }, {
    "fullUrl": "urn:uuid:09cc48bd-9415-4f12-b95b-d01396b83b69",
    "resource": {
      "resourceType": "Questionnaire",
      "id": "09cc48bd-9415-4f12-b95b-d01396b83b69",
      "identifier": [ {
        "value": "1766759"
      } ],
      "version": "2021-08-03T13:07:14.000Z",
      "status": "active",
      "experimental": false,
      "date": "2021-08-03T13:07:14+00:00",
      "publisher": "User ID: '922' User name: 'AndrewJ.Walford' User skill set: 'T4'",
      "lastReviewDate": "2021-08-03",
      "contact": [ {
        "telecom": [ {
          "value": "07798501130"
        } ]
      } ],
      "subjectType": [ "Patient" ],
      "item": [ {
        "linkId": "1766759",
        "prefix": "7000",
        "text": "Have you been bleeding RED BLOOD very heavily IN THE LAST 2 HOURS?",
        "type": "choice",
        "required": true,
        "repeats": false,
        "option": [ {
          "valueString": "yes, Selected: false"
        }, {
          "valueString": "not sure, Selected: false"
        }, {
          "valueString": "no, Selected: true"
        } ]
      } ]
    }
  }, {
    "fullUrl": "urn:uuid:ea0051fd-a251-4b60-b737-ecfd67b7dd74",
    "resource": {
      "resourceType": "QuestionnaireResponse",
      "id": "ea0051fd-a251-4b60-b737-ecfd67b7dd74",
      "identifier": {
        "value": "1766759"
      },
      "questionnaire": {
        "reference": "urn:uuid:7285c9f5-ddd7-4077-8391-a059f6b879f4"
      },
      "status": "completed",
      "subject": {
        "reference": "urn:uuid:b5373c05-df1c-421a-b595-b873ab914b8f"
      },
      "context": {
        "reference": "urn:uuid:7ac83628-a0f3-4b96-9cb9-7a29a6f6f180"
      },
      "authored": "2021-08-03T13:07:14+00:00",
      "item": [ {
        "linkId": "Tx221343",
        "text": "SocialConcernsExcluded",
        "answer": [ {
          "valueString": "*"
        } ]
      } ]
    }
  }, {
    "fullUrl": "urn:uuid:7285c9f5-ddd7-4077-8391-a059f6b879f4",
    "resource": {
      "resourceType": "Questionnaire",
      "id": "7285c9f5-ddd7-4077-8391-a059f6b879f4",
      "identifier": [ {
        "value": "1766759"
      } ],
      "version": "2021-08-03T13:07:14.000Z",
      "status": "active",
      "experimental": false,
      "date": "2021-08-03T13:07:14+00:00",
      "publisher": "User ID: '922' User name: 'AndrewJ.Walford' User skill set: 'T4'",
      "lastReviewDate": "2021-08-03",
      "contact": [ {
        "telecom": [ {
          "value": "07798501130"
        } ]
      } ],
      "subjectType": [ "Patient" ],
      "item": [ {
        "linkId": "1766759",
        "prefix": "2700",
        "text": "SocialConcernsExcluded",
        "type": "choice",
        "required": true,
        "repeats": false,
        "option": [ {
          "valueString": "==\"\"present\"\", Selected: false"
        }, {
          "valueString": "*, Selected: true"
        } ]
      } ]
    }
  }, {
    "fullUrl": "urn:uuid:37c72d36-dd3f-4105-b080-532deedd59fb",
    "resource": {
      "resourceType": "QuestionnaireResponse",
      "id": "37c72d36-dd3f-4105-b080-532deedd59fb",
      "identifier": {
        "value": "1766759"
      },
      "questionnaire": {
        "reference": "urn:uuid:a69e0929-df35-4adb-b1e5-fd5740dab022"
      },
      "status": "completed",
      "subject": {
        "reference": "urn:uuid:b5373c05-df1c-421a-b595-b873ab914b8f"
      },
      "context": {
        "reference": "urn:uuid:7ac83628-a0f3-4b96-9cb9-7a29a6f6f180"
      },
      "authored": "2021-08-03T13:07:14+00:00",
      "item": [ {
        "linkId": "Tx130011",
        "text": "What is the main problem?",
        "answer": [ {
          "valueString": "illness or other health problem (specify)"
        } ]
      } ]
    }
  }, {
    "fullUrl": "urn:uuid:a69e0929-df35-4adb-b1e5-fd5740dab022",
    "resource": {
      "resourceType": "Questionnaire",
      "id": "a69e0929-df35-4adb-b1e5-fd5740dab022",
      "identifier": [ {
        "value": "1766759"
      } ],
      "version": "2021-08-03T13:07:14.000Z",
      "status": "active",
      "experimental": false,
      "date": "2021-08-03T13:07:14+00:00",
      "publisher": "User ID: '922' User name: 'AndrewJ.Walford' User skill set: 'T4'",
      "lastReviewDate": "2021-08-03",
      "contact": [ {
        "telecom": [ {
          "value": "07798501130"
        } ]
      } ],
      "subjectType": [ "Patient" ],
      "item": [ {
        "linkId": "1766759",
        "prefix": "3400",
        "text": "What is the main problem?",
        "type": "choice",
        "required": true,
        "repeats": false,
        "option": [ {
          "valueString": "the individual has been told to follow a particular course of action (specify), Selected: false"
        }, {
          "valueString": "the individual is an identified frequent caller, Selected: false"
        }, {
          "valueString": "injury (specify), Selected: false"
        }, {
          "valueString": "illness or other health problem (specify), Selected: true"
        }, {
          "valueString": "child protection/vulnerable adult concern, Selected: false"
        }, {
          "valueString": "social or domestic emergency, Selected: false"
        }, {
          "valueString": "the environment potentially poses an immediate threat to life (specify), Selected: false"
        } ]
      } ]
    }
  }, {
    "fullUrl": "urn:uuid:0445efe4-106f-449b-b09e-8ea0a42c93a8",
    "resource": {
      "resourceType": "QuestionnaireResponse",
      "id": "0445efe4-106f-449b-b09e-8ea0a42c93a8",
      "identifier": {
        "value": "1766759"
      },
      "questionnaire": {
        "reference": "urn:uuid:ea5fe350-c275-437f-aae4-5000d8635571"
      },
      "status": "completed",
      "subject": {
        "reference": "urn:uuid:b5373c05-df1c-421a-b595-b873ab914b8f"
      },
      "context": {
        "reference": "urn:uuid:7ac83628-a0f3-4b96-9cb9-7a29a6f6f180"
      },
      "authored": "2021-08-03T13:07:14+00:00",
      "item": [ {
        "linkId": "Tx61025",
        "text": "Are you so breathless that speaking more than a few words is impossible?",
        "answer": [ {
          "valueString": "no"
        } ]
      } ]
    }
  }, {
    "fullUrl": "urn:uuid:ea5fe350-c275-437f-aae4-5000d8635571",
    "resource": {
      "resourceType": "Questionnaire",
      "id": "ea5fe350-c275-437f-aae4-5000d8635571",
      "identifier": [ {
        "value": "1766759"
      } ],
      "version": "2021-08-03T13:07:14.000Z",
      "status": "active",
      "experimental": false,
      "date": "2021-08-03T13:07:14+00:00",
      "publisher": "User ID: '922' User name: 'AndrewJ.Walford' User skill set: 'T4'",
      "lastReviewDate": "2021-08-03",
      "contact": [ {
        "telecom": [ {
          "value": "07798501130"
        } ]
      } ],
      "subjectType": [ "Patient" ],
      "item": [ {
        "linkId": "1766759",
        "prefix": "0",
        "text": "Are you so breathless that speaking more than a few words is impossible?",
        "type": "choice",
        "required": true,
        "repeats": false,
        "option": [ {
          "valueString": "yes, Selected: false"
        }, {
          "valueString": "not sure, Selected: false"
        }, {
          "valueString": "no, Selected: true"
        } ]
      } ]
    }
  }, {
    "fullUrl": "urn:uuid:fc548085-03f0-4f34-99a8-0c631cdbfe78",
    "resource": {
      "resourceType": "QuestionnaireResponse",
      "id": "fc548085-03f0-4f34-99a8-0c631cdbfe78",
      "identifier": {
        "value": "1766759"
      },
      "questionnaire": {
        "reference": "urn:uuid:b0097045-e7d2-40e7-a94e-10cb5ca2680e"
      },
      "status": "completed",
      "subject": {
        "reference": "urn:uuid:b5373c05-df1c-421a-b595-b873ab914b8f"
      },
      "context": {
        "reference": "urn:uuid:7ac83628-a0f3-4b96-9cb9-7a29a6f6f180"
      },
      "authored": "2021-08-03T13:07:14+00:00",
      "item": [ {
        "linkId": "Tx220845",
        "text": "SYSTEM_FLUPANDEMIC",
        "answer": [ {
          "valueString": "*"
        } ]
      } ]
    }
  }, {
    "fullUrl": "urn:uuid:b0097045-e7d2-40e7-a94e-10cb5ca2680e",
    "resource": {
      "resourceType": "Questionnaire",
      "id": "b0097045-e7d2-40e7-a94e-10cb5ca2680e",
      "identifier": [ {
        "value": "1766759"
      } ],
      "version": "2021-08-03T13:07:14.000Z",
      "status": "active",
      "experimental": false,
      "date": "2021-08-03T13:07:14+00:00",
      "publisher": "User ID: '922' User name: 'AndrewJ.Walford' User skill set: 'T4'",
      "lastReviewDate": "2021-08-03",
      "contact": [ {
        "telecom": [ {
          "value": "07798501130"
        } ]
      } ],
      "subjectType": [ "Patient" ],
      "item": [ {
        "linkId": "1766759",
        "prefix": "100",
        "text": "SYSTEM_FLUPANDEMIC",
        "type": "choice",
        "required": true,
        "repeats": false,
        "option": [ {
          "valueString": "==\"\"pandemic\"\", Selected: false"
        }, {
          "valueString": "*, Selected: true"
        } ]
      } ]
    }
  }, {
    "fullUrl": "urn:uuid:781298c7-25ac-46b3-b98f-578dfd0b3298",
    "resource": {
      "resourceType": "QuestionnaireResponse",
      "id": "781298c7-25ac-46b3-b98f-578dfd0b3298",
      "identifier": {
        "value": "1766759"
      },
      "questionnaire": {
        "reference": "urn:uuid:54897f45-200e-4920-a6cf-552a1e626da1"
      },
      "status": "completed",
      "subject": {
        "reference": "urn:uuid:b5373c05-df1c-421a-b595-b873ab914b8f"
      },
      "context": {
        "reference": "urn:uuid:7ac83628-a0f3-4b96-9cb9-7a29a6f6f180"
      },
      "authored": "2021-08-03T13:07:14+00:00",
      "item": [ {
        "linkId": "Tx223440",
        "text": "WHAT IS SAID TO BE THE MAIN REASON FOR THIS CONTACT?",
        "answer": [ {
          "valueString": "more"
        } ]
      } ]
    }
  }, {
    "fullUrl": "urn:uuid:54897f45-200e-4920-a6cf-552a1e626da1",
    "resource": {
      "resourceType": "Questionnaire",
      "id": "54897f45-200e-4920-a6cf-552a1e626da1",
      "identifier": [ {
        "value": "1766759"
      } ],
      "version": "2021-08-03T13:07:14.000Z",
      "status": "active",
      "experimental": false,
      "date": "2021-08-03T13:07:14+00:00",
      "publisher": "User ID: '922' User name: 'AndrewJ.Walford' User skill set: 'T4'",
      "lastReviewDate": "2021-08-03",
      "contact": [ {
        "telecom": [ {
          "value": "07798501130"
        } ]
      } ],
      "subjectType": [ "Patient" ],
      "item": [ {
        "linkId": "1766759",
        "prefix": "5000",
        "text": "WHAT IS SAID TO BE THE MAIN REASON FOR THIS CONTACT?",
        "type": "choice",
        "required": true,
        "repeats": false,
        "option": [ {
          "valueString": "a probable allergic reaction now, Selected: false"
        }, {
          "valueString": "a probable heart attack, Selected: false"
        }, {
          "valueString": "chest or upper back pain, Selected: false"
        }, {
          "valueString": "a probable stroke or mini-stroke, Selected: false"
        }, {
          "valueString": "a probable fit or seizure within the last 12 hours, Selected: false"
        }, {
          "valueString": "a suicide attempt, Selected: false"
        }, {
          "valueString": "more, Selected: true"
        } ]
      } ]
    }
  }, {
    "fullUrl": "urn:uuid:cacf90e9-0586-4d94-b261-a0d8c6507256",
    "resource": {
      "resourceType": "QuestionnaireResponse",
      "id": "cacf90e9-0586-4d94-b261-a0d8c6507256",
      "identifier": {
        "value": "1766759"
      },
      "questionnaire": {
        "reference": "urn:uuid:4db9d55d-a068-40a5-9651-4a01e8a65a9f"
      },
      "status": "completed",
      "subject": {
        "reference": "urn:uuid:b5373c05-df1c-421a-b595-b873ab914b8f"
      },
      "context": {
        "reference": "urn:uuid:7ac83628-a0f3-4b96-9cb9-7a29a6f6f180"
      },
      "authored": "2021-08-03T13:07:14+00:00",
      "item": [ {
        "linkId": "Tx220032",
        "text": "WHAT IS SAID TO BE THE MAIN REASON FOR THIS CONTACT?",
        "answer": [ {
          "valueString": "none of the above"
        } ]
      } ]
    }
  }, {
    "fullUrl": "urn:uuid:4db9d55d-a068-40a5-9651-4a01e8a65a9f",
    "resource": {
      "resourceType": "Questionnaire",
      "id": "4db9d55d-a068-40a5-9651-4a01e8a65a9f",
      "identifier": [ {
        "value": "1766759"
      } ],
      "version": "2021-08-03T13:07:14.000Z",
      "status": "active",
      "experimental": false,
      "date": "2021-08-03T13:07:14+00:00",
      "publisher": "User ID: '922' User name: 'AndrewJ.Walford' User skill set: 'T4'",
      "lastReviewDate": "2021-08-03",
      "contact": [ {
        "telecom": [ {
          "value": "07798501130"
        } ]
      } ],
      "subjectType": [ "Patient" ],
      "item": [ {
        "linkId": "1766759",
        "prefix": "1900",
        "text": "WHAT IS SAID TO BE THE MAIN REASON FOR THIS CONTACT?",
        "type": "choice",
        "required": true,
        "repeats": false,
        "option": [ {
          "valueString": "new confusion now, Selected: false"
        }, {
          "valueString": "a diabetic hypo (low blood sugar) or a diabetic hyper (high blood sugar), Selected: false"
        }, {
          "valueString": "recovery from an ICD (implanted cardioverter defibrillator) shock, Selected: false"
        }, {
          "valueString": "none of the above, Selected: true"
        } ]
      } ]
    }
  }, {
    "fullUrl": "urn:uuid:7cb3dfa0-decb-41fc-8f58-03261b28e2f8",
    "resource": {
      "resourceType": "QuestionnaireResponse",
      "id": "7cb3dfa0-decb-41fc-8f58-03261b28e2f8",
      "identifier": {
        "value": "1766759"
      },
      "questionnaire": {
        "reference": "urn:uuid:18caa67b-5cfa-452a-bea3-827bcf73fe6e"
      },
      "status": "completed",
      "subject": {
        "reference": "urn:uuid:b5373c05-df1c-421a-b595-b873ab914b8f"
      },
      "context": {
        "reference": "urn:uuid:7ac83628-a0f3-4b96-9cb9-7a29a6f6f180"
      },
      "authored": "2021-08-03T13:07:14+00:00",
      "item": [ {
        "linkId": "Tx223142",
        "text": "Does the skin on the chest, back or abdomen feel a normal temperature?",
        "answer": [ {
          "valueString": "yes - normal, warm or hot"
        } ]
      } ]
    }
  }, {
    "fullUrl": "urn:uuid:18caa67b-5cfa-452a-bea3-827bcf73fe6e",
    "resource": {
      "resourceType": "Questionnaire",
      "id": "18caa67b-5cfa-452a-bea3-827bcf73fe6e",
      "identifier": [ {
        "value": "1766759"
      } ],
      "version": "2021-08-03T13:07:14.000Z",
      "status": "active",
      "experimental": false,
      "date": "2021-08-03T13:07:14+00:00",
      "publisher": "User ID: '922' User name: 'AndrewJ.Walford' User skill set: 'T4'",
      "lastReviewDate": "2021-08-03",
      "contact": [ {
        "telecom": [ {
          "value": "07798501130"
        } ]
      } ],
      "subjectType": [ "Patient" ],
      "item": [ {
        "linkId": "1766759",
        "prefix": "4000",
        "text": "Does the skin on the chest, back or abdomen feel a normal temperature?",
        "type": "choice",
        "required": true,
        "repeats": false,
        "option": [ {
          "valueString": "yes - normal, warm or hot, Selected: true"
        }, {
          "valueString": "not sure, Selected: false"
        }, {
          "valueString": "no - cool OR cold, Selected: false"
        }, {
          "valueString": "not safe to touch, Selected: false"
        } ]
      } ]
    }
  }, {
    "fullUrl": "urn:uuid:79871865-2535-4031-b5f8-4b39bc5aaf40",
    "resource": {
      "resourceType": "QuestionnaireResponse",
      "id": "79871865-2535-4031-b5f8-4b39bc5aaf40",
      "identifier": {
        "value": "1766759"
      },
      "questionnaire": {
        "reference": "urn:uuid:ae684a1a-b1fd-4a65-9976-e31bc7246cc4"
      },
      "status": "completed",
      "subject": {
        "reference": "urn:uuid:b5373c05-df1c-421a-b595-b873ab914b8f"
      },
      "context": {
        "reference": "urn:uuid:7ac83628-a0f3-4b96-9cb9-7a29a6f6f180"
      },
      "authored": "2021-08-03T13:07:14+00:00",
      "item": [ {
        "linkId": "Tx221724",
        "text": "STRING:ShockAsked",
        "answer": [ {
          "valueString": "\"\"present\"\""
        } ]
      } ]
    }
  }, {
    "fullUrl": "urn:uuid:ae684a1a-b1fd-4a65-9976-e31bc7246cc4",
    "resource": {
      "resourceType": "Questionnaire",
      "id": "ae684a1a-b1fd-4a65-9976-e31bc7246cc4",
      "identifier": [ {
        "value": "1766759"
      } ],
      "version": "2021-08-03T13:07:14.000Z",
      "status": "active",
      "experimental": false,
      "date": "2021-08-03T13:07:14+00:00",
      "publisher": "User ID: '922' User name: 'AndrewJ.Walford' User skill set: 'T4'",
      "lastReviewDate": "2021-08-03",
      "contact": [ {
        "telecom": [ {
          "value": "07798501130"
        } ]
      } ],
      "subjectType": [ "Patient" ],
      "item": [ {
        "linkId": "1766759",
        "prefix": "3300",
        "text": "STRING:ShockAsked",
        "type": "choice",
        "required": true,
        "repeats": false,
        "option": [ {
          "valueString": "\"\"present\"\", Selected: true"
        } ]
      } ]
    }
  }, {
    "fullUrl": "urn:uuid:8a550654-e646-4cad-80bb-6912dda1c66b",
    "resource": {
      "resourceType": "QuestionnaireResponse",
      "id": "8a550654-e646-4cad-80bb-6912dda1c66b",
      "identifier": {
        "value": "1766759"
      },
      "questionnaire": {
        "reference": "urn:uuid:d54477ee-f628-4f62-a27a-f4cce42e2417"
      },
      "status": "completed",
      "subject": {
        "reference": "urn:uuid:b5373c05-df1c-421a-b595-b873ab914b8f"
      },
      "context": {
        "reference": "urn:uuid:7ac83628-a0f3-4b96-9cb9-7a29a6f6f180"
      },
      "authored": "2021-08-03T13:07:14+00:00"
    }
  }, {
    "fullUrl": "urn:uuid:d54477ee-f628-4f62-a27a-f4cce42e2417",
    "resource": {
      "resourceType": "Questionnaire",
      "id": "d54477ee-f628-4f62-a27a-f4cce42e2417",
      "identifier": [ {
        "value": "1766759"
      } ],
      "version": "2021-08-03T13:07:14.000Z",
      "status": "active",
      "experimental": false,
      "date": "2021-08-03T13:07:14+00:00",
      "publisher": "User ID: '922' User name: 'AndrewJ.Walford' User skill set: 'T4'",
      "lastReviewDate": "2021-08-03",
      "contact": [ {
        "telecom": [ {
          "value": "07798501130"
        } ]
      } ],
      "subjectType": [ "Patient" ]
    }
  }, {
    "fullUrl": "urn:uuid:bd68ccc5-aca4-4c42-99e6-ceafa0f2da03",
    "resource": {
      "resourceType": "QuestionnaireResponse",
      "id": "bd68ccc5-aca4-4c42-99e6-ceafa0f2da03",
      "identifier": {
        "value": "1766759"
      },
      "questionnaire": {
        "reference": "urn:uuid:baf0a575-3a9d-4d66-b02b-fe56b4ffaf6a"
      },
      "status": "completed",
      "subject": {
        "reference": "urn:uuid:b5373c05-df1c-421a-b595-b873ab914b8f"
      },
      "context": {
        "reference": "urn:uuid:7ac83628-a0f3-4b96-9cb9-7a29a6f6f180"
      },
      "authored": "2021-08-03T13:07:14+00:00",
      "item": [ {
        "linkId": "Tx222984",
        "text": "WHAT IS THE MAIN PROBLEM?",
        "answer": [ {
          "valueString": "more"
        } ]
      } ]
    }
  }, {
    "fullUrl": "urn:uuid:baf0a575-3a9d-4d66-b02b-fe56b4ffaf6a",
    "resource": {
      "resourceType": "Questionnaire",
      "id": "baf0a575-3a9d-4d66-b02b-fe56b4ffaf6a",
      "identifier": [ {
        "value": "1766759"
      } ],
      "version": "2021-08-03T13:07:14.000Z",
      "status": "active",
      "experimental": false,
      "date": "2021-08-03T13:07:14+00:00",
      "publisher": "User ID: '922' User name: 'AndrewJ.Walford' User skill set: 'T4'",
      "lastReviewDate": "2021-08-03",
      "contact": [ {
        "telecom": [ {
          "value": "07798501130"
        } ]
      } ],
      "subjectType": [ "Patient" ],
      "item": [ {
        "linkId": "1766759",
        "prefix": "0",
        "text": "WHAT IS THE MAIN PROBLEM?",
        "type": "choice",
        "required": true,
        "repeats": false,
        "option": [ {
          "valueString": "a rash, Selected: false"
        }, {
          "valueString": "itch, Selected: false"
        }, {
          "valueString": "yellow skin, Selected: false"
        }, {
          "valueString": "skin lumps, Selected: false"
        }, {
          "valueString": "easy or unexplained bruising, Selected: false"
        }, {
          "valueString": "more, Selected: true"
        } ]
      } ]
    }
  }, {
    "fullUrl": "urn:uuid:5c1fd482-0dfd-4ac3-9f6b-3e0f9e151f8e",
    "resource": {
      "resourceType": "QuestionnaireResponse",
      "id": "5c1fd482-0dfd-4ac3-9f6b-3e0f9e151f8e",
      "identifier": {
        "value": "1766759"
      },
      "questionnaire": {
        "reference": "urn:uuid:8224d617-db5b-49d1-a6a2-016d4d0a1dbe"
      },
      "status": "completed",
      "subject": {
        "reference": "urn:uuid:b5373c05-df1c-421a-b595-b873ab914b8f"
      },
      "context": {
        "reference": "urn:uuid:7ac83628-a0f3-4b96-9cb9-7a29a6f6f180"
      },
      "authored": "2021-08-03T13:07:14+00:00",
      "item": [ {
        "linkId": "Tx222985",
        "text": "WHAT IS THE MAIN PROBLEM?",
        "answer": [ {
          "valueString": "declared head lice"
        } ]
      } ]
    }
  }, {
    "fullUrl": "urn:uuid:8224d617-db5b-49d1-a6a2-016d4d0a1dbe",
    "resource": {
      "resourceType": "Questionnaire",
      "id": "8224d617-db5b-49d1-a6a2-016d4d0a1dbe",
      "identifier": [ {
        "value": "1766759"
      } ],
      "version": "2021-08-03T13:07:14.000Z",
      "status": "active",
      "experimental": false,
      "date": "2021-08-03T13:07:14+00:00",
      "publisher": "User ID: '922' User name: 'AndrewJ.Walford' User skill set: 'T4'",
      "lastReviewDate": "2021-08-03",
      "contact": [ {
        "telecom": [ {
          "value": "07798501130"
        } ]
      } ],
      "subjectType": [ "Patient" ],
      "item": [ {
        "linkId": "1766759",
        "prefix": "700",
        "text": "WHAT IS THE MAIN PROBLEM?",
        "type": "choice",
        "required": true,
        "repeats": false,
        "option": [ {
          "valueString": "declared head lice, Selected: true"
        }, {
          "valueString": "declared pubic lice, Selected: false"
        }, {
          "valueString": "declared scabies, Selected: false"
        }, {
          "valueString": "declared athlete's foot, Selected: false"
        }, {
          "valueString": "acne, spots or pimples, Selected: false"
        }, {
          "valueString": "more, Selected: false"
        } ]
      } ]
    }
  }, {
    "fullUrl": "urn:uuid:8645fce7-22a4-4cf9-98cf-29bcc3414aab",
    "resource": {
      "resourceType": "QuestionnaireResponse",
      "id": "8645fce7-22a4-4cf9-98cf-29bcc3414aab",
      "identifier": {
        "value": "1766759"
      },
      "questionnaire": {
        "reference": "urn:uuid:ff6761f7-1f24-49c0-ab57-780257ef23fa"
      },
      "status": "completed",
      "subject": {
        "reference": "urn:uuid:b5373c05-df1c-421a-b595-b873ab914b8f"
      },
      "context": {
        "reference": "urn:uuid:7ac83628-a0f3-4b96-9cb9-7a29a6f6f180"
      },
      "authored": "2021-08-03T13:07:14+00:00",
      "item": [ {
        "linkId": "Tx220667",
        "text": "Have you been in contact with somebody with head lice or nits?",
        "answer": [ {
          "valueString": "yes"
        } ]
      } ]
    }
  }, {
    "fullUrl": "urn:uuid:ff6761f7-1f24-49c0-ab57-780257ef23fa",
    "resource": {
      "resourceType": "Questionnaire",
      "id": "ff6761f7-1f24-49c0-ab57-780257ef23fa",
      "identifier": [ {
        "value": "1766759"
      } ],
      "version": "2021-08-03T13:07:14.000Z",
      "status": "active",
      "experimental": false,
      "date": "2021-08-03T13:07:14+00:00",
      "publisher": "User ID: '922' User name: 'AndrewJ.Walford' User skill set: 'T4'",
      "lastReviewDate": "2021-08-03",
      "contact": [ {
        "telecom": [ {
          "value": "07798501130"
        } ]
      } ],
      "subjectType": [ "Patient" ],
      "item": [ {
        "linkId": "1766759",
        "prefix": "0",
        "text": "Have you been in contact with somebody with head lice or nits?",
        "type": "choice",
        "required": true,
        "repeats": false,
        "option": [ {
          "valueString": "yes, Selected: true"
        }, {
          "valueString": "not sure, Selected: false"
        }, {
          "valueString": "no, Selected: false"
        } ]
      } ]
    }
  }, {
    "fullUrl": "urn:uuid:a1f5b391-1569-40c2-8fd6-7599063ea777",
    "resource": {
      "resourceType": "QuestionnaireResponse",
      "id": "a1f5b391-1569-40c2-8fd6-7599063ea777",
      "identifier": {
        "value": "1766759"
      },
      "questionnaire": {
        "reference": "urn:uuid:6e82945a-6e92-4dd5-9097-137f2a45478f"
      },
      "status": "completed",
      "subject": {
        "reference": "urn:uuid:b5373c05-df1c-421a-b595-b873ab914b8f"
      },
      "context": {
        "reference": "urn:uuid:7ac83628-a0f3-4b96-9cb9-7a29a6f6f180"
      },
      "authored": "2021-08-03T13:07:14+00:00",
      "item": [ {
        "linkId": "Tx220664",
        "text": "Have you lost patches or clumps of hair OVER THE LAST FEW WEEKS?",
        "answer": [ {
          "valueString": "yes"
        } ]
      } ]
    }
  }, {
    "fullUrl": "urn:uuid:6e82945a-6e92-4dd5-9097-137f2a45478f",
    "resource": {
      "resourceType": "Questionnaire",
      "id": "6e82945a-6e92-4dd5-9097-137f2a45478f",
      "identifier": [ {
        "value": "1766759"
      } ],
      "version": "2021-08-03T13:07:14.000Z",
      "status": "active",
      "experimental": false,
      "date": "2021-08-03T13:07:14+00:00",
      "publisher": "User ID: '922' User name: 'AndrewJ.Walford' User skill set: 'T4'",
      "lastReviewDate": "2021-08-03",
      "contact": [ {
        "telecom": [ {
          "value": "07798501130"
        } ]
      } ],
      "subjectType": [ "Patient" ],
      "item": [ {
        "linkId": "1766759",
        "prefix": "300",
        "text": "Have you lost patches or clumps of hair OVER THE LAST FEW WEEKS?",
        "type": "choice",
        "required": true,
        "repeats": false,
        "option": [ {
          "valueString": "yes, Selected: true"
        }, {
          "valueString": "not sure, Selected: false"
        }, {
          "valueString": "no, Selected: false"
        } ]
      } ]
    }
  }, {
    "fullUrl": "urn:uuid:fb57655b-19b9-4c9b-be6d-6bbac9c7fc18",
    "resource": {
      "resourceType": "QuestionnaireResponse",
      "id": "fb57655b-19b9-4c9b-be6d-6bbac9c7fc18",
      "identifier": {
        "value": "1766759"
      },
      "questionnaire": {
        "reference": "urn:uuid:898bde87-4ca2-4e62-916e-4e14abd95b85"
      },
      "status": "completed",
      "subject": {
        "reference": "urn:uuid:b5373c05-df1c-421a-b595-b873ab914b8f"
      },
      "context": {
        "reference": "urn:uuid:7ac83628-a0f3-4b96-9cb9-7a29a6f6f180"
      },
      "authored": "2021-08-03T13:07:14+00:00",
      "item": [ {
        "linkId": "Tx221449",
        "text": "STRING:SDPCFullPrimaryCareassessmentandprescribingcapability",
        "answer": [ {
          "valueString": "\"\"PC full Primary Care assessment and prescribing capability\"\""
        } ]
      } ]
    }
  }, {
    "fullUrl": "urn:uuid:898bde87-4ca2-4e62-916e-4e14abd95b85",
    "resource": {
      "resourceType": "Questionnaire",
      "id": "898bde87-4ca2-4e62-916e-4e14abd95b85",
      "identifier": [ {
        "value": "1766759"
      } ],
      "version": "2021-08-03T13:07:14.000Z",
      "status": "active",
      "experimental": false,
      "date": "2021-08-03T13:07:14+00:00",
      "publisher": "User ID: '922' User name: 'AndrewJ.Walford' User skill set: 'T4'",
      "lastReviewDate": "2021-08-03",
      "contact": [ {
        "telecom": [ {
          "value": "07798501130"
        } ]
      } ],
      "subjectType": [ "Patient" ],
      "item": [ {
        "linkId": "1766759",
        "prefix": "500",
        "text": "STRING:SDPCFullPrimaryCareassessmentandprescribingcapability",
        "type": "choice",
        "required": true,
        "repeats": false,
        "option": [ {
          "valueString": "\"\"PC full Primary Care assessment and prescribing capability\"\", Selected: true"
        } ]
      } ]
    }
  }, {
    "fullUrl": "urn:uuid:ea4ada84-c06d-4d4a-ab01-05d781755228",
    "resource": {
      "resourceType": "QuestionnaireResponse",
      "id": "ea4ada84-c06d-4d4a-ab01-05d781755228",
      "identifier": {
        "value": "1766759"
      },
      "questionnaire": {
        "reference": "urn:uuid:d86155c6-474c-45fd-9a7f-a8dcb93b01ab"
      },
      "status": "completed",
      "subject": {
        "reference": "urn:uuid:b5373c05-df1c-421a-b595-b873ab914b8f"
      },
      "context": {
        "reference": "urn:uuid:7ac83628-a0f3-4b96-9cb9-7a29a6f6f180"
      },
      "authored": "2021-08-03T13:07:14+00:00"
    }
  }, {
    "fullUrl": "urn:uuid:d86155c6-474c-45fd-9a7f-a8dcb93b01ab",
    "resource": {
      "resourceType": "Questionnaire",
      "id": "d86155c6-474c-45fd-9a7f-a8dcb93b01ab",
      "identifier": [ {
        "value": "1766759"
      } ],
      "version": "2021-08-03T13:07:14.000Z",
      "status": "active",
      "experimental": false,
      "date": "2021-08-03T13:07:14+00:00",
      "publisher": "User ID: '922' User name: 'AndrewJ.Walford' User skill set: 'T4'",
      "lastReviewDate": "2021-08-03",
      "contact": [ {
        "telecom": [ {
          "value": "07798501130"
        } ]
      } ],
      "subjectType": [ "Patient" ]
    }
  }, {
    "fullUrl": "urn:uuid:37758361-6388-4618-afed-5f10a8f5e46e",
    "resource": {
      "resourceType": "QuestionnaireResponse",
      "id": "37758361-6388-4618-afed-5f10a8f5e46e",
      "identifier": {
        "value": "1766759"
      },
      "questionnaire": {
        "reference": "urn:uuid:f2a3ac1c-77c9-49b2-974c-59a49412f419"
      },
      "status": "completed",
      "subject": {
        "reference": "urn:uuid:b5373c05-df1c-421a-b595-b873ab914b8f"
      },
      "context": {
        "reference": "urn:uuid:7ac83628-a0f3-4b96-9cb9-7a29a6f6f180"
      },
      "authored": "2021-08-03T13:07:14+00:00",
      "item": [ {
        "linkId": "N/A"
      } ]
    }
  }, {
    "fullUrl": "urn:uuid:f2a3ac1c-77c9-49b2-974c-59a49412f419",
    "resource": {
      "resourceType": "Questionnaire",
      "id": "f2a3ac1c-77c9-49b2-974c-59a49412f419",
      "identifier": [ {
        "value": "1766759"
      } ],
      "version": "2021-08-03T13:07:14.000Z",
      "status": "active",
      "experimental": false,
      "date": "2021-08-03T13:07:14+00:00",
      "publisher": "User ID: '922' User name: 'AndrewJ.Walford' User skill set: 'T4'",
      "lastReviewDate": "2021-08-03",
      "contact": [ {
        "telecom": [ {
          "value": "07798501130"
        } ]
      } ],
      "subjectType": [ "Patient" ],
      "item": [ {
        "linkId": "1766759",
        "type": "choice",
        "required": true,
        "repeats": false,
        "option": [ {
          "valueString": ", Selected: false"
        } ]
      } ]
    }
  }, {
    "fullUrl": "urn:uuid:29131d0c-1753-4cc0-b4e0-5040cbab28b6",
    "resource": {
      "resourceType": "QuestionnaireResponse",
      "id": "29131d0c-1753-4cc0-b4e0-5040cbab28b6",
      "identifier": {
        "value": "1766759"
      },
      "questionnaire": {
        "reference": "urn:uuid:9d282323-390a-4cf8-95ac-235eec40f117"
      },
      "status": "completed",
      "subject": {
        "reference": "urn:uuid:b5373c05-df1c-421a-b595-b873ab914b8f"
      },
      "context": {
        "reference": "urn:uuid:7ac83628-a0f3-4b96-9cb9-7a29a6f6f180"
      },
      "authored": "2021-08-03T13:07:14+00:00"
    }
  }, {
    "fullUrl": "urn:uuid:9d282323-390a-4cf8-95ac-235eec40f117",
    "resource": {
      "resourceType": "Questionnaire",
      "id": "9d282323-390a-4cf8-95ac-235eec40f117",
      "identifier": [ {
        "value": "1766759"
      } ],
      "version": "2021-08-03T13:07:14.000Z",
      "status": "active",
      "experimental": false,
      "date": "2021-08-03T13:07:14+00:00",
      "publisher": "User ID: '922' User name: 'AndrewJ.Walford' User skill set: 'T4'",
      "lastReviewDate": "2021-08-03",
      "contact": [ {
        "telecom": [ {
          "value": "07798501130"
        } ]
      } ],
      "subjectType": [ "Patient" ]
    }
  }, {
    "fullUrl": "urn:uuid:964c5bae-b52b-4f65-a2b1-bf6bf1a084ed",
    "resource": {
      "resourceType": "Observation",
      "id": "964c5bae-b52b-4f65-a2b1-bf6bf1a084ed",
      "status": "final",
      "code": {
        "coding": [ {
          "system": "http://snomed.info/sct",
          "code": "33962009",
          "display": "Presenting complaint"
        } ]
      },
      "subject": {
        "reference": "urn:uuid:b5373c05-df1c-421a-b595-b873ab914b8f"
      },
      "context": {
        "reference": "urn:uuid:7ac83628-a0f3-4b96-9cb9-7a29a6f6f180"
      }
    }
  }, {
    "fullUrl": "urn:uuid:998ba574-b10f-4412-a1e3-d92efd4dd39d",
    "resource": {
      "resourceType": "PractitionerRole",
      "id": "998ba574-b10f-4412-a1e3-d92efd4dd39d",
      "practitioner": {
        "reference": "urn:uuid:e074f9cc-19af-4304-a489-5ad244544e76"
      },
      "organization": {
        "reference": "urn:uuid:651b579b-b81f-42df-a197-4cbed1876581"
      },
      "code": [ {
        "coding": [ {
          "system": "2.16.840.1.113883.2.1.3.2.4.17.339",
          "code": "NP",
          "display": "Nurse Practitioner"
        } ]
      } ]
    }
  }, {
    "fullUrl": "urn:uuid:651b579b-b81f-42df-a197-4cbed1876581",
    "resource": {
      "resourceType": "Organization",
      "id": "651b579b-b81f-42df-a197-4cbed1876581",
      "identifier": [ {
        "value": "RX7"
      } ],
      "name": "NWAS 111"
    }
  }, {
    "fullUrl": "urn:uuid:903163ee-6180-4d0b-861d-a517d1e030eb",
    "resource": {
      "resourceType": "RelatedPerson",
      "id": "903163ee-6180-4d0b-861d-a517d1e030eb",
      "patient": {
        "reference": "urn:uuid:b5373c05-df1c-421a-b595-b873ab914b8f"
      },
      "relationship": {
        "coding": [ {
          "system": "http://hl7.org/fhir/v2/0131",
          "code": "C",
          "display": "Emergency Contact"
        } ]
      },
      "telecom": [ {
        "system": "phone",
        "value": "tel:07798501130"
      } ]
    }
  }, {
    "fullUrl": "urn:uuid:b6993422-b53e-43f9-83a6-7e4a4a56443f",
    "resource": {
      "resourceType": "Device",
      "id": "b6993422-b53e-43f9-83a6-7e4a4a56443f",
      "model": "111 Adaptor",
      "version": "0.8.0"
    }
  }, {
    "fullUrl": "urn:uuid:ad9d71dd-2e57-44dc-83c6-6b94464ef2fa",
    "resource": {
      "resourceType": "List",
      "id": "ad9d71dd-2e57-44dc-83c6-6b94464ef2fa",
      "status": "current",
      "mode": "working",
      "title": "111 Report List",
      "code": {
        "coding": [ {
          "system": "http://snomed.info/sct",
          "code": "225390008",
          "display": "Triage"
        } ]
      },
      "subject": {
        "reference": "urn:uuid:b5373c05-df1c-421a-b595-b873ab914b8f"
      },
      "encounter": {
        "reference": "urn:uuid:7ac83628-a0f3-4b96-9cb9-7a29a6f6f180"
      },
      "date": "2021-09-14T09:23:26+00:00",
      "source": {
        "reference": "urn:uuid:b6993422-b53e-43f9-83a6-7e4a4a56443f"
      },
      "orderedBy": {
        "coding": [ {
          "system": "http://hl7.org/fhir/list-order",
          "code": "event-date",
          "display": "Sorted by Event Date"
        } ]
      },
      "entry": [ {
        "item": {
          "reference": "urn:uuid:645017e1-b151-4e10-82d5-ee5564b6eb7a"
        }
      }, {
        "item": {
          "reference": "urn:uuid:ed9fedd7-bf68-4511-ac08-4c17be411e20"
        }
      }, {
        "item": {
          "reference": "urn:uuid:903163ee-6180-4d0b-861d-a517d1e030eb"
        }
      }, {
        "item": {
          "reference": "urn:uuid:964c5bae-b52b-4f65-a2b1-bf6bf1a084ed"
        }
      }, {
        "item": {
          "reference": "urn:uuid:651b579b-b81f-42df-a197-4cbed1876581"
        }
      }, {
        "item": {
          "reference": "urn:uuid:9a5de28e-3866-4e70-b76e-8e674b47c906"
        }
      }, {
        "item": {
          "reference": "urn:uuid:4205d035-0d0d-4693-8b25-08b39d2dbe53"
        }
      }, {
        "item": {
          "reference": "urn:uuid:94377c71-34bc-4f01-b680-e4ed11784834"
        }
      }, {
        "item": {
          "reference": "urn:uuid:e074f9cc-19af-4304-a489-5ad244544e76"
        }
      }, {
        "item": {
          "reference": "urn:uuid:a9bff702-6715-479e-8fed-26d068308231"
        }
      }, {
        "item": {
          "reference": "urn:uuid:ea5fe350-c275-437f-aae4-5000d8635571"
        }
      }, {
        "item": {
          "reference": "urn:uuid:69900afa-1479-4037-8a94-123c3080e9ca"
        }
      }, {
        "item": {
          "reference": "urn:uuid:37758361-6388-4618-afed-5f10a8f5e46e"
        }
      }, {
        "item": {
          "reference": "urn:uuid:a1f5b391-1569-40c2-8fd6-7599063ea777"
        }
      }, {
        "item": {
          "reference": "urn:uuid:6e82945a-6e92-4dd5-9097-137f2a45478f"
        }
      }, {
        "item": {
          "reference": "urn:uuid:fc548085-03f0-4f34-99a8-0c631cdbfe78"
        }
      }, {
        "item": {
          "reference": "urn:uuid:ea0051fd-a251-4b60-b737-ecfd67b7dd74"
        }
      }, {
        "item": {
          "reference": "urn:uuid:54897f45-200e-4920-a6cf-552a1e626da1"
        }
      }, {
        "item": {
          "reference": "urn:uuid:bd68ccc5-aca4-4c42-99e6-ceafa0f2da03"
        }
      }, {
        "item": {
          "reference": "urn:uuid:b0097045-e7d2-40e7-a94e-10cb5ca2680e"
        }
      }, {
        "item": {
          "reference": "urn:uuid:2261b23d-ee5d-485a-8583-c36751b38526"
        }
      }, {
        "item": {
          "reference": "urn:uuid:9d282323-390a-4cf8-95ac-235eec40f117"
        }
      }, {
        "item": {
          "reference": "urn:uuid:79871865-2535-4031-b5f8-4b39bc5aaf40"
        }
      }, {
        "item": {
          "reference": "urn:uuid:d86155c6-474c-45fd-9a7f-a8dcb93b01ab"
        }
      }, {
        "item": {
          "reference": "urn:uuid:09cc48bd-9415-4f12-b95b-d01396b83b69"
        }
      }, {
        "item": {
          "reference": "urn:uuid:ff6761f7-1f24-49c0-ab57-780257ef23fa"
        }
      }, {
        "item": {
          "reference": "urn:uuid:baf0a575-3a9d-4d66-b02b-fe56b4ffaf6a"
        }
      }, {
        "item": {
          "reference": "urn:uuid:ae684a1a-b1fd-4a65-9976-e31bc7246cc4"
        }
      }, {
        "item": {
          "reference": "urn:uuid:7f772cda-f4b5-4ea3-94a3-9138c4098031"
        }
      }, {
        "item": {
          "reference": "urn:uuid:37c72d36-dd3f-4105-b080-532deedd59fb"
        }
      }, {
        "item": {
          "reference": "urn:uuid:18caa67b-5cfa-452a-bea3-827bcf73fe6e"
        }
      }, {
        "item": {
          "reference": "urn:uuid:33b4dbd0-4620-4d5c-bc1a-674fd9753919"
        }
      }, {
        "item": {
          "reference": "urn:uuid:8224d617-db5b-49d1-a6a2-016d4d0a1dbe"
        }
      }, {
        "item": {
          "reference": "urn:uuid:5c1fd482-0dfd-4ac3-9f6b-3e0f9e151f8e"
        }
      }, {
        "item": {
          "reference": "urn:uuid:7285c9f5-ddd7-4077-8391-a059f6b879f4"
        }
      }, {
        "item": {
          "reference": "urn:uuid:0b9bcafc-5264-4981-9c14-e51e2d234212"
        }
      }, {
        "item": {
          "reference": "urn:uuid:b8491360-4ccd-4b82-943f-93a1f007bc80"
        }
      }, {
        "item": {
          "reference": "urn:uuid:898bde87-4ca2-4e62-916e-4e14abd95b85"
        }
      }, {
        "item": {
          "reference": "urn:uuid:cacf90e9-0586-4d94-b261-a0d8c6507256"
        }
      }, {
        "item": {
          "reference": "urn:uuid:ea4ada84-c06d-4d4a-ab01-05d781755228"
        }
      }, {
        "item": {
          "reference": "urn:uuid:a69e0929-df35-4adb-b1e5-fd5740dab022"
        }
      }, {
        "item": {
          "reference": "urn:uuid:7cb3dfa0-decb-41fc-8f58-03261b28e2f8"
        }
      }, {
        "item": {
          "reference": "urn:uuid:781298c7-25ac-46b3-b98f-578dfd0b3298"
        }
      }, {
        "item": {
          "reference": "urn:uuid:d54477ee-f628-4f62-a27a-f4cce42e2417"
        }
      }, {
        "item": {
          "reference": "urn:uuid:f2a3ac1c-77c9-49b2-974c-59a49412f419"
        }
      }, {
        "item": {
          "reference": "urn:uuid:4db9d55d-a068-40a5-9651-4a01e8a65a9f"
        }
      }, {
        "item": {
          "reference": "urn:uuid:8645fce7-22a4-4cf9-98cf-29bcc3414aab"
        }
      }, {
        "item": {
          "reference": "urn:uuid:8a550654-e646-4cad-80bb-6912dda1c66b"
        }
      }, {
        "item": {
          "reference": "urn:uuid:fb57655b-19b9-4c9b-be6d-6bbac9c7fc18"
        }
      }, {
        "item": {
          "reference": "urn:uuid:29131d0c-1753-4cc0-b4e0-5040cbab28b6"
        }
      }, {
        "item": {
          "reference": "urn:uuid:c5b5aae0-164c-4af5-b625-6a04c254df8a"
        }
      }, {
        "item": {
          "reference": "urn:uuid:0445efe4-106f-449b-b09e-8ea0a42c93a8"
        }
      }, {
        "item": {
          "reference": "urn:uuid:22ea0db0-7ded-4965-8414-f021e169cf98"
        }
      } ]
    }
  } ]
}