{
  "resourceType": "Bundle",
  "meta": {
    "lastUpdated": "2022-05-12T07:25:17.461+00:00"
  },
  "identifier": {
    "type": {
      "text": "ClinicalDocument VersionNumber"
    },
    "value": "1"
  },
  "type": "message",
  "entry": [ {
    "fullUrl": "urn:uuid:C34D38AA-2A35-4E0C-AAB2-BCC8D397736A",
    "resource": {
      "resourceType": "MessageHeader",
      "id": "C34D38AA-2A35-4E0C-AAB2-BCC8D397736A",
      "event": {
        "system": "https://fhir.nhs.uk/STU3/CodeSystem/EventType-1",
        "code": "referral-1",
        "display": "Referral"
      },
      "destination": [ {
        "endpoint": "urn:nhs-uk:addressing:ods:A82018:DOSServiceID:136753"
      } ],
      "timestamp": "2021-08-03T13:07:14.000+00:00",
      "source": {
        "name": "NHS 111 Adaptor",
        "endpoint": "http://localhost:8080/report"
      },
      "reason": {
        "coding": [ {
          "system": "urn:nhs-itk:ns:201005:interaction",
          "code": "urn:nhs-itk:interaction:primaryGeneralPractitionerRecipientNHS111CDADocument-v2-0"
        } ]
      }
    }
  }, {
    "fullUrl": "urn:uuid:af43c909-fc0d-4466-b267-83c4e0f0352b",
    "resource": {
      "resourceType": "Encounter",
      "id": "af43c909-fc0d-4466-b267-83c4e0f0352b",
      "identifier": [ {
        "system": "2.16.840.1.113883.2.1.3.2.4.18.49",
        "value": "6C072313-DFFB-4D60-9416-43B044FDBA9F"
      }, {
        "system": "2.16.840.1.113883.2.1.3.2.4.18.34",
        "value": "1766759"
      }, {
        "system": "2.16.840.1.113883.2.1.3.2.4.18.35",
        "value": "1766759"
      } ],
      "status": "finished",
      "type": [ {
        "text": "111 Encounter Referral"
      } ],
      "subject": {
        "reference": "urn:uuid:88ea4c86-87a5-4211-9921-067229ac02f9"
      },
      "participant": [ {
        "type": [ {
          "coding": [ {
            "system": "http://hl7.org/fhir/ValueSet/encounter-participant-type",
            "code": "PPRF",
            "display": "Author"
          } ]
        } ],
        "individual": {
          "reference": "urn:uuid:6ab650bd-7c7a-4172-b3ab-6a5e022b8b6f"
        }
      } ],
      "period": {
        "start": "2021-08-03T12:36:56+00:00",
        "end": "2021-08-03T13:07:14+00:00"
      },
      "location": [ {
        "location": {
          "reference": "urn:uuid:ca61cf0b-8216-4d78-b0e0-0078568d0e5d"
        },
        "status": "active"
      }, {
        "location": {
          "reference": "urn:uuid:1bcd265d-7c55-47aa-9715-10c5193a577a"
        },
        "status": "completed"
      } ],
      "serviceProvider": {
        "reference": "urn:uuid:7dae1905-f46e-4047-95b5-4770b50c440f"
      }
    }
  }, {
    "fullUrl": "urn:uuid:7dae1905-f46e-4047-95b5-4770b50c440f",
    "resource": {
      "resourceType": "Organization",
      "id": "7dae1905-f46e-4047-95b5-4770b50c440f",
      "active": true,
      "type": [ {
        "text": "CST"
      } ],
      "name": "NWAS 111"
    }
  }, {
    "fullUrl": "urn:uuid:6ab650bd-7c7a-4172-b3ab-6a5e022b8b6f",
    "resource": {
      "resourceType": "Practitioner",
      "id": "6ab650bd-7c7a-4172-b3ab-6a5e022b8b6f",
      "active": true,
      "name": [ {
        "text": "AndrewJ.Walford"
      } ]
    }
  }, {
    "fullUrl": "urn:uuid:ca61cf0b-8216-4d78-b0e0-0078568d0e5d",
    "resource": {
      "resourceType": "Location",
      "id": "ca61cf0b-8216-4d78-b0e0-0078568d0e5d",
      "managingOrganization": {
        "reference": "urn:uuid:04920cde-7657-42bd-80bf-9769d368fdc1"
      }
    }
  }, {
    "fullUrl": "urn:uuid:04920cde-7657-42bd-80bf-9769d368fdc1",
    "resource": {
      "resourceType": "Organization",
      "id": "04920cde-7657-42bd-80bf-9769d368fdc1",
      "identifier": [ {
        "value": "A82018"
      } ],
      "type": [ {
        "text": "GP Practice"
      } ],
      "name": "Spencer St Surgery",
      "telecom": [ {
        "system": "phone",
        "value": "tel:01228529171",
        "use": "work"
      } ],
      "address": [ {
        "use": "work",
        "line": [ "Spencer Street Surgery", "10 Spencer Street", "Carlisle" ],
        "postalCode": "CA1 1BP"
      } ]
    }
  }, {
    "fullUrl": "urn:uuid:1bcd265d-7c55-47aa-9715-10c5193a577a",
    "resource": {
      "resourceType": "Location",
      "id": "1bcd265d-7c55-47aa-9715-10c5193a577a",
      "address": {
        "type": "physical",
        "line": [ "North West Ambulance Service Nhs Trust Salkeld Hall", "Infirmary Street", "Carlisle" ],
        "postalCode": "CA2 7AN"
      }
    }
  }, {
    "fullUrl": "urn:uuid:88ea4c86-87a5-4211-9921-067229ac02f9",
    "resource": {
      "resourceType": "Patient",
      "id": "88ea4c86-87a5-4211-9921-067229ac02f9",
      "active": true,
      "name": [ {
        "use": "official",
        "family": "Please Disregard",
        "given": [ "Dx09 Test" ]
      } ],
      "telecom": [ {
        "system": "phone",
        "value": "tel:07798501130",
        "use": "mobile"
      }, {
        "system": "phone",
        "value": "tel:07798501130"
      } ],
      "gender": "male",
      "birthDate": "1980-01-01",
      "address": [ {
        "use": "home",
        "line": [ "North West Ambulance Service Nhs Trust Salkeld Hall", "Infirmary Street", "Carlisle" ],
        "postalCode": "CA2 7AN"
      }, {
        "type": "physical",
        "line": [ "North West Ambulance Service Nhs Trust Salkeld Hall", "Infirmary Street", "Carlisle" ],
        "postalCode": "CA2 7AN"
      } ],
      "generalPractitioner": [ {
        "reference": "urn:uuid:88efb91d-e34f-4d5c-b5fc-f54f0a2593f9"
      } ]
    }
  }, {
    "fullUrl": "urn:uuid:88efb91d-e34f-4d5c-b5fc-f54f0a2593f9",
    "resource": {
      "resourceType": "Organization",
      "id": "88efb91d-e34f-4d5c-b5fc-f54f0a2593f9",
      "identifier": [ {
        "value": "A82018"
      } ],
      "type": [ {
        "text": "GP Practice"
      } ],
      "name": "Spencer St Surgery",
      "telecom": [ {
        "system": "phone",
        "value": "tel:01228529171",
        "use": "work"
      } ],
      "address": [ {
        "use": "work",
        "line": [ "Spencer Street Surgery", "10 Spencer Street", "Carlisle" ],
        "postalCode": "CA1 1BP"
      } ]
    }
  }, {
    "fullUrl": "urn:uuid:b33a3e45-29cd-435d-ad75-5e2eb2e5bafc",
    "resource": {
      "resourceType": "HealthcareService",
      "id": "b33a3e45-29cd-435d-ad75-5e2eb2e5bafc",
      "active": true,
      "providedBy": {
        "reference": "urn:uuid:3d283ee7-5413-4b2e-b914-0dbf31245c36"
      },
      "location": [ {
        "reference": "urn:uuid:89ab8335-59d1-4d2f-b58e-b3aaef26489d"
      } ],
      "name": "Spencer St Surgery",
      "telecom": [ {
        "system": "phone",
        "value": "tel:01228529171",
        "use": "work"
      } ]
    }
  }, {
    "fullUrl": "urn:uuid:89ab8335-59d1-4d2f-b58e-b3aaef26489d",
    "resource": {
      "resourceType": "Location",
      "id": "89ab8335-59d1-4d2f-b58e-b3aaef26489d",
      "telecom": [ {
        "system": "phone",
        "value": "tel:01228529171",
        "use": "work"
      } ],
      "address": {
        "use": "work",
        "line": [ "Spencer Street Surgery", "10 Spencer Street", "Carlisle" ],
        "postalCode": "CA1 1BP"
      },
      "managingOrganization": {
        "reference": "urn:uuid:3d283ee7-5413-4b2e-b914-0dbf31245c36"
      }
    }
  }, {
    "fullUrl": "urn:uuid:3d283ee7-5413-4b2e-b914-0dbf31245c36",
    "resource": {
      "resourceType": "Organization",
      "id": "3d283ee7-5413-4b2e-b914-0dbf31245c36",
      "identifier": [ {
        "value": "A82018"
      } ],
      "type": [ {
        "coding": [ {
          "code": "PRCP",
          "display": "Spencer St Surgery"
        } ]
      } ],
      "name": "Spencer St Surgery"
    }
  }, {
    "fullUrl": "urn:uuid:e87aaf41-ffee-41f3-97d8-32089227ea53",
    "resource": {
      "resourceType": "ReferralRequest",
      "id": "e87aaf41-ffee-41f3-97d8-32089227ea53",
      "status": "active",
      "intent": "plan",
      "priority": "routine",
      "subject": {
        "reference": "urn:uuid:88ea4c86-87a5-4211-9921-067229ac02f9"
      },
      "context": {
        "reference": "urn:uuid:af43c909-fc0d-4466-b267-83c4e0f0352b"
      },
      "occurrencePeriod": {
        "start": "2021-08-03T13:07:14+00:00"
      },
      "authoredOn": "2021-08-03T12:36:56+00:00",
      "requester": {
        "agent": {
          "reference": "urn:uuid:c12ba169-f59b-4384-86ae-ec64cce00dfd"
        },
        "onBehalfOf": {
          "reference": "urn:uuid:7dae1905-f46e-4047-95b5-4770b50c440f"
        }
      },
      "recipient": [ {
        "reference": "urn:uuid:ed8f40f5-0789-4833-ae73-ff7d073eb4cf"
      }, {
        "reference": "urn:uuid:b33a3e45-29cd-435d-ad75-5e2eb2e5bafc"
      } ],
      "reasonReference": [ {
        "reference": "urn:uuid:46912bd3-b575-48d2-99fb-d4b2f358a98e"
      } ],
      "supportingInfo": [ {
        "reference": "urn:uuid:04d626a4-60f8-4472-ab1f-27d901343fa1"
      } ]
    }
  }, {
    "fullUrl": "urn:uuid:04d626a4-60f8-4472-ab1f-27d901343fa1",
    "resource": {
      "resourceType": "ProcedureRequest",
      "id": "04d626a4-60f8-4472-ab1f-27d901343fa1",
      "status": "active",
      "intent": "plan",
      "priority": "routine",
      "doNotPerform": false,
      "code": {
        "coding": [ {
          "system": "2.16.840.1.113883.2.1.3.2.4.17.325",
          "code": "Dx09",
          "display": "For Persistent Or Recurrent Symptoms: Get In Touch With A Local Service For A Non-urgent Appointment"
        } ]
      },
      "subject": {
        "reference": "urn:uuid:88ea4c86-87a5-4211-9921-067229ac02f9"
      },
      "occurrencePeriod": {
        "start": "2021-08-03T13:07:14+00:00"
      },
      "reasonReference": [ {
        "reference": "urn:uuid:46912bd3-b575-48d2-99fb-d4b2f358a98e"
      } ]
    }
  }, {
    "fullUrl": "urn:uuid:ed8f40f5-0789-4833-ae73-ff7d073eb4cf",
    "resource": {
      "resourceType": "Practitioner",
      "id": "ed8f40f5-0789-4833-ae73-ff7d073eb4cf",
      "active": true,
      "address": [ {
        "type": "physical",
        "line": [ "Spencer Street Surgery", "Spencer Street", "Carlisle" ],
        "postalCode": "CA1 1BP"
      } ]
    }
  }, {
    "fullUrl": "urn:uuid:1ac6f63b-3472-4aa9-81d3-f56a3e657ce4",
    "resource": {
      "resourceType": "Composition",
      "id": "1ac6f63b-3472-4aa9-81d3-f56a3e657ce4",
      "identifier": {
        "use": "usual",
        "value": "B5A4AC85-5A10-4D08-B956-83421A24BB81"
      },
      "status": "final",
      "type": {
        "coding": [ {
          "system": "http://snomed.info/sct",
          "code": "371531000",
          "display": "Report of clinical encounter (record artifact)"
        } ]
      },
      "subject": {
        "reference": "urn:uuid:88ea4c86-87a5-4211-9921-067229ac02f9"
      },
      "encounter": {
        "reference": "urn:uuid:af43c909-fc0d-4466-b267-83c4e0f0352b"
      },
      "date": "2021-08-03T13:07:14+00:00",
      "author": [ {
        "reference": "urn:uuid:6ab650bd-7c7a-4172-b3ab-6a5e022b8b6f"
      } ],
      "title": "111 Report",
      "confidentiality": "N",
      "section": [ {
        "section": [ {
          "title": "Patient's Reported Condition",
          "text": {
            "status": "generated",
            "div": "<div xmlns=\"http://www.w3.org/1999/xhtml\">**test From Nwas111 - No Action Required - Please Disregard Test</div>"
          }
        }, {
          "title": "Case Summary",
          "text": {
            "status": "generated",
            "div": "<div xmlns=\"http://www.w3.org/1999/xhtml\">&lt;content styleCode=&quot;bold&quot;&gt;Pathways Disposition: Dx09&lt;/content&gt;\n                                                    &lt;br/&gt;\n                                                    &lt;content&gt;For Persistent Or Recurrent Symptoms: Get In Touch With A Local Service For A Non-urgent Appointment&lt;/content&gt;\n                                                    &lt;br/&gt;\n                                                    &lt;br/&gt;\n                                                    &lt;content styleCode=&quot;bold&quot;&gt;Consultation Summary:&lt;/content&gt;\n                                                    &lt;br/&gt;\n                                                    &lt;content&gt;Illness - '**Test From NWAS111 - No Action required - Please Disregard Test case**'&lt;/content&gt;\n                                                    &lt;br/&gt;\n                                                    &lt;content&gt;Warm to touch&lt;/content&gt;\n                                                    &lt;br/&gt;\n                                                    &lt;content&gt;Head lice&lt;/content&gt;\n                                                    &lt;br/&gt;\n                                                    &lt;content&gt;Head lice contact&lt;/content&gt;\n                                                    &lt;br/&gt;\n                                                    &lt;content&gt;Recent sudden loss of clumps of hair&lt;/content&gt;\n                                                    &lt;br/&gt;\n                                                    &lt;br/&gt;\n                                                    &lt;content styleCode=&quot;bold&quot;&gt;Pathways Assessment:&lt;/content&gt;\n                                                    &lt;br/&gt;\n                                                    &lt;content&gt;An injury or health problem was the reason for the contact.&lt;/content&gt;\n                                                    &lt;br/&gt;\n                                                    &lt;content&gt;User comment - '**Test From NWAS111 - No Action required - Please Disregard Test case**'&lt;/content&gt;\n                                                    &lt;br/&gt;\n                                                    &lt;content&gt;Heavy bleeding had not occurred in the previous 2 hours.&lt;/content&gt;\n                                                    &lt;br/&gt;\n                                                    &lt;content&gt;An illness or health problem was the main problem.&lt;/content&gt;\n                                                    &lt;br/&gt;\n                                                    &lt;content&gt;User comment - '**Test From NWAS111 - No Action required - Please Disregard Test case**'&lt;/content&gt;\n                                                    &lt;br/&gt;\n                                                    &lt;content&gt;The individual was not fighting for breath.&lt;/content&gt;\n                                                    &lt;br/&gt;\n                                                    &lt;content&gt;The main reason for the assessment was not an allergic reaction, heart attack, chest/upper back pain, probable stroke, recent fit/seizure or suicide attempt.&lt;/content&gt;\n                                                    &lt;br/&gt;\n                                                    &lt;content&gt;The main reason for contact was not new confusion, declared diabetic hypo/hyperglycaemia, or ICD shock.&lt;/content&gt;\n                                                    &lt;br/&gt;\n                                                    &lt;content&gt;The skin on the torso felt normal, warm or hot.&lt;/content&gt;\n                                                    &lt;br/&gt;\n                                                    &lt;content&gt;Pathway selected - Skin Problems&lt;/content&gt;\n                                                    &lt;br/&gt;\n                                                    &lt;content&gt;The main problem was not a rash, itch, jaundice, skin lumps or abnormal bruising.&lt;/content&gt;\n                                                    &lt;br/&gt;\n                                                    &lt;content&gt;The main problem was head lice.&lt;/content&gt;\n                                                    &lt;br/&gt;\n                                                    &lt;content&gt;There had been contact with somebody with head lice.&lt;/content&gt;\n                                                    &lt;br/&gt;\n                                                    &lt;content&gt;There was recent patchy hair loss.&lt;/content&gt;\n                                                    &lt;br/&gt;\n                                                    &lt;content&gt;User comment - 'GP - Spencer Street Surgery - Cumbria (Home GP)'&lt;/content&gt;\n                                                    &lt;br/&gt;\n                                                    &lt;br/&gt;\n                                                    &lt;content styleCode=&quot;bold&quot;&gt;Advice Given:&lt;/content&gt;\n                                                    &lt;br/&gt;\n                                                    &lt;content&gt;Head lice is common. Speak to a pharmacist for advice on suitable treatments.&lt;/content&gt;\n                                                    &lt;br/&gt;\n                                                    &lt;br/&gt;</div>"
          }
        } ]
      }, {
        "title": "ReferralRequest",
        "entry": [ {
          "reference": "urn:uuid:e87aaf41-ffee-41f3-97d8-32089227ea53"
        } ]
      }, {
        "title": "QuestionnaireResponse",
        "entry": [ {
          "reference": "urn:uuid:2dc02be3-79d6-4f74-b3f8-093623466fc2"
        } ]
      }, {
        "title": "QuestionnaireResponse",
        "entry": [ {
          "reference": "urn:uuid:4950e5b6-142b-4124-b769-c6a33ddc8ac0"
        } ]
      }, {
        "title": "QuestionnaireResponse",
        "entry": [ {
          "reference": "urn:uuid:53042ac0-f42b-4a8b-b010-b6a0b8ad0aa3"
        } ]
      }, {
        "title": "QuestionnaireResponse",
        "entry": [ {
          "reference": "urn:uuid:8527eec3-26de-4b28-9f4a-df1e8506441e"
        } ]
      }, {
        "title": "QuestionnaireResponse",
        "entry": [ {
          "reference": "urn:uuid:c0f3a5d5-cab5-410f-89fc-4fc79130eec1"
        } ]
      }, {
        "title": "QuestionnaireResponse",
        "entry": [ {
          "reference": "urn:uuid:2048c807-2078-43cb-b712-a0a5a819a557"
        } ]
      }, {
        "title": "QuestionnaireResponse",
        "entry": [ {
          "reference": "urn:uuid:64d336e0-9977-4e5e-846b-9edeba78cc28"
        } ]
      }, {
        "title": "QuestionnaireResponse",
        "entry": [ {
          "reference": "urn:uuid:0aa4cf0b-d51b-40e8-a14a-c8055c5d3f6b"
        } ]
      }, {
        "title": "QuestionnaireResponse",
        "entry": [ {
          "reference": "urn:uuid:6c7252bf-3063-4de8-9a00-185fdf0e6d97"
        } ]
      }, {
        "title": "QuestionnaireResponse",
        "entry": [ {
          "reference": "urn:uuid:3055d776-267e-4678-8179-0f97446f2171"
        } ]
      }, {
        "title": "QuestionnaireResponse",
        "entry": [ {
          "reference": "urn:uuid:a1ef13cb-6a8d-4f91-861e-ad9c69d1ed03"
        } ]
      }, {
        "title": "QuestionnaireResponse",
        "entry": [ {
          "reference": "urn:uuid:bd980066-d916-4d8c-964b-5cbc6dd6900e"
        } ]
      }, {
        "title": "QuestionnaireResponse",
        "entry": [ {
          "reference": "urn:uuid:c0fb59c0-a8d0-4aa1-8ea5-713f2e9a37c0"
        } ]
      }, {
        "title": "QuestionnaireResponse",
        "entry": [ {
          "reference": "urn:uuid:c3736e84-b059-46cf-92e8-af62ce87b477"
        } ]
      }, {
        "title": "QuestionnaireResponse",
        "entry": [ {
          "reference": "urn:uuid:03f34735-411c-451d-83f9-fe6500798a0e"
        } ]
      }, {
        "title": "QuestionnaireResponse",
        "entry": [ {
          "reference": "urn:uuid:58c73e93-8623-4759-8943-46cbc3747957"
        } ]
      }, {
        "title": "QuestionnaireResponse",
        "entry": [ {
          "reference": "urn:uuid:9cefbb90-bb37-41e0-b7ce-88d5794fabe3"
        } ]
      }, {
        "title": "QuestionnaireResponse",
        "entry": [ {
          "reference": "urn:uuid:ba122400-6615-4126-accf-4ba7001516d3"
        } ]
      }, {
        "title": "QuestionnaireResponse",
        "entry": [ {
          "reference": "urn:uuid:1a936011-2de8-4791-9f0c-55bfebc8514b"
        } ]
      }, {
        "title": "QuestionnaireResponse",
        "entry": [ {
          "reference": "urn:uuid:972384e8-fc67-4aff-abff-081ba17640f9"
        } ]
      }, {
        "title": "QuestionnaireResponse",
        "entry": [ {
          "reference": "urn:uuid:8d8c1c13-856d-497e-8e46-ee60ac719dd6"
        } ]
      } ]
    }
  }, {
    "fullUrl": "urn:uuid:63c53468-4383-4a4b-a083-47c3da6feeb3",
    "resource": {
      "resourceType": "Consent",
      "id": "63c53468-4383-4a4b-a083-47c3da6feeb3",
      "identifier": {
        "use": "usual",
        "value": "B5A4AC85-5A10-4D08-B956-83421A24BB81"
      },
      "status": "active",
      "patient": {
        "reference": "urn:uuid:88ea4c86-87a5-4211-9921-067229ac02f9"
      },
      "period": {
        "start": "2021-08-03T12:36:56+00:00",
        "end": "2021-08-03T13:07:14+00:00"
      },
      "consentingParty": [ {
        "reference": "urn:uuid:88ea4c86-87a5-4211-9921-067229ac02f9"
      } ],
      "action": [ {
        "coding": [ {
          "system": "http://snomed.info/sct",
          "code": "425691002",
          "display": "Consent given for electronic record sharing"
        } ],
        "text": "Consent given for electronic record sharing"
      } ],
      "organization": [ {
        "reference": "urn:uuid:7dae1905-f46e-4047-95b5-4770b50c440f"
      } ],
      "policyRule": "http://hl7.org/fhir/ConsentPolicy/opt-out",
      "data": [ {
        "meaning": "related",
        "reference": {
          "reference": "urn:uuid:af43c909-fc0d-4466-b267-83c4e0f0352b"
        }
      } ]
    }
  }, {
    "fullUrl": "urn:uuid:46912bd3-b575-48d2-99fb-d4b2f358a98e",
    "resource": {
      "resourceType": "Condition",
      "id": "46912bd3-b575-48d2-99fb-d4b2f358a98e",
      "clinicalStatus": "active",
      "verificationStatus": "unknown",
      "subject": {
        "reference": "urn:uuid:88ea4c86-87a5-4211-9921-067229ac02f9"
      },
      "context": {
        "reference": "urn:uuid:af43c909-fc0d-4466-b267-83c4e0f0352b"
      },
      "evidence": [ {
        "detail": [ {
          "reference": "urn:uuid:2dc02be3-79d6-4f74-b3f8-093623466fc2"
        } ]
      }, {
        "detail": [ {
          "reference": "urn:uuid:4950e5b6-142b-4124-b769-c6a33ddc8ac0"
        } ]
      }, {
        "detail": [ {
          "reference": "urn:uuid:53042ac0-f42b-4a8b-b010-b6a0b8ad0aa3"
        } ]
      }, {
        "detail": [ {
          "reference": "urn:uuid:8527eec3-26de-4b28-9f4a-df1e8506441e"
        } ]
      }, {
        "detail": [ {
          "reference": "urn:uuid:c0f3a5d5-cab5-410f-89fc-4fc79130eec1"
        } ]
      }, {
        "detail": [ {
          "reference": "urn:uuid:2048c807-2078-43cb-b712-a0a5a819a557"
        } ]
      }, {
        "detail": [ {
          "reference": "urn:uuid:64d336e0-9977-4e5e-846b-9edeba78cc28"
        } ]
      }, {
        "detail": [ {
          "reference": "urn:uuid:0aa4cf0b-d51b-40e8-a14a-c8055c5d3f6b"
        } ]
      }, {
        "detail": [ {
          "reference": "urn:uuid:6c7252bf-3063-4de8-9a00-185fdf0e6d97"
        } ]
      }, {
        "detail": [ {
          "reference": "urn:uuid:3055d776-267e-4678-8179-0f97446f2171"
        } ]
      }, {
        "detail": [ {
          "reference": "urn:uuid:a1ef13cb-6a8d-4f91-861e-ad9c69d1ed03"
        } ]
      }, {
        "detail": [ {
          "reference": "urn:uuid:bd980066-d916-4d8c-964b-5cbc6dd6900e"
        } ]
      }, {
        "detail": [ {
          "reference": "urn:uuid:c0fb59c0-a8d0-4aa1-8ea5-713f2e9a37c0"
        } ]
      }, {
        "detail": [ {
          "reference": "urn:uuid:c3736e84-b059-46cf-92e8-af62ce87b477"
        } ]
      }, {
        "detail": [ {
          "reference": "urn:uuid:03f34735-411c-451d-83f9-fe6500798a0e"
        } ]
      }, {
        "detail": [ {
          "reference": "urn:uuid:58c73e93-8623-4759-8943-46cbc3747957"
        } ]
      }, {
        "detail": [ {
          "reference": "urn:uuid:9cefbb90-bb37-41e0-b7ce-88d5794fabe3"
        } ]
      }, {
        "detail": [ {
          "reference": "urn:uuid:ba122400-6615-4126-accf-4ba7001516d3"
        } ]
      }, {
        "detail": [ {
          "reference": "urn:uuid:1a936011-2de8-4791-9f0c-55bfebc8514b"
        } ]
      }, {
        "detail": [ {
          "reference": "urn:uuid:972384e8-fc67-4aff-abff-081ba17640f9"
        } ]
      }, {
        "detail": [ {
          "reference": "urn:uuid:8d8c1c13-856d-497e-8e46-ee60ac719dd6"
        } ]
      } ]
    }
  }, {
    "fullUrl": "urn:uuid:2dc02be3-79d6-4f74-b3f8-093623466fc2",
    "resource": {
      "resourceType": "QuestionnaireResponse",
      "id": "2dc02be3-79d6-4f74-b3f8-093623466fc2",
      "identifier": {
        "value": "1766759"
      },
      "questionnaire": {
        "reference": "urn:uuid:d8647a85-b75b-41b8-a009-5e6a2ea40d1a"
      },
      "status": "completed",
      "subject": {
        "reference": "urn:uuid:88ea4c86-87a5-4211-9921-067229ac02f9"
      },
      "context": {
        "reference": "urn:uuid:af43c909-fc0d-4466-b267-83c4e0f0352b"
      },
      "authored": "2021-08-03T13:07:14+00:00",
      "item": [ {
        "linkId": "Tx220109",
        "text": "What is the reason for the contact?",
        "answer": [ {
          "valueString": "an injury or other health problem"
        } ]
      } ]
    }
  }, {
    "fullUrl": "urn:uuid:d8647a85-b75b-41b8-a009-5e6a2ea40d1a",
    "resource": {
      "resourceType": "Questionnaire",
      "id": "d8647a85-b75b-41b8-a009-5e6a2ea40d1a",
      "identifier": [ {
        "value": "1766759"
      } ],
      "version": "2021-08-03T13:07:14.000Z",
      "status": "active",
      "experimental": false,
      "date": "2021-08-03T13:07:14+00:00",
      "publisher": "User ID: '922' User name: 'AndrewJ.Walford' User skill set: 'T4'",
      "lastReviewDate": "2021-08-03",
      "contact": [ {
        "telecom": [ {
          "system": "phone",
          "value": "07798501130"
        } ]
      } ],
      "subjectType": [ "Patient" ],
      "item": [ {
        "linkId": "1766759",
        "prefix": "5",
        "text": "What is the reason for the contact?",
        "type": "choice",
        "required": true,
        "repeats": false,
        "option": [ {
          "valueString": "an injury or other health problem, Selected: true"
        }, {
          "valueString": "a need to access another healthcare service, Selected: false"
        }, {
          "valueString": "a healthcare professional requesting contact with another clinician, Selected: false"
        }, {
          "valueString": "a report of results or tests, Selected: false"
        }, {
          "valueString": "more, Selected: false"
        } ]
      } ]
    }
  }, {
    "fullUrl": "urn:uuid:4950e5b6-142b-4124-b769-c6a33ddc8ac0",
    "resource": {
      "resourceType": "QuestionnaireResponse",
      "id": "4950e5b6-142b-4124-b769-c6a33ddc8ac0",
      "identifier": {
        "value": "1766759"
      },
      "questionnaire": {
        "reference": "urn:uuid:7cfe0562-7771-47bb-8141-ae2be496ebdc"
      },
      "status": "completed",
      "subject": {
        "reference": "urn:uuid:88ea4c86-87a5-4211-9921-067229ac02f9"
      },
      "context": {
        "reference": "urn:uuid:af43c909-fc0d-4466-b267-83c4e0f0352b"
      },
      "authored": "2021-08-03T13:07:14+00:00",
      "item": [ {
        "linkId": "Tx221788",
        "text": "STRING:to'ImmediateThreatsToLife(SPA/OOHversion)'-'ABC'menu",
        "answer": [ {
          "valueString": "\"\"present\"\""
        } ]
      } ]
    }
  }, {
    "fullUrl": "urn:uuid:7cfe0562-7771-47bb-8141-ae2be496ebdc",
    "resource": {
      "resourceType": "Questionnaire",
      "id": "7cfe0562-7771-47bb-8141-ae2be496ebdc",
      "identifier": [ {
        "value": "1766759"
      } ],
      "version": "2021-08-03T13:07:14.000Z",
      "status": "active",
      "experimental": false,
      "date": "2021-08-03T13:07:14+00:00",
      "publisher": "User ID: '922' User name: 'AndrewJ.Walford' User skill set: 'T4'",
      "lastReviewDate": "2021-08-03",
      "contact": [ {
        "telecom": [ {
          "system": "phone",
          "value": "07798501130"
        } ]
      } ],
      "subjectType": [ "Patient" ],
      "item": [ {
        "linkId": "1766759",
        "prefix": "500",
        "text": "STRING:to'ImmediateThreatsToLife(SPA/OOHversion)'-'ABC'menu",
        "type": "choice",
        "required": true,
        "repeats": false,
        "option": [ {
          "valueString": "\"\"present\"\", Selected: true"
        } ]
      } ]
    }
  }, {
    "fullUrl": "urn:uuid:53042ac0-f42b-4a8b-b010-b6a0b8ad0aa3",
    "resource": {
      "resourceType": "QuestionnaireResponse",
      "id": "53042ac0-f42b-4a8b-b010-b6a0b8ad0aa3",
      "identifier": {
        "value": "1766759"
      },
      "questionnaire": {
        "reference": "urn:uuid:790e7e0e-f2bd-42f1-b60b-6e8c36876b67"
      },
      "status": "completed",
      "subject": {
        "reference": "urn:uuid:88ea4c86-87a5-4211-9921-067229ac02f9"
      },
      "context": {
        "reference": "urn:uuid:af43c909-fc0d-4466-b267-83c4e0f0352b"
      },
      "authored": "2021-08-03T13:07:14+00:00",
      "item": [ {
        "linkId": "Tx221814",
        "text": "STRING:aninjuryorotherhealthproblemestablishedinEntryFlow",
        "answer": [ {
          "valueString": "\"\"present\"\""
        } ]
      } ]
    }
  }, {
    "fullUrl": "urn:uuid:790e7e0e-f2bd-42f1-b60b-6e8c36876b67",
    "resource": {
      "resourceType": "Questionnaire",
      "id": "790e7e0e-f2bd-42f1-b60b-6e8c36876b67",
      "identifier": [ {
        "value": "1766759"
      } ],
      "version": "2021-08-03T13:07:14.000Z",
      "status": "active",
      "experimental": false,
      "date": "2021-08-03T13:07:14+00:00",
      "publisher": "User ID: '922' User name: 'AndrewJ.Walford' User skill set: 'T4'",
      "lastReviewDate": "2021-08-03",
      "contact": [ {
        "telecom": [ {
          "system": "phone",
          "value": "07798501130"
        } ]
      } ],
      "subjectType": [ "Patient" ],
      "item": [ {
        "linkId": "1766759",
        "prefix": "0",
        "text": "STRING:aninjuryorotherhealthproblemestablishedinEntryFlow",
        "type": "choice",
        "required": true,
        "repeats": false,
        "option": [ {
          "valueString": "\"\"present\"\", Selected: true"
        } ]
      } ]
    }
  }, {
    "fullUrl": "urn:uuid:8527eec3-26de-4b28-9f4a-df1e8506441e",
    "resource": {
      "resourceType": "QuestionnaireResponse",
      "id": "8527eec3-26de-4b28-9f4a-df1e8506441e",
      "identifier": {
        "value": "1766759"
      },
      "questionnaire": {
        "reference": "urn:uuid:0267ef13-f404-4b2e-a15f-51fb777e333c"
      },
      "status": "completed",
      "subject": {
        "reference": "urn:uuid:88ea4c86-87a5-4211-9921-067229ac02f9"
      },
      "context": {
        "reference": "urn:uuid:af43c909-fc0d-4466-b267-83c4e0f0352b"
      },
      "authored": "2021-08-03T13:07:14+00:00",
      "item": [ {
        "linkId": "Tx224120",
        "text": "Have you been bleeding RED BLOOD very heavily IN THE LAST 2 HOURS?",
        "answer": [ {
          "valueString": "no"
        } ]
      } ]
    }
  }, {
    "fullUrl": "urn:uuid:0267ef13-f404-4b2e-a15f-51fb777e333c",
    "resource": {
      "resourceType": "Questionnaire",
      "id": "0267ef13-f404-4b2e-a15f-51fb777e333c",
      "identifier": [ {
        "value": "1766759"
      } ],
      "version": "2021-08-03T13:07:14.000Z",
      "status": "active",
      "experimental": false,
      "date": "2021-08-03T13:07:14+00:00",
      "publisher": "User ID: '922' User name: 'AndrewJ.Walford' User skill set: 'T4'",
      "lastReviewDate": "2021-08-03",
      "contact": [ {
        "telecom": [ {
          "system": "phone",
          "value": "07798501130"
        } ]
      } ],
      "subjectType": [ "Patient" ],
      "item": [ {
        "linkId": "1766759",
        "prefix": "7000",
        "text": "Have you been bleeding RED BLOOD very heavily IN THE LAST 2 HOURS?",
        "type": "choice",
        "required": true,
        "repeats": false,
        "option": [ {
          "valueString": "yes, Selected: false"
        }, {
          "valueString": "not sure, Selected: false"
        }, {
          "valueString": "no, Selected: true"
        } ]
      } ]
    }
  }, {
    "fullUrl": "urn:uuid:c0f3a5d5-cab5-410f-89fc-4fc79130eec1",
    "resource": {
      "resourceType": "QuestionnaireResponse",
      "id": "c0f3a5d5-cab5-410f-89fc-4fc79130eec1",
      "identifier": {
        "value": "1766759"
      },
      "questionnaire": {
        "reference": "urn:uuid:9184fd5a-dd7d-42e3-a0c4-236aeae48d85"
      },
      "status": "completed",
      "subject": {
        "reference": "urn:uuid:88ea4c86-87a5-4211-9921-067229ac02f9"
      },
      "context": {
        "reference": "urn:uuid:af43c909-fc0d-4466-b267-83c4e0f0352b"
      },
      "authored": "2021-08-03T13:07:14+00:00",
      "item": [ {
        "linkId": "Tx221343",
        "text": "SocialConcernsExcluded",
        "answer": [ {
          "valueString": "*"
        } ]
      } ]
    }
  }, {
    "fullUrl": "urn:uuid:9184fd5a-dd7d-42e3-a0c4-236aeae48d85",
    "resource": {
      "resourceType": "Questionnaire",
      "id": "9184fd5a-dd7d-42e3-a0c4-236aeae48d85",
      "identifier": [ {
        "value": "1766759"
      } ],
      "version": "2021-08-03T13:07:14.000Z",
      "status": "active",
      "experimental": false,
      "date": "2021-08-03T13:07:14+00:00",
      "publisher": "User ID: '922' User name: 'AndrewJ.Walford' User skill set: 'T4'",
      "lastReviewDate": "2021-08-03",
      "contact": [ {
        "telecom": [ {
          "system": "phone",
          "value": "07798501130"
        } ]
      } ],
      "subjectType": [ "Patient" ],
      "item": [ {
        "linkId": "1766759",
        "prefix": "2700",
        "text": "SocialConcernsExcluded",
        "type": "choice",
        "required": true,
        "repeats": false,
        "option": [ {
          "valueString": "==\"\"present\"\", Selected: false"
        }, {
          "valueString": "*, Selected: true"
        } ]
      } ]
    }
  }, {
    "fullUrl": "urn:uuid:2048c807-2078-43cb-b712-a0a5a819a557",
    "resource": {
      "resourceType": "QuestionnaireResponse",
      "id": "2048c807-2078-43cb-b712-a0a5a819a557",
      "identifier": {
        "value": "1766759"
      },
      "questionnaire": {
        "reference": "urn:uuid:401d4dd8-0750-4189-8c92-e5c64569c980"
      },
      "status": "completed",
      "subject": {
        "reference": "urn:uuid:88ea4c86-87a5-4211-9921-067229ac02f9"
      },
      "context": {
        "reference": "urn:uuid:af43c909-fc0d-4466-b267-83c4e0f0352b"
      },
      "authored": "2021-08-03T13:07:14+00:00",
      "item": [ {
        "linkId": "Tx130011",
        "text": "What is the main problem?",
        "answer": [ {
          "valueString": "illness or other health problem (specify)"
        } ]
      } ]
    }
  }, {
    "fullUrl": "urn:uuid:401d4dd8-0750-4189-8c92-e5c64569c980",
    "resource": {
      "resourceType": "Questionnaire",
      "id": "401d4dd8-0750-4189-8c92-e5c64569c980",
      "identifier": [ {
        "value": "1766759"
      } ],
      "version": "2021-08-03T13:07:14.000Z",
      "status": "active",
      "experimental": false,
      "date": "2021-08-03T13:07:14+00:00",
      "publisher": "User ID: '922' User name: 'AndrewJ.Walford' User skill set: 'T4'",
      "lastReviewDate": "2021-08-03",
      "contact": [ {
        "telecom": [ {
          "system": "phone",
          "value": "07798501130"
        } ]
      } ],
      "subjectType": [ "Patient" ],
      "item": [ {
        "linkId": "1766759",
        "prefix": "3400",
        "text": "What is the main problem?",
        "type": "choice",
        "required": true,
        "repeats": false,
        "option": [ {
          "valueString": "the individual has been told to follow a particular course of action (specify), Selected: false"
        }, {
          "valueString": "the individual is an identified frequent caller, Selected: false"
        }, {
          "valueString": "injury (specify), Selected: false"
        }, {
          "valueString": "illness or other health problem (specify), Selected: true"
        }, {
          "valueString": "child protection/vulnerable adult concern, Selected: false"
        }, {
          "valueString": "social or domestic emergency, Selected: false"
        }, {
          "valueString": "the environment potentially poses an immediate threat to life (specify), Selected: false"
        } ]
      } ]
    }
  }, {
    "fullUrl": "urn:uuid:64d336e0-9977-4e5e-846b-9edeba78cc28",
    "resource": {
      "resourceType": "QuestionnaireResponse",
      "id": "64d336e0-9977-4e5e-846b-9edeba78cc28",
      "identifier": {
        "value": "1766759"
      },
      "questionnaire": {
        "reference": "urn:uuid:01efbf30-2d10-4b41-a69e-582f6658a49d"
      },
      "status": "completed",
      "subject": {
        "reference": "urn:uuid:88ea4c86-87a5-4211-9921-067229ac02f9"
      },
      "context": {
        "reference": "urn:uuid:af43c909-fc0d-4466-b267-83c4e0f0352b"
      },
      "authored": "2021-08-03T13:07:14+00:00",
      "item": [ {
        "linkId": "Tx61025",
        "text": "Are you so breathless that speaking more than a few words is impossible?",
        "answer": [ {
          "valueString": "no"
        } ]
      } ]
    }
  }, {
    "fullUrl": "urn:uuid:01efbf30-2d10-4b41-a69e-582f6658a49d",
    "resource": {
      "resourceType": "Questionnaire",
      "id": "01efbf30-2d10-4b41-a69e-582f6658a49d",
      "identifier": [ {
        "value": "1766759"
      } ],
      "version": "2021-08-03T13:07:14.000Z",
      "status": "active",
      "experimental": false,
      "date": "2021-08-03T13:07:14+00:00",
      "publisher": "User ID: '922' User name: 'AndrewJ.Walford' User skill set: 'T4'",
      "lastReviewDate": "2021-08-03",
      "contact": [ {
        "telecom": [ {
          "system": "phone",
          "value": "07798501130"
        } ]
      } ],
      "subjectType": [ "Patient" ],
      "item": [ {
        "linkId": "1766759",
        "prefix": "0",
        "text": "Are you so breathless that speaking more than a few words is impossible?",
        "type": "choice",
        "required": true,
        "repeats": false,
        "option": [ {
          "valueString": "yes, Selected: false"
        }, {
          "valueString": "not sure, Selected: false"
        }, {
          "valueString": "no, Selected: true"
        } ]
      } ]
    }
  }, {
    "fullUrl": "urn:uuid:0aa4cf0b-d51b-40e8-a14a-c8055c5d3f6b",
    "resource": {
      "resourceType": "QuestionnaireResponse",
      "id": "0aa4cf0b-d51b-40e8-a14a-c8055c5d3f6b",
      "identifier": {
        "value": "1766759"
      },
      "questionnaire": {
        "reference": "urn:uuid:b4f7f079-786a-42fd-a200-7824f8bda5f0"
      },
      "status": "completed",
      "subject": {
        "reference": "urn:uuid:88ea4c86-87a5-4211-9921-067229ac02f9"
      },
      "context": {
        "reference": "urn:uuid:af43c909-fc0d-4466-b267-83c4e0f0352b"
      },
      "authored": "2021-08-03T13:07:14+00:00",
      "item": [ {
        "linkId": "Tx220845",
        "text": "SYSTEM_FLUPANDEMIC",
        "answer": [ {
          "valueString": "*"
        } ]
      } ]
    }
  }, {
    "fullUrl": "urn:uuid:b4f7f079-786a-42fd-a200-7824f8bda5f0",
    "resource": {
      "resourceType": "Questionnaire",
      "id": "b4f7f079-786a-42fd-a200-7824f8bda5f0",
      "identifier": [ {
        "value": "1766759"
      } ],
      "version": "2021-08-03T13:07:14.000Z",
      "status": "active",
      "experimental": false,
      "date": "2021-08-03T13:07:14+00:00",
      "publisher": "User ID: '922' User name: 'AndrewJ.Walford' User skill set: 'T4'",
      "lastReviewDate": "2021-08-03",
      "contact": [ {
        "telecom": [ {
          "system": "phone",
          "value": "07798501130"
        } ]
      } ],
      "subjectType": [ "Patient" ],
      "item": [ {
        "linkId": "1766759",
        "prefix": "100",
        "text": "SYSTEM_FLUPANDEMIC",
        "type": "choice",
        "required": true,
        "repeats": false,
        "option": [ {
          "valueString": "==\"\"pandemic\"\", Selected: false"
        }, {
          "valueString": "*, Selected: true"
        } ]
      } ]
    }
  }, {
    "fullUrl": "urn:uuid:6c7252bf-3063-4de8-9a00-185fdf0e6d97",
    "resource": {
      "resourceType": "QuestionnaireResponse",
      "id": "6c7252bf-3063-4de8-9a00-185fdf0e6d97",
      "identifier": {
        "value": "1766759"
      },
      "questionnaire": {
        "reference": "urn:uuid:5b5ee8b1-05cd-4c09-83d3-4134c9b06367"
      },
      "status": "completed",
      "subject": {
        "reference": "urn:uuid:88ea4c86-87a5-4211-9921-067229ac02f9"
      },
      "context": {
        "reference": "urn:uuid:af43c909-fc0d-4466-b267-83c4e0f0352b"
      },
      "authored": "2021-08-03T13:07:14+00:00",
      "item": [ {
        "linkId": "Tx223440",
        "text": "WHAT IS SAID TO BE THE MAIN REASON FOR THIS CONTACT?",
        "answer": [ {
          "valueString": "more"
        } ]
      } ]
    }
  }, {
    "fullUrl": "urn:uuid:5b5ee8b1-05cd-4c09-83d3-4134c9b06367",
    "resource": {
      "resourceType": "Questionnaire",
      "id": "5b5ee8b1-05cd-4c09-83d3-4134c9b06367",
      "identifier": [ {
        "value": "1766759"
      } ],
      "version": "2021-08-03T13:07:14.000Z",
      "status": "active",
      "experimental": false,
      "date": "2021-08-03T13:07:14+00:00",
      "publisher": "User ID: '922' User name: 'AndrewJ.Walford' User skill set: 'T4'",
      "lastReviewDate": "2021-08-03",
      "contact": [ {
        "telecom": [ {
          "system": "phone",
          "value": "07798501130"
        } ]
      } ],
      "subjectType": [ "Patient" ],
      "item": [ {
        "linkId": "1766759",
        "prefix": "5000",
        "text": "WHAT IS SAID TO BE THE MAIN REASON FOR THIS CONTACT?",
        "type": "choice",
        "required": true,
        "repeats": false,
        "option": [ {
          "valueString": "a probable allergic reaction now, Selected: false"
        }, {
          "valueString": "a probable heart attack, Selected: false"
        }, {
          "valueString": "chest or upper back pain, Selected: false"
        }, {
          "valueString": "a probable stroke or mini-stroke, Selected: false"
        }, {
          "valueString": "a probable fit or seizure within the last 12 hours, Selected: false"
        }, {
          "valueString": "a suicide attempt, Selected: false"
        }, {
          "valueString": "more, Selected: true"
        } ]
      } ]
    }
  }, {
    "fullUrl": "urn:uuid:3055d776-267e-4678-8179-0f97446f2171",
    "resource": {
      "resourceType": "QuestionnaireResponse",
      "id": "3055d776-267e-4678-8179-0f97446f2171",
      "identifier": {
        "value": "1766759"
      },
      "questionnaire": {
        "reference": "urn:uuid:f2ba50a3-64fe-4559-8d68-5ccd05d5cfbe"
      },
      "status": "completed",
      "subject": {
        "reference": "urn:uuid:88ea4c86-87a5-4211-9921-067229ac02f9"
      },
      "context": {
        "reference": "urn:uuid:af43c909-fc0d-4466-b267-83c4e0f0352b"
      },
      "authored": "2021-08-03T13:07:14+00:00",
      "item": [ {
        "linkId": "Tx220032",
        "text": "WHAT IS SAID TO BE THE MAIN REASON FOR THIS CONTACT?",
        "answer": [ {
          "valueString": "none of the above"
        } ]
      } ]
    }
  }, {
    "fullUrl": "urn:uuid:f2ba50a3-64fe-4559-8d68-5ccd05d5cfbe",
    "resource": {
      "resourceType": "Questionnaire",
      "id": "f2ba50a3-64fe-4559-8d68-5ccd05d5cfbe",
      "identifier": [ {
        "value": "1766759"
      } ],
      "version": "2021-08-03T13:07:14.000Z",
      "status": "active",
      "experimental": false,
      "date": "2021-08-03T13:07:14+00:00",
      "publisher": "User ID: '922' User name: 'AndrewJ.Walford' User skill set: 'T4'",
      "lastReviewDate": "2021-08-03",
      "contact": [ {
        "telecom": [ {
          "system": "phone",
          "value": "07798501130"
        } ]
      } ],
      "subjectType": [ "Patient" ],
      "item": [ {
        "linkId": "1766759",
        "prefix": "1900",
        "text": "WHAT IS SAID TO BE THE MAIN REASON FOR THIS CONTACT?",
        "type": "choice",
        "required": true,
        "repeats": false,
        "option": [ {
          "valueString": "new confusion now, Selected: false"
        }, {
          "valueString": "a diabetic hypo (low blood sugar) or a diabetic hyper (high blood sugar), Selected: false"
        }, {
          "valueString": "recovery from an ICD (implanted cardioverter defibrillator) shock, Selected: false"
        }, {
          "valueString": "none of the above, Selected: true"
        } ]
      } ]
    }
  }, {
    "fullUrl": "urn:uuid:a1ef13cb-6a8d-4f91-861e-ad9c69d1ed03",
    "resource": {
      "resourceType": "QuestionnaireResponse",
      "id": "a1ef13cb-6a8d-4f91-861e-ad9c69d1ed03",
      "identifier": {
        "value": "1766759"
      },
      "questionnaire": {
        "reference": "urn:uuid:217471bf-fec9-4b79-8f47-28fe16a397da"
      },
      "status": "completed",
      "subject": {
        "reference": "urn:uuid:88ea4c86-87a5-4211-9921-067229ac02f9"
      },
      "context": {
        "reference": "urn:uuid:af43c909-fc0d-4466-b267-83c4e0f0352b"
      },
      "authored": "2021-08-03T13:07:14+00:00",
      "item": [ {
        "linkId": "Tx223142",
        "text": "Does the skin on the chest, back or abdomen feel a normal temperature?",
        "answer": [ {
          "valueString": "yes - normal, warm or hot"
        } ]
      } ]
    }
  }, {
    "fullUrl": "urn:uuid:217471bf-fec9-4b79-8f47-28fe16a397da",
    "resource": {
      "resourceType": "Questionnaire",
      "id": "217471bf-fec9-4b79-8f47-28fe16a397da",
      "identifier": [ {
        "value": "1766759"
      } ],
      "version": "2021-08-03T13:07:14.000Z",
      "status": "active",
      "experimental": false,
      "date": "2021-08-03T13:07:14+00:00",
      "publisher": "User ID: '922' User name: 'AndrewJ.Walford' User skill set: 'T4'",
      "lastReviewDate": "2021-08-03",
      "contact": [ {
        "telecom": [ {
          "system": "phone",
          "value": "07798501130"
        } ]
      } ],
      "subjectType": [ "Patient" ],
      "item": [ {
        "linkId": "1766759",
        "prefix": "4000",
        "text": "Does the skin on the chest, back or abdomen feel a normal temperature?",
        "type": "choice",
        "required": true,
        "repeats": false,
        "option": [ {
          "valueString": "yes - normal, warm or hot, Selected: true"
        }, {
          "valueString": "not sure, Selected: false"
        }, {
          "valueString": "no - cool OR cold, Selected: false"
        }, {
          "valueString": "not safe to touch, Selected: false"
        } ]
      } ]
    }
  }, {
    "fullUrl": "urn:uuid:bd980066-d916-4d8c-964b-5cbc6dd6900e",
    "resource": {
      "resourceType": "QuestionnaireResponse",
      "id": "bd980066-d916-4d8c-964b-5cbc6dd6900e",
      "identifier": {
        "value": "1766759"
      },
      "questionnaire": {
        "reference": "urn:uuid:8c7aa681-f9ba-426e-a940-568dad1caeae"
      },
      "status": "completed",
      "subject": {
        "reference": "urn:uuid:88ea4c86-87a5-4211-9921-067229ac02f9"
      },
      "context": {
        "reference": "urn:uuid:af43c909-fc0d-4466-b267-83c4e0f0352b"
      },
      "authored": "2021-08-03T13:07:14+00:00",
      "item": [ {
        "linkId": "Tx221724",
        "text": "STRING:ShockAsked",
        "answer": [ {
          "valueString": "\"\"present\"\""
        } ]
      } ]
    }
  }, {
    "fullUrl": "urn:uuid:8c7aa681-f9ba-426e-a940-568dad1caeae",
    "resource": {
      "resourceType": "Questionnaire",
      "id": "8c7aa681-f9ba-426e-a940-568dad1caeae",
      "identifier": [ {
        "value": "1766759"
      } ],
      "version": "2021-08-03T13:07:14.000Z",
      "status": "active",
      "experimental": false,
      "date": "2021-08-03T13:07:14+00:00",
      "publisher": "User ID: '922' User name: 'AndrewJ.Walford' User skill set: 'T4'",
      "lastReviewDate": "2021-08-03",
      "contact": [ {
        "telecom": [ {
          "system": "phone",
          "value": "07798501130"
        } ]
      } ],
      "subjectType": [ "Patient" ],
      "item": [ {
        "linkId": "1766759",
        "prefix": "3300",
        "text": "STRING:ShockAsked",
        "type": "choice",
        "required": true,
        "repeats": false,
        "option": [ {
          "valueString": "\"\"present\"\", Selected: true"
        } ]
      } ]
    }
  }, {
    "fullUrl": "urn:uuid:c0fb59c0-a8d0-4aa1-8ea5-713f2e9a37c0",
    "resource": {
      "resourceType": "QuestionnaireResponse",
      "id": "c0fb59c0-a8d0-4aa1-8ea5-713f2e9a37c0",
      "identifier": {
        "value": "1766759"
      },
      "questionnaire": {
        "reference": "urn:uuid:b8e9b730-3123-4b30-b994-d90801c91941"
      },
      "status": "completed",
      "subject": {
        "reference": "urn:uuid:88ea4c86-87a5-4211-9921-067229ac02f9"
      },
      "context": {
        "reference": "urn:uuid:af43c909-fc0d-4466-b267-83c4e0f0352b"
      },
      "authored": "2021-08-03T13:07:14+00:00"
    }
  }, {
    "fullUrl": "urn:uuid:b8e9b730-3123-4b30-b994-d90801c91941",
    "resource": {
      "resourceType": "Questionnaire",
      "id": "b8e9b730-3123-4b30-b994-d90801c91941",
      "identifier": [ {
        "value": "1766759"
      } ],
      "version": "2021-08-03T13:07:14.000Z",
      "status": "active",
      "experimental": false,
      "date": "2021-08-03T13:07:14+00:00",
      "publisher": "User ID: '922' User name: 'AndrewJ.Walford' User skill set: 'T4'",
      "lastReviewDate": "2021-08-03",
      "contact": [ {
        "telecom": [ {
          "system": "phone",
          "value": "07798501130"
        } ]
      } ],
      "subjectType": [ "Patient" ]
    }
  }, {
    "fullUrl": "urn:uuid:c3736e84-b059-46cf-92e8-af62ce87b477",
    "resource": {
      "resourceType": "QuestionnaireResponse",
      "id": "c3736e84-b059-46cf-92e8-af62ce87b477",
      "identifier": {
        "value": "1766759"
      },
      "questionnaire": {
        "reference": "urn:uuid:f23882fa-0945-4a89-b70d-5e4d16185f17"
      },
      "status": "completed",
      "subject": {
        "reference": "urn:uuid:88ea4c86-87a5-4211-9921-067229ac02f9"
      },
      "context": {
        "reference": "urn:uuid:af43c909-fc0d-4466-b267-83c4e0f0352b"
      },
      "authored": "2021-08-03T13:07:14+00:00",
      "item": [ {
        "linkId": "Tx222984",
        "text": "WHAT IS THE MAIN PROBLEM?",
        "answer": [ {
          "valueString": "more"
        } ]
      } ]
    }
  }, {
    "fullUrl": "urn:uuid:f23882fa-0945-4a89-b70d-5e4d16185f17",
    "resource": {
      "resourceType": "Questionnaire",
      "id": "f23882fa-0945-4a89-b70d-5e4d16185f17",
      "identifier": [ {
        "value": "1766759"
      } ],
      "version": "2021-08-03T13:07:14.000Z",
      "status": "active",
      "experimental": false,
      "date": "2021-08-03T13:07:14+00:00",
      "publisher": "User ID: '922' User name: 'AndrewJ.Walford' User skill set: 'T4'",
      "lastReviewDate": "2021-08-03",
      "contact": [ {
        "telecom": [ {
          "system": "phone",
          "value": "07798501130"
        } ]
      } ],
      "subjectType": [ "Patient" ],
      "item": [ {
        "linkId": "1766759",
        "prefix": "0",
        "text": "WHAT IS THE MAIN PROBLEM?",
        "type": "choice",
        "required": true,
        "repeats": false,
        "option": [ {
          "valueString": "a rash, Selected: false"
        }, {
          "valueString": "itch, Selected: false"
        }, {
          "valueString": "yellow skin, Selected: false"
        }, {
          "valueString": "skin lumps, Selected: false"
        }, {
          "valueString": "easy or unexplained bruising, Selected: false"
        }, {
          "valueString": "more, Selected: true"
        } ]
      } ]
    }
  }, {
    "fullUrl": "urn:uuid:03f34735-411c-451d-83f9-fe6500798a0e",
    "resource": {
      "resourceType": "QuestionnaireResponse",
      "id": "03f34735-411c-451d-83f9-fe6500798a0e",
      "identifier": {
        "value": "1766759"
      },
      "questionnaire": {
        "reference": "urn:uuid:e2804dd7-941f-4a13-96e9-d36b69789102"
      },
      "status": "completed",
      "subject": {
        "reference": "urn:uuid:88ea4c86-87a5-4211-9921-067229ac02f9"
      },
      "context": {
        "reference": "urn:uuid:af43c909-fc0d-4466-b267-83c4e0f0352b"
      },
      "authored": "2021-08-03T13:07:14+00:00",
      "item": [ {
        "linkId": "Tx222985",
        "text": "WHAT IS THE MAIN PROBLEM?",
        "answer": [ {
          "valueString": "declared head lice"
        } ]
      } ]
    }
  }, {
    "fullUrl": "urn:uuid:e2804dd7-941f-4a13-96e9-d36b69789102",
    "resource": {
      "resourceType": "Questionnaire",
      "id": "e2804dd7-941f-4a13-96e9-d36b69789102",
      "identifier": [ {
        "value": "1766759"
      } ],
      "version": "2021-08-03T13:07:14.000Z",
      "status": "active",
      "experimental": false,
      "date": "2021-08-03T13:07:14+00:00",
      "publisher": "User ID: '922' User name: 'AndrewJ.Walford' User skill set: 'T4'",
      "lastReviewDate": "2021-08-03",
      "contact": [ {
        "telecom": [ {
          "system": "phone",
          "value": "07798501130"
        } ]
      } ],
      "subjectType": [ "Patient" ],
      "item": [ {
        "linkId": "1766759",
        "prefix": "700",
        "text": "WHAT IS THE MAIN PROBLEM?",
        "type": "choice",
        "required": true,
        "repeats": false,
        "option": [ {
          "valueString": "declared head lice, Selected: true"
        }, {
          "valueString": "declared pubic lice, Selected: false"
        }, {
          "valueString": "declared scabies, Selected: false"
        }, {
          "valueString": "declared athlete's foot, Selected: false"
        }, {
          "valueString": "acne, spots or pimples, Selected: false"
        }, {
          "valueString": "more, Selected: false"
        } ]
      } ]
    }
  }, {
    "fullUrl": "urn:uuid:58c73e93-8623-4759-8943-46cbc3747957",
    "resource": {
      "resourceType": "QuestionnaireResponse",
      "id": "58c73e93-8623-4759-8943-46cbc3747957",
      "identifier": {
        "value": "1766759"
      },
      "questionnaire": {
        "reference": "urn:uuid:2064c2d0-f9c0-475f-bb00-a8cddd0e8d65"
      },
      "status": "completed",
      "subject": {
        "reference": "urn:uuid:88ea4c86-87a5-4211-9921-067229ac02f9"
      },
      "context": {
        "reference": "urn:uuid:af43c909-fc0d-4466-b267-83c4e0f0352b"
      },
      "authored": "2021-08-03T13:07:14+00:00",
      "item": [ {
        "linkId": "Tx220667",
        "text": "Have you been in contact with somebody with head lice or nits?",
        "answer": [ {
          "valueString": "yes"
        } ]
      } ]
    }
  }, {
    "fullUrl": "urn:uuid:2064c2d0-f9c0-475f-bb00-a8cddd0e8d65",
    "resource": {
      "resourceType": "Questionnaire",
      "id": "2064c2d0-f9c0-475f-bb00-a8cddd0e8d65",
      "identifier": [ {
        "value": "1766759"
      } ],
      "version": "2021-08-03T13:07:14.000Z",
      "status": "active",
      "experimental": false,
      "date": "2021-08-03T13:07:14+00:00",
      "publisher": "User ID: '922' User name: 'AndrewJ.Walford' User skill set: 'T4'",
      "lastReviewDate": "2021-08-03",
      "contact": [ {
        "telecom": [ {
          "system": "phone",
          "value": "07798501130"
        } ]
      } ],
      "subjectType": [ "Patient" ],
      "item": [ {
        "linkId": "1766759",
        "prefix": "0",
        "text": "Have you been in contact with somebody with head lice or nits?",
        "type": "choice",
        "required": true,
        "repeats": false,
        "option": [ {
          "valueString": "yes, Selected: true"
        }, {
          "valueString": "not sure, Selected: false"
        }, {
          "valueString": "no, Selected: false"
        } ]
      } ]
    }
  }, {
    "fullUrl": "urn:uuid:9cefbb90-bb37-41e0-b7ce-88d5794fabe3",
    "resource": {
      "resourceType": "QuestionnaireResponse",
      "id": "9cefbb90-bb37-41e0-b7ce-88d5794fabe3",
      "identifier": {
        "value": "1766759"
      },
      "questionnaire": {
        "reference": "urn:uuid:345549af-5cdd-4f14-a878-2c9f32edafab"
      },
      "status": "completed",
      "subject": {
        "reference": "urn:uuid:88ea4c86-87a5-4211-9921-067229ac02f9"
      },
      "context": {
        "reference": "urn:uuid:af43c909-fc0d-4466-b267-83c4e0f0352b"
      },
      "authored": "2021-08-03T13:07:14+00:00",
      "item": [ {
        "linkId": "Tx220664",
        "text": "Have you lost patches or clumps of hair OVER THE LAST FEW WEEKS?",
        "answer": [ {
          "valueString": "yes"
        } ]
      } ]
    }
  }, {
    "fullUrl": "urn:uuid:345549af-5cdd-4f14-a878-2c9f32edafab",
    "resource": {
      "resourceType": "Questionnaire",
      "id": "345549af-5cdd-4f14-a878-2c9f32edafab",
      "identifier": [ {
        "value": "1766759"
      } ],
      "version": "2021-08-03T13:07:14.000Z",
      "status": "active",
      "experimental": false,
      "date": "2021-08-03T13:07:14+00:00",
      "publisher": "User ID: '922' User name: 'AndrewJ.Walford' User skill set: 'T4'",
      "lastReviewDate": "2021-08-03",
      "contact": [ {
        "telecom": [ {
          "system": "phone",
          "value": "07798501130"
        } ]
      } ],
      "subjectType": [ "Patient" ],
      "item": [ {
        "linkId": "1766759",
        "prefix": "300",
        "text": "Have you lost patches or clumps of hair OVER THE LAST FEW WEEKS?",
        "type": "choice",
        "required": true,
        "repeats": false,
        "option": [ {
          "valueString": "yes, Selected: true"
        }, {
          "valueString": "not sure, Selected: false"
        }, {
          "valueString": "no, Selected: false"
        } ]
      } ]
    }
  }, {
    "fullUrl": "urn:uuid:ba122400-6615-4126-accf-4ba7001516d3",
    "resource": {
      "resourceType": "QuestionnaireResponse",
      "id": "ba122400-6615-4126-accf-4ba7001516d3",
      "identifier": {
        "value": "1766759"
      },
      "questionnaire": {
        "reference": "urn:uuid:c62bdd12-aa16-44ac-bbcc-0cfdc5e490c2"
      },
      "status": "completed",
      "subject": {
        "reference": "urn:uuid:88ea4c86-87a5-4211-9921-067229ac02f9"
      },
      "context": {
        "reference": "urn:uuid:af43c909-fc0d-4466-b267-83c4e0f0352b"
      },
      "authored": "2021-08-03T13:07:14+00:00",
      "item": [ {
        "linkId": "Tx221449",
        "text": "STRING:SDPCFullPrimaryCareassessmentandprescribingcapability",
        "answer": [ {
          "valueString": "\"\"PC full Primary Care assessment and prescribing capability\"\""
        } ]
      } ]
    }
  }, {
    "fullUrl": "urn:uuid:c62bdd12-aa16-44ac-bbcc-0cfdc5e490c2",
    "resource": {
      "resourceType": "Questionnaire",
      "id": "c62bdd12-aa16-44ac-bbcc-0cfdc5e490c2",
      "identifier": [ {
        "value": "1766759"
      } ],
      "version": "2021-08-03T13:07:14.000Z",
      "status": "active",
      "experimental": false,
      "date": "2021-08-03T13:07:14+00:00",
      "publisher": "User ID: '922' User name: 'AndrewJ.Walford' User skill set: 'T4'",
      "lastReviewDate": "2021-08-03",
      "contact": [ {
        "telecom": [ {
          "system": "phone",
          "value": "07798501130"
        } ]
      } ],
      "subjectType": [ "Patient" ],
      "item": [ {
        "linkId": "1766759",
        "prefix": "500",
        "text": "STRING:SDPCFullPrimaryCareassessmentandprescribingcapability",
        "type": "choice",
        "required": true,
        "repeats": false,
        "option": [ {
          "valueString": "\"\"PC full Primary Care assessment and prescribing capability\"\", Selected: true"
        } ]
      } ]
    }
  }, {
    "fullUrl": "urn:uuid:1a936011-2de8-4791-9f0c-55bfebc8514b",
    "resource": {
      "resourceType": "QuestionnaireResponse",
      "id": "1a936011-2de8-4791-9f0c-55bfebc8514b",
      "identifier": {
        "value": "1766759"
      },
      "questionnaire": {
        "reference": "urn:uuid:a50493e6-7e0d-4ebb-8719-9b6f106c5e5e"
      },
      "status": "completed",
      "subject": {
        "reference": "urn:uuid:88ea4c86-87a5-4211-9921-067229ac02f9"
      },
      "context": {
        "reference": "urn:uuid:af43c909-fc0d-4466-b267-83c4e0f0352b"
      },
      "authored": "2021-08-03T13:07:14+00:00"
    }
  }, {
    "fullUrl": "urn:uuid:a50493e6-7e0d-4ebb-8719-9b6f106c5e5e",
    "resource": {
      "resourceType": "Questionnaire",
      "id": "a50493e6-7e0d-4ebb-8719-9b6f106c5e5e",
      "identifier": [ {
        "value": "1766759"
      } ],
      "version": "2021-08-03T13:07:14.000Z",
      "status": "active",
      "experimental": false,
      "date": "2021-08-03T13:07:14+00:00",
      "publisher": "User ID: '922' User name: 'AndrewJ.Walford' User skill set: 'T4'",
      "lastReviewDate": "2021-08-03",
      "contact": [ {
        "telecom": [ {
          "system": "phone",
          "value": "07798501130"
        } ]
      } ],
      "subjectType": [ "Patient" ]
    }
  }, {
    "fullUrl": "urn:uuid:972384e8-fc67-4aff-abff-081ba17640f9",
    "resource": {
      "resourceType": "QuestionnaireResponse",
      "id": "972384e8-fc67-4aff-abff-081ba17640f9",
      "identifier": {
        "value": "1766759"
      },
      "questionnaire": {
        "reference": "urn:uuid:1d2a2ce4-2b71-409b-9bca-01ee92a613c2"
      },
      "status": "completed",
      "subject": {
        "reference": "urn:uuid:88ea4c86-87a5-4211-9921-067229ac02f9"
      },
      "context": {
        "reference": "urn:uuid:af43c909-fc0d-4466-b267-83c4e0f0352b"
      },
      "authored": "2021-08-03T13:07:14+00:00",
      "item": [ {
        "linkId": "N/A"
      } ]
    }
  }, {
    "fullUrl": "urn:uuid:1d2a2ce4-2b71-409b-9bca-01ee92a613c2",
    "resource": {
      "resourceType": "Questionnaire",
      "id": "1d2a2ce4-2b71-409b-9bca-01ee92a613c2",
      "identifier": [ {
        "value": "1766759"
      } ],
      "version": "2021-08-03T13:07:14.000Z",
      "status": "active",
      "experimental": false,
      "date": "2021-08-03T13:07:14+00:00",
      "publisher": "User ID: '922' User name: 'AndrewJ.Walford' User skill set: 'T4'",
      "lastReviewDate": "2021-08-03",
      "contact": [ {
        "telecom": [ {
          "system": "phone",
          "value": "07798501130"
        } ]
      } ],
      "subjectType": [ "Patient" ],
      "item": [ {
        "linkId": "1766759",
        "type": "choice",
        "required": true,
        "repeats": false,
        "option": [ {
          "valueString": ", Selected: false"
        } ]
      } ]
    }
  }, {
    "fullUrl": "urn:uuid:8d8c1c13-856d-497e-8e46-ee60ac719dd6",
    "resource": {
      "resourceType": "QuestionnaireResponse",
      "id": "8d8c1c13-856d-497e-8e46-ee60ac719dd6",
      "identifier": {
        "value": "1766759"
      },
      "questionnaire": {
        "reference": "urn:uuid:87ac088e-db21-4de7-9d27-3e012da577a0"
      },
      "status": "completed",
      "subject": {
        "reference": "urn:uuid:88ea4c86-87a5-4211-9921-067229ac02f9"
      },
      "context": {
        "reference": "urn:uuid:af43c909-fc0d-4466-b267-83c4e0f0352b"
      },
      "authored": "2021-08-03T13:07:14+00:00"
    }
  }, {
    "fullUrl": "urn:uuid:87ac088e-db21-4de7-9d27-3e012da577a0",
    "resource": {
      "resourceType": "Questionnaire",
      "id": "87ac088e-db21-4de7-9d27-3e012da577a0",
      "identifier": [ {
        "value": "1766759"
      } ],
      "version": "2021-08-03T13:07:14.000Z",
      "status": "active",
      "experimental": false,
      "date": "2021-08-03T13:07:14+00:00",
      "publisher": "User ID: '922' User name: 'AndrewJ.Walford' User skill set: 'T4'",
      "lastReviewDate": "2021-08-03",
      "contact": [ {
        "telecom": [ {
          "system": "phone",
          "value": "07798501130"
        } ]
      } ],
      "subjectType": [ "Patient" ]
    }
  }, {
    "fullUrl": "urn:uuid:56708275-7df7-43dd-96ae-03e38b00b4b8",
    "resource": {
      "resourceType": "Observation",
      "id": "56708275-7df7-43dd-96ae-03e38b00b4b8",
      "status": "final",
      "code": {
        "coding": [ {
          "system": "http://snomed.info/sct",
          "code": "33962009",
          "display": "Presenting complaint"
        } ]
      },
      "subject": {
        "reference": "urn:uuid:88ea4c86-87a5-4211-9921-067229ac02f9"
      },
      "context": {
        "reference": "urn:uuid:af43c909-fc0d-4466-b267-83c4e0f0352b"
      }
    }
  }, {
    "fullUrl": "urn:uuid:930b6e3b-bc9a-4b6f-b818-20356f153dad",
    "resource": {
      "resourceType": "PractitionerRole",
      "id": "930b6e3b-bc9a-4b6f-b818-20356f153dad",
      "practitioner": {
        "reference": "urn:uuid:6ab650bd-7c7a-4172-b3ab-6a5e022b8b6f"
      },
      "organization": {
        "reference": "urn:uuid:68c7e20f-612b-47ef-b565-6a4fb8f82679"
      },
      "code": [ {
        "coding": [ {
          "system": "2.16.840.1.113883.2.1.3.2.4.17.339",
          "code": "NP",
          "display": "Nurse Practitioner"
        } ]
      } ]
    }
  }, {
    "fullUrl": "urn:uuid:68c7e20f-612b-47ef-b565-6a4fb8f82679",
    "resource": {
      "resourceType": "Organization",
      "id": "68c7e20f-612b-47ef-b565-6a4fb8f82679",
      "identifier": [ {
        "value": "RX7"
      } ],
      "name": "NWAS 111"
    }
  }, {
    "fullUrl": "urn:uuid:f93ac518-a7c6-4925-b5cc-962fc90fa7a1",
    "resource": {
      "resourceType": "RelatedPerson",
      "id": "f93ac518-a7c6-4925-b5cc-962fc90fa7a1",
      "patient": {
        "reference": "urn:uuid:88ea4c86-87a5-4211-9921-067229ac02f9"
      },
      "relationship": {
        "coding": [ {
          "system": "http://hl7.org/fhir/v2/0131",
          "code": "C",
          "display": "Emergency Contact"
        } ]
      },
      "telecom": [ {
        "system": "phone",
        "value": "tel:07798501130"
      } ]
    }
  }, {
    "fullUrl": "urn:uuid:c12ba169-f59b-4384-86ae-ec64cce00dfd",
    "resource": {
      "resourceType": "Device",
      "id": "c12ba169-f59b-4384-86ae-ec64cce00dfd",
      "model": "111 Adaptor",
      "version": "1.0.3"
    }
  }, {
    "fullUrl": "urn:uuid:944ebd33-f932-44e4-a333-a86206a7e97f",
    "resource": {
      "resourceType": "List",
      "id": "944ebd33-f932-44e4-a333-a86206a7e97f",
      "status": "current",
      "mode": "working",
      "title": "111 Report List",
      "code": {
        "coding": [ {
          "system": "http://snomed.info/sct",
          "code": "225390008",
          "display": "Triage"
        } ]
      },
      "subject": {
        "reference": "urn:uuid:88ea4c86-87a5-4211-9921-067229ac02f9"
      },
      "encounter": {
        "reference": "urn:uuid:af43c909-fc0d-4466-b267-83c4e0f0352b"
      },
      "date": "2021-08-03T13:07:14+00:00",
      "source": {
        "reference": "urn:uuid:c12ba169-f59b-4384-86ae-ec64cce00dfd"
      },
      "orderedBy": {
        "coding": [ {
          "system": "http://hl7.org/fhir/list-order",
          "code": "event-date",
          "display": "Sorted by Event Date"
        } ]
      },
      "entry": [ {
        "item": {
          "reference": "urn:uuid:6ab650bd-7c7a-4172-b3ab-6a5e022b8b6f"
        }
      }, {
        "item": {
          "reference": "urn:uuid:f93ac518-a7c6-4925-b5cc-962fc90fa7a1"
        }
      }, {
        "item": {
          "reference": "urn:uuid:ed8f40f5-0789-4833-ae73-ff7d073eb4cf"
        }
      }, {
        "item": {
          "reference": "urn:uuid:04920cde-7657-42bd-80bf-9769d368fdc1"
        }
      }, {
        "item": {
          "reference": "urn:uuid:56708275-7df7-43dd-96ae-03e38b00b4b8"
        }
      }, {
        "item": {
          "reference": "urn:uuid:68c7e20f-612b-47ef-b565-6a4fb8f82679"
        }
      }, {
        "item": {
          "reference": "urn:uuid:88efb91d-e34f-4d5c-b5fc-f54f0a2593f9"
        }
      }, {
        "item": {
          "reference": "urn:uuid:3d283ee7-5413-4b2e-b914-0dbf31245c36"
        }
      }, {
        "item": {
          "reference": "urn:uuid:7dae1905-f46e-4047-95b5-4770b50c440f"
        }
      }, {
        "item": {
          "reference": "urn:uuid:46912bd3-b575-48d2-99fb-d4b2f358a98e"
        }
      }, {
        "item": {
          "reference": "urn:uuid:c0f3a5d5-cab5-410f-89fc-4fc79130eec1"
        }
      }, {
        "item": {
          "reference": "urn:uuid:c62bdd12-aa16-44ac-bbcc-0cfdc5e490c2"
        }
      }, {
        "item": {
          "reference": "urn:uuid:9cefbb90-bb37-41e0-b7ce-88d5794fabe3"
        }
      }, {
        "item": {
          "reference": "urn:uuid:972384e8-fc67-4aff-abff-081ba17640f9"
        }
      }, {
        "item": {
          "reference": "urn:uuid:bd980066-d916-4d8c-964b-5cbc6dd6900e"
        }
      }, {
        "item": {
          "reference": "urn:uuid:5b5ee8b1-05cd-4c09-83d3-4134c9b06367"
        }
      }, {
        "item": {
          "reference": "urn:uuid:ba122400-6615-4126-accf-4ba7001516d3"
        }
      }, {
        "item": {
          "reference": "urn:uuid:790e7e0e-f2bd-42f1-b60b-6e8c36876b67"
        }
      }, {
        "item": {
          "reference": "urn:uuid:f23882fa-0945-4a89-b70d-5e4d16185f17"
        }
      }, {
        "item": {
          "reference": "urn:uuid:58c73e93-8623-4759-8943-46cbc3747957"
        }
      }, {
        "item": {
          "reference": "urn:uuid:d8647a85-b75b-41b8-a009-5e6a2ea40d1a"
        }
      }, {
        "item": {
          "reference": "urn:uuid:1d2a2ce4-2b71-409b-9bca-01ee92a613c2"
        }
      }, {
        "item": {
          "reference": "urn:uuid:0267ef13-f404-4b2e-a15f-51fb777e333c"
        }
      }, {
        "item": {
          "reference": "urn:uuid:7cfe0562-7771-47bb-8141-ae2be496ebdc"
        }
      }, {
        "item": {
          "reference": "urn:uuid:64d336e0-9977-4e5e-846b-9edeba78cc28"
        }
      }, {
        "item": {
          "reference": "urn:uuid:03f34735-411c-451d-83f9-fe6500798a0e"
        }
      }, {
        "item": {
          "reference": "urn:uuid:217471bf-fec9-4b79-8f47-28fe16a397da"
        }
      }, {
        "item": {
          "reference": "urn:uuid:8d8c1c13-856d-497e-8e46-ee60ac719dd6"
        }
      }, {
        "item": {
          "reference": "urn:uuid:f2ba50a3-64fe-4559-8d68-5ccd05d5cfbe"
        }
      }, {
        "item": {
          "reference": "urn:uuid:6c7252bf-3063-4de8-9a00-185fdf0e6d97"
        }
      }, {
        "item": {
          "reference": "urn:uuid:b8e9b730-3123-4b30-b994-d90801c91941"
        }
      }, {
        "item": {
          "reference": "urn:uuid:3055d776-267e-4678-8179-0f97446f2171"
        }
      }, {
        "item": {
          "reference": "urn:uuid:53042ac0-f42b-4a8b-b010-b6a0b8ad0aa3"
        }
      }, {
        "item": {
          "reference": "urn:uuid:8c7aa681-f9ba-426e-a940-568dad1caeae"
        }
      }, {
        "item": {
          "reference": "urn:uuid:e2804dd7-941f-4a13-96e9-d36b69789102"
        }
      }, {
        "item": {
          "reference": "urn:uuid:c0fb59c0-a8d0-4aa1-8ea5-713f2e9a37c0"
        }
      }, {
        "item": {
          "reference": "urn:uuid:01efbf30-2d10-4b41-a69e-582f6658a49d"
        }
      }, {
        "item": {
          "reference": "urn:uuid:87ac088e-db21-4de7-9d27-3e012da577a0"
        }
      }, {
        "item": {
          "reference": "urn:uuid:0aa4cf0b-d51b-40e8-a14a-c8055c5d3f6b"
        }
      }, {
        "item": {
          "reference": "urn:uuid:b4f7f079-786a-42fd-a200-7824f8bda5f0"
        }
      }, {
        "item": {
          "reference": "urn:uuid:c3736e84-b059-46cf-92e8-af62ce87b477"
        }
      }, {
        "item": {
          "reference": "urn:uuid:8527eec3-26de-4b28-9f4a-df1e8506441e"
        }
      }, {
        "item": {
          "reference": "urn:uuid:9184fd5a-dd7d-42e3-a0c4-236aeae48d85"
        }
      }, {
        "item": {
          "reference": "urn:uuid:2048c807-2078-43cb-b712-a0a5a819a557"
        }
      }, {
        "item": {
          "reference": "urn:uuid:1a936011-2de8-4791-9f0c-55bfebc8514b"
        }
      }, {
        "item": {
          "reference": "urn:uuid:401d4dd8-0750-4189-8c92-e5c64569c980"
        }
      }, {
        "item": {
          "reference": "urn:uuid:4950e5b6-142b-4124-b769-c6a33ddc8ac0"
        }
      }, {
        "item": {
          "reference": "urn:uuid:a50493e6-7e0d-4ebb-8719-9b6f106c5e5e"
        }
      }, {
        "item": {
          "reference": "urn:uuid:a1ef13cb-6a8d-4f91-861e-ad9c69d1ed03"
        }
      }, {
        "item": {
          "reference": "urn:uuid:2064c2d0-f9c0-475f-bb00-a8cddd0e8d65"
        }
      }, {
        "item": {
          "reference": "urn:uuid:345549af-5cdd-4f14-a878-2c9f32edafab"
        }
      }, {
        "item": {
          "reference": "urn:uuid:2dc02be3-79d6-4f74-b3f8-093623466fc2"
        }
      }, {
        "item": {
          "reference": "urn:uuid:e87aaf41-ffee-41f3-97d8-32089227ea53"
        }
      } ]
    }
  } ]
}