{
  "resourceType": "Bundle",
  "identifier": {
    "type": {
      "text": "ClinicalDocument VersionNumber"
    },
    "value": "1"
  },
  "type": "message",
  "entry": [ {
    "fullUrl": "urn:uuid:B447241A-CEBD-41DF-AC62-46FE8022876F",
    "resource": {
      "resourceType": "MessageHeader",
      "id": "B447241A-CEBD-41DF-AC62-46FE8022876F",
      "event": {
        "system": "https://fhir.nhs.uk/STU3/CodeSystem/EventType-1",
        "code": "referral-1",
        "display": "Referral"
      },
      "destination": [ {
        "endpoint": "urn:nhs-uk:addressing:ods:Y02837001:DOSServiceID:1340268940"
      } ],
      "timestamp": "2021-08-03T13:04:53.000+00:00",
      "source": {
        "name": "NHS 111 Adaptor",
        "endpoint": "http://localhost:8080/report"
      },
      "reason": {
        "coding": [ {
          "system": "urn:nhs-itk:ns:201005:interaction",
          "code": "urn:nhs-itk:interaction:primaryOutofHourRecipientNHS111CDADocument-v2-0"
        } ]
      }
    }
  }, {
    "fullUrl": "urn:uuid:4c4f3a38-d0aa-4bf4-bd26-c0e676c0b22f",
    "resource": {
      "resourceType": "Encounter",
      "id": "4c4f3a38-d0aa-4bf4-bd26-c0e676c0b22f",
      "identifier": [ {
        "system": "2.16.840.1.113883.2.1.3.2.4.18.49",
        "value": "0163118D-0756-4A98-8F34-458721C6481F"
      }, {
        "system": "2.16.840.1.113883.2.1.3.2.4.18.34",
        "value": "1766749"
      }, {
        "system": "2.16.840.1.113883.2.1.3.2.4.18.35",
        "value": "1766749"
      } ],
      "status": "finished",
      "type": [ {
        "text": "111 Encounter Referral"
      } ],
      "subject": {
        "reference": "urn:uuid:9a631728-a4f9-4cdf-81d4-efcd24475c46"
      },
      "participant": [ {
        "type": [ {
          "coding": [ {
            "system": "http://hl7.org/fhir/ValueSet/encounter-participant-type",
            "code": "PPRF",
            "display": "Author"
          } ]
        } ],
        "individual": {
          "reference": "urn:uuid:c0ffa730-380c-4cef-a11e-d73191feb4be"
        }
      } ],
      "period": {
        "start": "2021-08-03T13:04:53+00:00"
      },
      "location": [ {
        "location": {
          "reference": "urn:uuid:b7ceef37-08f4-4ce9-8148-fb5147f8b5bd"
        },
        "status": "completed"
      } ],
      "serviceProvider": {
        "reference": "urn:uuid:66d2ec83-fd74-4dc5-9e8f-ce1fcc175b4b"
      }
    }
  }, {
    "fullUrl": "urn:uuid:66d2ec83-fd74-4dc5-9e8f-ce1fcc175b4b",
    "resource": {
      "resourceType": "Organization",
      "id": "66d2ec83-fd74-4dc5-9e8f-ce1fcc175b4b",
      "active": true,
      "type": [ {
        "text": "CST"
      } ],
      "name": "NWAS 111"
    }
  }, {
    "fullUrl": "urn:uuid:c0ffa730-380c-4cef-a11e-d73191feb4be",
    "resource": {
      "resourceType": "Practitioner",
      "id": "c0ffa730-380c-4cef-a11e-d73191feb4be",
      "active": true,
      "name": [ {
        "text": "AndrewJ.Walford"
      } ]
    }
  }, {
    "fullUrl": "urn:uuid:b7ceef37-08f4-4ce9-8148-fb5147f8b5bd",
    "resource": {
      "resourceType": "Location",
      "id": "b7ceef37-08f4-4ce9-8148-fb5147f8b5bd",
      "address": {
        "type": "physical",
        "line": [ "Fleetwood Health & Wellbeing Centre", "Dock Street", "Fleetwood" ],
        "postalCode": "FY7 6HP"
      }
    }
  }, {
    "fullUrl": "urn:uuid:9a631728-a4f9-4cdf-81d4-efcd24475c46",
    "resource": {
      "resourceType": "Patient",
      "id": "9a631728-a4f9-4cdf-81d4-efcd24475c46",
      "active": true,
      "name": [ {
        "use": "official",
        "family": "Please Disregard",
        "given": [ "Dx10 Test" ]
      } ],
      "telecom": [ {
        "system": "phone",
        "value": "tel:07798501130",
        "use": "mobile"
      }, {
        "system": "phone",
        "value": "tel:07798501130"
      } ],
      "gender": "male",
      "birthDate": "1980-01-01",
      "address": [ {
        "use": "home",
        "line": [ "Fleetwood Health & Wellbeing Centre", "Dock Street", "Fleetwood" ],
        "postalCode": "FY7 6HP"
      }, {
        "type": "physical",
        "line": [ "Fleetwood Health & Wellbeing Centre", "Dock Street", "Fleetwood" ],
        "postalCode": "FY7 6HP"
      } ]
    }
  }, {
    "fullUrl": "urn:uuid:7e5db7ea-1748-4925-ab12-7e7c81d02c61",
    "resource": {
      "resourceType": "HealthcareService",
      "id": "7e5db7ea-1748-4925-ab12-7e7c81d02c61",
      "active": true,
      "providedBy": {
        "reference": "urn:uuid:75d490a0-8b26-465a-9ad9-068a8d0f84ce"
      },
      "location": [ {
        "reference": "urn:uuid:86611924-c4f5-4ef4-b5ea-a222f34da65a"
      } ],
      "name": "Urgent Treatment Centre - Minor Injury Unit Same Day Health Cent",
      "telecom": [ {
        "system": "phone",
        "value": "tel:03001231144NP:01253955551",
        "use": "work"
      } ]
    }
  }, {
    "fullUrl": "urn:uuid:86611924-c4f5-4ef4-b5ea-a222f34da65a",
    "resource": {
      "resourceType": "Location",
      "id": "86611924-c4f5-4ef4-b5ea-a222f34da65a",
      "telecom": [ {
        "system": "phone",
        "value": "tel:03001231144NP:01253955551",
        "use": "work"
      } ],
      "address": {
        "use": "work",
        "line": [ "x", "x", "x" ],
        "postalCode": "FY7 6HP"
      },
      "managingOrganization": {
        "reference": "urn:uuid:75d490a0-8b26-465a-9ad9-068a8d0f84ce"
      }
    }
  }, {
    "fullUrl": "urn:uuid:75d490a0-8b26-465a-9ad9-068a8d0f84ce",
    "resource": {
      "resourceType": "Organization",
      "id": "75d490a0-8b26-465a-9ad9-068a8d0f84ce",
      "identifier": [ {
        "value": "Y02837001"
      } ],
      "type": [ {
        "coding": [ {
          "code": "PRCP",
          "display": "Urgent Treatment Centre - Minor Injury Unit Same Day Health Cent"
        } ]
      } ],
      "name": "Urgent Treatment Centre - Minor Injury Unit Same Day Health Cent"
    }
  }, {
    "fullUrl": "urn:uuid:6318cbbb-e4a1-4b1a-9166-cc964d75578c",
    "resource": {
      "resourceType": "ReferralRequest",
      "id": "6318cbbb-e4a1-4b1a-9166-cc964d75578c",
      "status": "active",
      "intent": "plan",
      "priority": "routine",
      "subject": {
        "reference": "urn:uuid:9a631728-a4f9-4cdf-81d4-efcd24475c46"
      },
      "context": {
        "reference": "urn:uuid:4c4f3a38-d0aa-4bf4-bd26-c0e676c0b22f"
      },
      "occurrencePeriod": {
        "start": "2022-04-07T07:52:14+00:00",
        "end": "2022-04-07T08:52:14+00:00"
      },
      "authoredOn": "2021-08-03T12:35:22+00:00",
      "requester": {
        "agent": {
          "reference": "urn:uuid:36a0047f-4c4c-40ed-b3e1-374df11d633a"
        },
        "onBehalfOf": {
          "reference": "urn:uuid:66d2ec83-fd74-4dc5-9e8f-ce1fcc175b4b"
        }
      },
      "recipient": [ {
        "reference": "urn:uuid:9ba45c0f-48b1-4dd4-9478-14bf038f36ab"
      }, {
        "reference": "urn:uuid:7e5db7ea-1748-4925-ab12-7e7c81d02c61"
      } ],
      "reasonReference": [ {
        "reference": "urn:uuid:41a1efbb-7ab5-421c-a98d-c2934c56d059"
      } ],
      "supportingInfo": [ {
        "reference": "urn:uuid:7d229174-68b3-47b5-b25b-b14f3fb3c124"
      } ]
    }
  }, {
    "fullUrl": "urn:uuid:7d229174-68b3-47b5-b25b-b14f3fb3c124",
    "resource": {
      "resourceType": "ProcedureRequest",
      "id": "7d229174-68b3-47b5-b25b-b14f3fb3c124",
      "status": "active",
      "intent": "plan",
      "priority": "routine",
      "doNotPerform": false,
      "code": {
        "coding": [ {
          "system": "2.16.840.1.113883.2.1.3.2.4.17.325",
          "code": "Dx10",
          "display": "Must Contact A Local Service For A Non-urgent Appointment"
        } ]
      },
      "subject": {
        "reference": "urn:uuid:9a631728-a4f9-4cdf-81d4-efcd24475c46"
      },
      "occurrencePeriod": {
        "start": "2022-04-07T07:52:14+00:00",
        "end": "2022-04-07T08:52:14+00:00"
      },
      "reasonReference": [ {
        "reference": "urn:uuid:41a1efbb-7ab5-421c-a98d-c2934c56d059"
      } ]
    }
  }, {
    "fullUrl": "urn:uuid:9ba45c0f-48b1-4dd4-9478-14bf038f36ab",
    "resource": {
      "resourceType": "Practitioner",
      "id": "9ba45c0f-48b1-4dd4-9478-14bf038f36ab",
      "active": true,
      "telecom": [ {
        "system": "phone",
        "value": "tel:03001231144NP:01253955551",
        "use": "work"
      } ],
      "address": [ {
        "type": "physical",
        "line": [ "x", "x", "x" ],
        "postalCode": "FY7 6HP"
      } ]
    }
  }, {
    "fullUrl": "urn:uuid:13763124-3bed-4edf-a842-e76f7a7c482e",
    "resource": {
      "resourceType": "Composition",
      "id": "13763124-3bed-4edf-a842-e76f7a7c482e",
      "identifier": {
        "use": "usual",
        "value": "DEF337D1-08BF-4631-B11E-28F64349A031"
      },
      "status": "final",
      "type": {
        "coding": [ {
          "system": "http://snomed.info/sct",
          "code": "371531000",
          "display": "Report of clinical encounter (record artifact)"
        } ]
      },
      "subject": {
        "reference": "urn:uuid:9a631728-a4f9-4cdf-81d4-efcd24475c46"
      },
      "encounter": {
        "reference": "urn:uuid:4c4f3a38-d0aa-4bf4-bd26-c0e676c0b22f"
      },
      "date": "2022-04-07T07:52:14+00:00",
      "author": [ {
        "reference": "urn:uuid:c0ffa730-380c-4cef-a11e-d73191feb4be"
      } ],
      "title": "111 Report",
      "confidentiality": "N",
      "section": [ {
        "section": [ {
          "title": "Patient's Reported Condition",
          "text": {
            "status": "generated",
            "div": "<div xmlns=\"http://www.w3.org/1999/xhtml\">**test From Nwas111 - No Action Required - Please Disregard Test</div>"
          }
        }, {
          "title": "Case Summary",
          "text": {
            "status": "generated",
            "div": "<div xmlns=\"http://www.w3.org/1999/xhtml\">&lt;content styleCode=&quot;bold&quot;&gt;Pathways Disposition: Dx10&lt;/content&gt;\n                                                    &lt;br/&gt;\n                                                    &lt;content&gt;Must Contact A Local Service For A Non-urgent Appointment User comment - '**Test From NWAS111 - No Action required - Please Disregard Test case**'&lt;/content&gt;\n                                                    &lt;br/&gt;\n                                                    &lt;br/&gt;\n                                                    &lt;content styleCode=&quot;bold&quot;&gt;Consultation Summary:&lt;/content&gt;\n                                                    &lt;br/&gt;\n                                                    &lt;content&gt;Illness - '**Test From NWAS111 - No Action required - Please Disregard Test case**'&lt;/content&gt;\n                                                    &lt;br/&gt;\n                                                    &lt;content&gt;Warm to touch&lt;/content&gt;\n                                                    &lt;br/&gt;\n                                                    &lt;br/&gt;\n                                                    &lt;content styleCode=&quot;bold&quot;&gt;Pathways Assessment:&lt;/content&gt;\n                                                    &lt;br/&gt;\n                                                    &lt;content&gt;An injury or health problem was the reason for the contact.&lt;/content&gt;\n                                                    &lt;br/&gt;\n                                                    &lt;content&gt;User comment - '**Test From NWAS111 - No Action required - Please Disregard Test case**'&lt;/content&gt;\n                                                    &lt;br/&gt;\n                                                    &lt;content&gt;Heavy bleeding had not occurred in the previous 2 hours.&lt;/content&gt;\n                                                    &lt;br/&gt;\n                                                    &lt;content&gt;An illness or health problem was the main problem.&lt;/content&gt;\n                                                    &lt;br/&gt;\n                                                    &lt;content&gt;User comment - '**Test From NWAS111 - No Action required - Please Disregard Test case**'&lt;/content&gt;\n                                                    &lt;br/&gt;\n                                                    &lt;content&gt;The individual was not fighting for breath.&lt;/content&gt;\n                                                    &lt;br/&gt;\n                                                    &lt;content&gt;The main reason for the assessment was not an allergic reaction, heart attack, chest/upper back pain, probable stroke, recent fit/seizure or suicide attempt.&lt;/content&gt;\n                                                    &lt;br/&gt;\n                                                    &lt;content&gt;The main reason for contact was not new confusion, declared diabetic hypo/hyperglycaemia, or ICD shock.&lt;/content&gt;\n                                                    &lt;br/&gt;\n                                                    &lt;content&gt;The skin on the torso felt normal, warm or hot.&lt;/content&gt;\n                                                    &lt;br/&gt;\n                                                    &lt;content&gt;Pathway selected - Difficulty Passing Urine&lt;/content&gt;\n                                                    &lt;br/&gt;\n                                                    &lt;content&gt;The individual was able to carry out most or all normal activities.&lt;/content&gt;\n                                                    &lt;br/&gt;\n                                                    &lt;content&gt;There was no new loss of bowel control or leg movement and no saddle or lower limb paraesthesia.&lt;/content&gt;\n                                                    &lt;br/&gt;\n                                                    &lt;content&gt;There was no inability to pass urine over the last 12 hours.&lt;/content&gt;\n                                                    &lt;br/&gt;\n                                                    &lt;content&gt;There was no new or worsening confusion.&lt;/content&gt;\n                                                    &lt;br/&gt;\n                                                    &lt;content&gt;Breathing harder or faster when doing nothing was not described.&lt;/content&gt;\n                                                    &lt;br/&gt;\n                                                    &lt;content&gt;There was no spinal pain.&lt;/content&gt;\n                                                    &lt;br/&gt;\n                                                    &lt;content&gt;The pain was not getting worse.&lt;/content&gt;\n                                                    &lt;br/&gt;\n                                                    &lt;content&gt;There was no fever at the time of assessment or within the previous 12 hours.&lt;/content&gt;\n                                                    &lt;br/&gt;\n                                                    &lt;content&gt;The individual had not experienced a back injury within the previous 4 weeks.&lt;/content&gt;\n                                                    &lt;br/&gt;\n                                                    &lt;content&gt;Medication type or dosage had not changed within the previous 2 weeks.&lt;/content&gt;\n                                                    &lt;br/&gt;\n                                                    &lt;content&gt;User comment - 'Urgent Treatment Centre - Same Day Health Centre - Fleetwood'&lt;/content&gt;\n                                                    &lt;br/&gt;\n                                                    &lt;br/&gt;\n                                                    &lt;content styleCode=&quot;bold&quot;&gt;Advice Given:&lt;/content&gt;\n                                                    &lt;br/&gt;\n                                                    &lt;content&gt;Unless advised not to, paracetamol may be used to relieve pain or fever. Follow the instructions in the pack. If in doubt ask a pharmacist.&lt;/content&gt;\n                                                    &lt;br/&gt;\n                                                    &lt;br/&gt;</div>"
          }
        } ]
      }, {
        "title": "ReferralRequest",
        "entry": [ {
          "reference": "urn:uuid:6318cbbb-e4a1-4b1a-9166-cc964d75578c"
        } ]
      }, {
        "title": "QuestionnaireResponse",
        "entry": [ {
          "reference": "urn:uuid:066cd301-d559-4c82-ab9a-983130cebadb"
        } ]
      }, {
        "title": "QuestionnaireResponse",
        "entry": [ {
          "reference": "urn:uuid:0ee8cc59-974c-480e-b4f0-7c2ec04c6a52"
        } ]
      }, {
        "title": "QuestionnaireResponse",
        "entry": [ {
          "reference": "urn:uuid:ece4ee3b-f568-4f8e-a652-c502ad0b3943"
        } ]
      }, {
        "title": "QuestionnaireResponse",
        "entry": [ {
          "reference": "urn:uuid:d441f206-b03a-4169-a436-edea279e7042"
        } ]
      }, {
        "title": "QuestionnaireResponse",
        "entry": [ {
          "reference": "urn:uuid:181b7669-6b47-4c7a-89a9-4248a4ec5959"
        } ]
      }, {
        "title": "QuestionnaireResponse",
        "entry": [ {
          "reference": "urn:uuid:e9786787-f09d-4459-9d61-a7e46af98617"
        } ]
      }, {
        "title": "QuestionnaireResponse",
        "entry": [ {
          "reference": "urn:uuid:8297c9bc-d526-427a-ab35-73b7e74e7345"
        } ]
      }, {
        "title": "QuestionnaireResponse",
        "entry": [ {
          "reference": "urn:uuid:b1e95ebf-5cc3-401e-9543-1ffcb93d755d"
        } ]
      }, {
        "title": "QuestionnaireResponse",
        "entry": [ {
          "reference": "urn:uuid:ed34c6ca-b8d8-48e6-b382-85519295cf93"
        } ]
      }, {
        "title": "QuestionnaireResponse",
        "entry": [ {
          "reference": "urn:uuid:6273be28-c8e9-4473-a329-01a1614ccd7f"
        } ]
      }, {
        "title": "QuestionnaireResponse",
        "entry": [ {
          "reference": "urn:uuid:80b72f88-e740-4fc8-92cd-c9d3bf764f42"
        } ]
      }, {
        "title": "QuestionnaireResponse",
        "entry": [ {
          "reference": "urn:uuid:37312c9f-e83f-43d3-88b2-8ae5940eddba"
        } ]
      }, {
        "title": "QuestionnaireResponse",
        "entry": [ {
          "reference": "urn:uuid:ded2607e-0188-4a5b-8409-3159a7d98887"
        } ]
      }, {
        "title": "QuestionnaireResponse",
        "entry": [ {
          "reference": "urn:uuid:acf64e2a-082e-41fb-a92c-ff0df6b79196"
        } ]
      }, {
        "title": "QuestionnaireResponse",
        "entry": [ {
          "reference": "urn:uuid:bb91be02-1366-4a9d-9429-d2fd28415c5d"
        } ]
      }, {
        "title": "QuestionnaireResponse",
        "entry": [ {
          "reference": "urn:uuid:60323a70-6a5e-4f6b-8fc6-1bcd31a5ba9a"
        } ]
      }, {
        "title": "QuestionnaireResponse",
        "entry": [ {
          "reference": "urn:uuid:de8d08b6-0cfc-4325-9f8b-209de37fd5d0"
        } ]
      }, {
        "title": "QuestionnaireResponse",
        "entry": [ {
          "reference": "urn:uuid:8fc6d4f1-2437-45ad-9bc6-202214109010"
        } ]
      }, {
        "title": "QuestionnaireResponse",
        "entry": [ {
          "reference": "urn:uuid:5a9ad636-8588-49fd-99cd-ee1a799d6ce9"
        } ]
      }, {
        "title": "QuestionnaireResponse",
        "entry": [ {
          "reference": "urn:uuid:8debf6bb-0abe-424a-a95f-dad355df4bb2"
        } ]
      }, {
        "title": "QuestionnaireResponse",
        "entry": [ {
          "reference": "urn:uuid:986c29b2-10c8-4c30-919c-6325bcb4cb3f"
        } ]
      }, {
        "title": "QuestionnaireResponse",
        "entry": [ {
          "reference": "urn:uuid:394c27c2-449a-40fd-8a58-faaf4028deac"
        } ]
      }, {
        "title": "QuestionnaireResponse",
        "entry": [ {
          "reference": "urn:uuid:54a0bb58-a8cf-47de-9cbd-da4ce4740961"
        } ]
      }, {
        "title": "QuestionnaireResponse",
        "entry": [ {
          "reference": "urn:uuid:c0a99f4b-20c3-41b4-84e8-a5276766c889"
        } ]
      }, {
        "title": "QuestionnaireResponse",
        "entry": [ {
          "reference": "urn:uuid:68a0e9c5-2a7b-4368-aa36-9e5a8733bd1b"
        } ]
      }, {
        "title": "QuestionnaireResponse",
        "entry": [ {
          "reference": "urn:uuid:a41dd427-39b0-4742-82ca-4af089cdc232"
        } ]
      }, {
        "title": "QuestionnaireResponse",
        "entry": [ {
          "reference": "urn:uuid:44c10fc9-1385-422e-9bf7-9fb9d9ef96bb"
        } ]
      }, {
        "title": "QuestionnaireResponse",
        "entry": [ {
          "reference": "urn:uuid:b96ff6d7-23de-405b-9e64-6e3c318e31c1"
        } ]
      }, {
        "title": "QuestionnaireResponse",
        "entry": [ {
          "reference": "urn:uuid:5ae672d6-9495-4061-8562-1f41c59047bb"
        } ]
      }, {
        "title": "QuestionnaireResponse",
        "entry": [ {
          "reference": "urn:uuid:89006da4-fb4a-4c26-bdc7-18b6aa576934"
        } ]
      }, {
        "title": "QuestionnaireResponse",
        "entry": [ {
          "reference": "urn:uuid:c021d0e0-e9a9-4bca-ba6c-795043a4251c"
        } ]
      }, {
        "title": "QuestionnaireResponse",
        "entry": [ {
          "reference": "urn:uuid:6c581b78-fb9c-4bfc-ba51-78acec99d3e3"
        } ]
      } ]
    }
  }, {
    "fullUrl": "urn:uuid:2c6005d0-1ee9-41cd-a5d3-0b30c92c8312",
    "resource": {
      "resourceType": "Consent",
      "id": "2c6005d0-1ee9-41cd-a5d3-0b30c92c8312",
      "identifier": {
        "use": "usual",
        "value": "DEF337D1-08BF-4631-B11E-28F64349A031"
      },
      "status": "active",
      "patient": {
        "reference": "urn:uuid:9a631728-a4f9-4cdf-81d4-efcd24475c46"
      },
      "period": {
        "start": "2021-08-03T13:04:53+00:00"
      },
      "consentingParty": [ {
        "reference": "urn:uuid:9a631728-a4f9-4cdf-81d4-efcd24475c46"
      } ],
      "action": [ {
        "coding": [ {
          "system": "http://snomed.info/sct",
          "code": "425691002",
          "display": "Consent given for electronic record sharing"
        } ],
        "text": "Consent given for electronic record sharing"
      } ],
      "organization": [ {
        "reference": "urn:uuid:66d2ec83-fd74-4dc5-9e8f-ce1fcc175b4b"
      } ],
      "policyRule": "http://hl7.org/fhir/ConsentPolicy/opt-out",
      "data": [ {
        "meaning": "related",
        "reference": {
          "reference": "urn:uuid:4c4f3a38-d0aa-4bf4-bd26-c0e676c0b22f"
        }
      } ]
    }
  }, {
    "fullUrl": "urn:uuid:41a1efbb-7ab5-421c-a98d-c2934c56d059",
    "resource": {
      "resourceType": "Condition",
      "id": "41a1efbb-7ab5-421c-a98d-c2934c56d059",
      "clinicalStatus": "active",
      "verificationStatus": "unknown",
      "subject": {
        "reference": "urn:uuid:9a631728-a4f9-4cdf-81d4-efcd24475c46"
      },
      "context": {
        "reference": "urn:uuid:4c4f3a38-d0aa-4bf4-bd26-c0e676c0b22f"
      },
      "evidence": [ {
        "detail": [ {
          "reference": "urn:uuid:066cd301-d559-4c82-ab9a-983130cebadb"
        } ]
      }, {
        "detail": [ {
          "reference": "urn:uuid:0ee8cc59-974c-480e-b4f0-7c2ec04c6a52"
        } ]
      }, {
        "detail": [ {
          "reference": "urn:uuid:ece4ee3b-f568-4f8e-a652-c502ad0b3943"
        } ]
      }, {
        "detail": [ {
          "reference": "urn:uuid:d441f206-b03a-4169-a436-edea279e7042"
        } ]
      }, {
        "detail": [ {
          "reference": "urn:uuid:181b7669-6b47-4c7a-89a9-4248a4ec5959"
        } ]
      }, {
        "detail": [ {
          "reference": "urn:uuid:e9786787-f09d-4459-9d61-a7e46af98617"
        } ]
      }, {
        "detail": [ {
          "reference": "urn:uuid:8297c9bc-d526-427a-ab35-73b7e74e7345"
        } ]
      }, {
        "detail": [ {
          "reference": "urn:uuid:b1e95ebf-5cc3-401e-9543-1ffcb93d755d"
        } ]
      }, {
        "detail": [ {
          "reference": "urn:uuid:ed34c6ca-b8d8-48e6-b382-85519295cf93"
        } ]
      }, {
        "detail": [ {
          "reference": "urn:uuid:6273be28-c8e9-4473-a329-01a1614ccd7f"
        } ]
      }, {
        "detail": [ {
          "reference": "urn:uuid:80b72f88-e740-4fc8-92cd-c9d3bf764f42"
        } ]
      }, {
        "detail": [ {
          "reference": "urn:uuid:37312c9f-e83f-43d3-88b2-8ae5940eddba"
        } ]
      }, {
        "detail": [ {
          "reference": "urn:uuid:ded2607e-0188-4a5b-8409-3159a7d98887"
        } ]
      }, {
        "detail": [ {
          "reference": "urn:uuid:acf64e2a-082e-41fb-a92c-ff0df6b79196"
        } ]
      }, {
        "detail": [ {
          "reference": "urn:uuid:bb91be02-1366-4a9d-9429-d2fd28415c5d"
        } ]
      }, {
        "detail": [ {
          "reference": "urn:uuid:60323a70-6a5e-4f6b-8fc6-1bcd31a5ba9a"
        } ]
      }, {
        "detail": [ {
          "reference": "urn:uuid:de8d08b6-0cfc-4325-9f8b-209de37fd5d0"
        } ]
      }, {
        "detail": [ {
          "reference": "urn:uuid:8fc6d4f1-2437-45ad-9bc6-202214109010"
        } ]
      }, {
        "detail": [ {
          "reference": "urn:uuid:5a9ad636-8588-49fd-99cd-ee1a799d6ce9"
        } ]
      }, {
        "detail": [ {
          "reference": "urn:uuid:8debf6bb-0abe-424a-a95f-dad355df4bb2"
        } ]
      }, {
        "detail": [ {
          "reference": "urn:uuid:986c29b2-10c8-4c30-919c-6325bcb4cb3f"
        } ]
      }, {
        "detail": [ {
          "reference": "urn:uuid:394c27c2-449a-40fd-8a58-faaf4028deac"
        } ]
      }, {
        "detail": [ {
          "reference": "urn:uuid:54a0bb58-a8cf-47de-9cbd-da4ce4740961"
        } ]
      }, {
        "detail": [ {
          "reference": "urn:uuid:c0a99f4b-20c3-41b4-84e8-a5276766c889"
        } ]
      }, {
        "detail": [ {
          "reference": "urn:uuid:68a0e9c5-2a7b-4368-aa36-9e5a8733bd1b"
        } ]
      }, {
        "detail": [ {
          "reference": "urn:uuid:a41dd427-39b0-4742-82ca-4af089cdc232"
        } ]
      }, {
        "detail": [ {
          "reference": "urn:uuid:44c10fc9-1385-422e-9bf7-9fb9d9ef96bb"
        } ]
      }, {
        "detail": [ {
          "reference": "urn:uuid:b96ff6d7-23de-405b-9e64-6e3c318e31c1"
        } ]
      }, {
        "detail": [ {
          "reference": "urn:uuid:5ae672d6-9495-4061-8562-1f41c59047bb"
        } ]
      }, {
        "detail": [ {
          "reference": "urn:uuid:89006da4-fb4a-4c26-bdc7-18b6aa576934"
        } ]
      }, {
        "detail": [ {
          "reference": "urn:uuid:c021d0e0-e9a9-4bca-ba6c-795043a4251c"
        } ]
      }, {
        "detail": [ {
          "reference": "urn:uuid:6c581b78-fb9c-4bfc-ba51-78acec99d3e3"
        } ]
      } ]
    }
  }, {
    "fullUrl": "urn:uuid:066cd301-d559-4c82-ab9a-983130cebadb",
    "resource": {
      "resourceType": "QuestionnaireResponse",
      "id": "066cd301-d559-4c82-ab9a-983130cebadb",
      "identifier": {
        "value": "1766749"
      },
      "questionnaire": {
        "reference": "urn:uuid:ba3e6baa-6312-4373-b1fd-463d87c411c0"
      },
      "status": "completed",
      "subject": {
        "reference": "urn:uuid:9a631728-a4f9-4cdf-81d4-efcd24475c46"
      },
      "context": {
        "reference": "urn:uuid:4c4f3a38-d0aa-4bf4-bd26-c0e676c0b22f"
      },
      "authored": "2021-08-03T13:04:53+00:00",
      "item": [ {
        "linkId": "Tx220109",
        "text": "What is the reason for the contact?",
        "answer": [ {
          "valueString": "an injury or other health problem"
        } ]
      } ]
    }
  }, {
    "fullUrl": "urn:uuid:ba3e6baa-6312-4373-b1fd-463d87c411c0",
    "resource": {
      "resourceType": "Questionnaire",
      "id": "ba3e6baa-6312-4373-b1fd-463d87c411c0",
      "identifier": [ {
        "value": "1766749"
      } ],
      "version": "2021-08-03T13:04:53.000Z",
      "status": "active",
      "experimental": false,
      "date": "2021-08-03T13:04:53+00:00",
      "publisher": "User ID: '922' User name: 'AndrewJ.Walford' User skill set: 'T4'",
      "lastReviewDate": "2021-08-03",
      "contact": [ {
        "telecom": [ {
          "system": "phone",
          "value": "07798501130"
        } ]
      } ],
      "subjectType": [ "Patient" ],
      "item": [ {
        "linkId": "1766749",
        "prefix": "5",
        "text": "What is the reason for the contact?",
        "type": "choice",
        "required": true,
        "repeats": false,
        "option": [ {
          "valueString": "an injury or other health problem, Selected: true"
        }, {
          "valueString": "a need to access another healthcare service, Selected: false"
        }, {
          "valueString": "a healthcare professional requesting contact with another clinician, Selected: false"
        }, {
          "valueString": "a report of results or tests, Selected: false"
        }, {
          "valueString": "more, Selected: false"
        } ]
      } ]
    }
  }, {
    "fullUrl": "urn:uuid:0ee8cc59-974c-480e-b4f0-7c2ec04c6a52",
    "resource": {
      "resourceType": "QuestionnaireResponse",
      "id": "0ee8cc59-974c-480e-b4f0-7c2ec04c6a52",
      "identifier": {
        "value": "1766749"
      },
      "questionnaire": {
        "reference": "urn:uuid:cd1b6df3-0d27-4ebe-a477-f4982e2b65fb"
      },
      "status": "completed",
      "subject": {
        "reference": "urn:uuid:9a631728-a4f9-4cdf-81d4-efcd24475c46"
      },
      "context": {
        "reference": "urn:uuid:4c4f3a38-d0aa-4bf4-bd26-c0e676c0b22f"
      },
      "authored": "2021-08-03T13:04:53+00:00",
      "item": [ {
        "linkId": "Tx221788",
        "text": "STRING:to'ImmediateThreatsToLife(SPA/OOHversion)'-'ABC'menu",
        "answer": [ {
          "valueString": "\"\"present\"\""
        } ]
      } ]
    }
  }, {
    "fullUrl": "urn:uuid:cd1b6df3-0d27-4ebe-a477-f4982e2b65fb",
    "resource": {
      "resourceType": "Questionnaire",
      "id": "cd1b6df3-0d27-4ebe-a477-f4982e2b65fb",
      "identifier": [ {
        "value": "1766749"
      } ],
      "version": "2021-08-03T13:04:53.000Z",
      "status": "active",
      "experimental": false,
      "date": "2021-08-03T13:04:53+00:00",
      "publisher": "User ID: '922' User name: 'AndrewJ.Walford' User skill set: 'T4'",
      "lastReviewDate": "2021-08-03",
      "contact": [ {
        "telecom": [ {
          "system": "phone",
          "value": "07798501130"
        } ]
      } ],
      "subjectType": [ "Patient" ],
      "item": [ {
        "linkId": "1766749",
        "prefix": "500",
        "text": "STRING:to'ImmediateThreatsToLife(SPA/OOHversion)'-'ABC'menu",
        "type": "choice",
        "required": true,
        "repeats": false,
        "option": [ {
          "valueString": "\"\"present\"\", Selected: true"
        } ]
      } ]
    }
  }, {
    "fullUrl": "urn:uuid:ece4ee3b-f568-4f8e-a652-c502ad0b3943",
    "resource": {
      "resourceType": "QuestionnaireResponse",
      "id": "ece4ee3b-f568-4f8e-a652-c502ad0b3943",
      "identifier": {
        "value": "1766749"
      },
      "questionnaire": {
        "reference": "urn:uuid:f784a08b-e71d-487c-a7c7-fd19f9869e81"
      },
      "status": "completed",
      "subject": {
        "reference": "urn:uuid:9a631728-a4f9-4cdf-81d4-efcd24475c46"
      },
      "context": {
        "reference": "urn:uuid:4c4f3a38-d0aa-4bf4-bd26-c0e676c0b22f"
      },
      "authored": "2021-08-03T13:04:53+00:00",
      "item": [ {
        "linkId": "Tx221814",
        "text": "STRING:aninjuryorotherhealthproblemestablishedinEntryFlow",
        "answer": [ {
          "valueString": "\"\"present\"\""
        } ]
      } ]
    }
  }, {
    "fullUrl": "urn:uuid:f784a08b-e71d-487c-a7c7-fd19f9869e81",
    "resource": {
      "resourceType": "Questionnaire",
      "id": "f784a08b-e71d-487c-a7c7-fd19f9869e81",
      "identifier": [ {
        "value": "1766749"
      } ],
      "version": "2021-08-03T13:04:53.000Z",
      "status": "active",
      "experimental": false,
      "date": "2021-08-03T13:04:53+00:00",
      "publisher": "User ID: '922' User name: 'AndrewJ.Walford' User skill set: 'T4'",
      "lastReviewDate": "2021-08-03",
      "contact": [ {
        "telecom": [ {
          "system": "phone",
          "value": "07798501130"
        } ]
      } ],
      "subjectType": [ "Patient" ],
      "item": [ {
        "linkId": "1766749",
        "prefix": "0",
        "text": "STRING:aninjuryorotherhealthproblemestablishedinEntryFlow",
        "type": "choice",
        "required": true,
        "repeats": false,
        "option": [ {
          "valueString": "\"\"present\"\", Selected: true"
        } ]
      } ]
    }
  }, {
    "fullUrl": "urn:uuid:d441f206-b03a-4169-a436-edea279e7042",
    "resource": {
      "resourceType": "QuestionnaireResponse",
      "id": "d441f206-b03a-4169-a436-edea279e7042",
      "identifier": {
        "value": "1766749"
      },
      "questionnaire": {
        "reference": "urn:uuid:f1f53d3a-b7a2-41ab-9235-1b1625b7d0f0"
      },
      "status": "completed",
      "subject": {
        "reference": "urn:uuid:9a631728-a4f9-4cdf-81d4-efcd24475c46"
      },
      "context": {
        "reference": "urn:uuid:4c4f3a38-d0aa-4bf4-bd26-c0e676c0b22f"
      },
      "authored": "2021-08-03T13:04:53+00:00",
      "item": [ {
        "linkId": "Tx224120",
        "text": "Have you been bleeding RED BLOOD very heavily IN THE LAST 2 HOURS?",
        "answer": [ {
          "valueString": "no"
        } ]
      } ]
    }
  }, {
    "fullUrl": "urn:uuid:f1f53d3a-b7a2-41ab-9235-1b1625b7d0f0",
    "resource": {
      "resourceType": "Questionnaire",
      "id": "f1f53d3a-b7a2-41ab-9235-1b1625b7d0f0",
      "identifier": [ {
        "value": "1766749"
      } ],
      "version": "2021-08-03T13:04:53.000Z",
      "status": "active",
      "experimental": false,
      "date": "2021-08-03T13:04:53+00:00",
      "publisher": "User ID: '922' User name: 'AndrewJ.Walford' User skill set: 'T4'",
      "lastReviewDate": "2021-08-03",
      "contact": [ {
        "telecom": [ {
          "system": "phone",
          "value": "07798501130"
        } ]
      } ],
      "subjectType": [ "Patient" ],
      "item": [ {
        "linkId": "1766749",
        "prefix": "7000",
        "text": "Have you been bleeding RED BLOOD very heavily IN THE LAST 2 HOURS?",
        "type": "choice",
        "required": true,
        "repeats": false,
        "option": [ {
          "valueString": "yes, Selected: false"
        }, {
          "valueString": "not sure, Selected: false"
        }, {
          "valueString": "no, Selected: true"
        } ]
      } ]
    }
  }, {
    "fullUrl": "urn:uuid:181b7669-6b47-4c7a-89a9-4248a4ec5959",
    "resource": {
      "resourceType": "QuestionnaireResponse",
      "id": "181b7669-6b47-4c7a-89a9-4248a4ec5959",
      "identifier": {
        "value": "1766749"
      },
      "questionnaire": {
        "reference": "urn:uuid:7286cb2f-3055-4a78-832e-aaa5cd88a6df"
      },
      "status": "completed",
      "subject": {
        "reference": "urn:uuid:9a631728-a4f9-4cdf-81d4-efcd24475c46"
      },
      "context": {
        "reference": "urn:uuid:4c4f3a38-d0aa-4bf4-bd26-c0e676c0b22f"
      },
      "authored": "2021-08-03T13:04:53+00:00",
      "item": [ {
        "linkId": "Tx221343",
        "text": "SocialConcernsExcluded",
        "answer": [ {
          "valueString": "*"
        } ]
      } ]
    }
  }, {
    "fullUrl": "urn:uuid:7286cb2f-3055-4a78-832e-aaa5cd88a6df",
    "resource": {
      "resourceType": "Questionnaire",
      "id": "7286cb2f-3055-4a78-832e-aaa5cd88a6df",
      "identifier": [ {
        "value": "1766749"
      } ],
      "version": "2021-08-03T13:04:53.000Z",
      "status": "active",
      "experimental": false,
      "date": "2021-08-03T13:04:53+00:00",
      "publisher": "User ID: '922' User name: 'AndrewJ.Walford' User skill set: 'T4'",
      "lastReviewDate": "2021-08-03",
      "contact": [ {
        "telecom": [ {
          "system": "phone",
          "value": "07798501130"
        } ]
      } ],
      "subjectType": [ "Patient" ],
      "item": [ {
        "linkId": "1766749",
        "prefix": "2700",
        "text": "SocialConcernsExcluded",
        "type": "choice",
        "required": true,
        "repeats": false,
        "option": [ {
          "valueString": "==\"\"present\"\", Selected: false"
        }, {
          "valueString": "*, Selected: true"
        } ]
      } ]
    }
  }, {
    "fullUrl": "urn:uuid:e9786787-f09d-4459-9d61-a7e46af98617",
    "resource": {
      "resourceType": "QuestionnaireResponse",
      "id": "e9786787-f09d-4459-9d61-a7e46af98617",
      "identifier": {
        "value": "1766749"
      },
      "questionnaire": {
        "reference": "urn:uuid:b8e9af17-814b-484c-93f1-ca11f871aa01"
      },
      "status": "completed",
      "subject": {
        "reference": "urn:uuid:9a631728-a4f9-4cdf-81d4-efcd24475c46"
      },
      "context": {
        "reference": "urn:uuid:4c4f3a38-d0aa-4bf4-bd26-c0e676c0b22f"
      },
      "authored": "2021-08-03T13:04:53+00:00",
      "item": [ {
        "linkId": "Tx130011",
        "text": "What is the main problem?",
        "answer": [ {
          "valueString": "illness or other health problem (specify)"
        } ]
      } ]
    }
  }, {
    "fullUrl": "urn:uuid:b8e9af17-814b-484c-93f1-ca11f871aa01",
    "resource": {
      "resourceType": "Questionnaire",
      "id": "b8e9af17-814b-484c-93f1-ca11f871aa01",
      "identifier": [ {
        "value": "1766749"
      } ],
      "version": "2021-08-03T13:04:53.000Z",
      "status": "active",
      "experimental": false,
      "date": "2021-08-03T13:04:53+00:00",
      "publisher": "User ID: '922' User name: 'AndrewJ.Walford' User skill set: 'T4'",
      "lastReviewDate": "2021-08-03",
      "contact": [ {
        "telecom": [ {
          "system": "phone",
          "value": "07798501130"
        } ]
      } ],
      "subjectType": [ "Patient" ],
      "item": [ {
        "linkId": "1766749",
        "prefix": "3400",
        "text": "What is the main problem?",
        "type": "choice",
        "required": true,
        "repeats": false,
        "option": [ {
          "valueString": "the individual has been told to follow a particular course of action (specify), Selected: false"
        }, {
          "valueString": "the individual is an identified frequent caller, Selected: false"
        }, {
          "valueString": "injury (specify), Selected: false"
        }, {
          "valueString": "illness or other health problem (specify), Selected: true"
        }, {
          "valueString": "child protection/vulnerable adult concern, Selected: false"
        }, {
          "valueString": "social or domestic emergency, Selected: false"
        }, {
          "valueString": "the environment potentially poses an immediate threat to life (specify), Selected: false"
        } ]
      } ]
    }
  }, {
    "fullUrl": "urn:uuid:8297c9bc-d526-427a-ab35-73b7e74e7345",
    "resource": {
      "resourceType": "QuestionnaireResponse",
      "id": "8297c9bc-d526-427a-ab35-73b7e74e7345",
      "identifier": {
        "value": "1766749"
      },
      "questionnaire": {
        "reference": "urn:uuid:fab47b2c-1630-4b99-ab58-cdded4ccffb5"
      },
      "status": "completed",
      "subject": {
        "reference": "urn:uuid:9a631728-a4f9-4cdf-81d4-efcd24475c46"
      },
      "context": {
        "reference": "urn:uuid:4c4f3a38-d0aa-4bf4-bd26-c0e676c0b22f"
      },
      "authored": "2021-08-03T13:04:53+00:00",
      "item": [ {
        "linkId": "Tx61025",
        "text": "Are you so breathless that speaking more than a few words is impossible?",
        "answer": [ {
          "valueString": "no"
        } ]
      } ]
    }
  }, {
    "fullUrl": "urn:uuid:fab47b2c-1630-4b99-ab58-cdded4ccffb5",
    "resource": {
      "resourceType": "Questionnaire",
      "id": "fab47b2c-1630-4b99-ab58-cdded4ccffb5",
      "identifier": [ {
        "value": "1766749"
      } ],
      "version": "2021-08-03T13:04:53.000Z",
      "status": "active",
      "experimental": false,
      "date": "2021-08-03T13:04:53+00:00",
      "publisher": "User ID: '922' User name: 'AndrewJ.Walford' User skill set: 'T4'",
      "lastReviewDate": "2021-08-03",
      "contact": [ {
        "telecom": [ {
          "system": "phone",
          "value": "07798501130"
        } ]
      } ],
      "subjectType": [ "Patient" ],
      "item": [ {
        "linkId": "1766749",
        "prefix": "0",
        "text": "Are you so breathless that speaking more than a few words is impossible?",
        "type": "choice",
        "required": true,
        "repeats": false,
        "option": [ {
          "valueString": "yes, Selected: false"
        }, {
          "valueString": "not sure, Selected: false"
        }, {
          "valueString": "no, Selected: true"
        } ]
      } ]
    }
  }, {
    "fullUrl": "urn:uuid:b1e95ebf-5cc3-401e-9543-1ffcb93d755d",
    "resource": {
      "resourceType": "QuestionnaireResponse",
      "id": "b1e95ebf-5cc3-401e-9543-1ffcb93d755d",
      "identifier": {
        "value": "1766749"
      },
      "questionnaire": {
        "reference": "urn:uuid:680e920b-b6aa-4cc4-ae14-1a25c26d0eb2"
      },
      "status": "completed",
      "subject": {
        "reference": "urn:uuid:9a631728-a4f9-4cdf-81d4-efcd24475c46"
      },
      "context": {
        "reference": "urn:uuid:4c4f3a38-d0aa-4bf4-bd26-c0e676c0b22f"
      },
      "authored": "2021-08-03T13:04:53+00:00",
      "item": [ {
        "linkId": "Tx220845",
        "text": "SYSTEM_FLUPANDEMIC",
        "answer": [ {
          "valueString": "*"
        } ]
      } ]
    }
  }, {
    "fullUrl": "urn:uuid:680e920b-b6aa-4cc4-ae14-1a25c26d0eb2",
    "resource": {
      "resourceType": "Questionnaire",
      "id": "680e920b-b6aa-4cc4-ae14-1a25c26d0eb2",
      "identifier": [ {
        "value": "1766749"
      } ],
      "version": "2021-08-03T13:04:53.000Z",
      "status": "active",
      "experimental": false,
      "date": "2021-08-03T13:04:53+00:00",
      "publisher": "User ID: '922' User name: 'AndrewJ.Walford' User skill set: 'T4'",
      "lastReviewDate": "2021-08-03",
      "contact": [ {
        "telecom": [ {
          "system": "phone",
          "value": "07798501130"
        } ]
      } ],
      "subjectType": [ "Patient" ],
      "item": [ {
        "linkId": "1766749",
        "prefix": "100",
        "text": "SYSTEM_FLUPANDEMIC",
        "type": "choice",
        "required": true,
        "repeats": false,
        "option": [ {
          "valueString": "==\"\"pandemic\"\", Selected: false"
        }, {
          "valueString": "*, Selected: true"
        } ]
      } ]
    }
  }, {
    "fullUrl": "urn:uuid:ed34c6ca-b8d8-48e6-b382-85519295cf93",
    "resource": {
      "resourceType": "QuestionnaireResponse",
      "id": "ed34c6ca-b8d8-48e6-b382-85519295cf93",
      "identifier": {
        "value": "1766749"
      },
      "questionnaire": {
        "reference": "urn:uuid:7aa27214-67a3-4ce7-8479-cf670920be31"
      },
      "status": "completed",
      "subject": {
        "reference": "urn:uuid:9a631728-a4f9-4cdf-81d4-efcd24475c46"
      },
      "context": {
        "reference": "urn:uuid:4c4f3a38-d0aa-4bf4-bd26-c0e676c0b22f"
      },
      "authored": "2021-08-03T13:04:53+00:00",
      "item": [ {
        "linkId": "Tx223440",
        "text": "WHAT IS SAID TO BE THE MAIN REASON FOR THIS CONTACT?",
        "answer": [ {
          "valueString": "more"
        } ]
      } ]
    }
  }, {
    "fullUrl": "urn:uuid:7aa27214-67a3-4ce7-8479-cf670920be31",
    "resource": {
      "resourceType": "Questionnaire",
      "id": "7aa27214-67a3-4ce7-8479-cf670920be31",
      "identifier": [ {
        "value": "1766749"
      } ],
      "version": "2021-08-03T13:04:53.000Z",
      "status": "active",
      "experimental": false,
      "date": "2021-08-03T13:04:53+00:00",
      "publisher": "User ID: '922' User name: 'AndrewJ.Walford' User skill set: 'T4'",
      "lastReviewDate": "2021-08-03",
      "contact": [ {
        "telecom": [ {
          "system": "phone",
          "value": "07798501130"
        } ]
      } ],
      "subjectType": [ "Patient" ],
      "item": [ {
        "linkId": "1766749",
        "prefix": "5000",
        "text": "WHAT IS SAID TO BE THE MAIN REASON FOR THIS CONTACT?",
        "type": "choice",
        "required": true,
        "repeats": false,
        "option": [ {
          "valueString": "a probable allergic reaction now, Selected: false"
        }, {
          "valueString": "a probable heart attack, Selected: false"
        }, {
          "valueString": "chest or upper back pain, Selected: false"
        }, {
          "valueString": "a probable stroke or mini-stroke, Selected: false"
        }, {
          "valueString": "a probable fit or seizure within the last 12 hours, Selected: false"
        }, {
          "valueString": "a suicide attempt, Selected: false"
        }, {
          "valueString": "more, Selected: true"
        } ]
      } ]
    }
  }, {
    "fullUrl": "urn:uuid:6273be28-c8e9-4473-a329-01a1614ccd7f",
    "resource": {
      "resourceType": "QuestionnaireResponse",
      "id": "6273be28-c8e9-4473-a329-01a1614ccd7f",
      "identifier": {
        "value": "1766749"
      },
      "questionnaire": {
        "reference": "urn:uuid:1092eb18-7960-4c3b-bd1c-d12b33856043"
      },
      "status": "completed",
      "subject": {
        "reference": "urn:uuid:9a631728-a4f9-4cdf-81d4-efcd24475c46"
      },
      "context": {
        "reference": "urn:uuid:4c4f3a38-d0aa-4bf4-bd26-c0e676c0b22f"
      },
      "authored": "2021-08-03T13:04:53+00:00",
      "item": [ {
        "linkId": "Tx220032",
        "text": "WHAT IS SAID TO BE THE MAIN REASON FOR THIS CONTACT?",
        "answer": [ {
          "valueString": "none of the above"
        } ]
      } ]
    }
  }, {
    "fullUrl": "urn:uuid:1092eb18-7960-4c3b-bd1c-d12b33856043",
    "resource": {
      "resourceType": "Questionnaire",
      "id": "1092eb18-7960-4c3b-bd1c-d12b33856043",
      "identifier": [ {
        "value": "1766749"
      } ],
      "version": "2021-08-03T13:04:53.000Z",
      "status": "active",
      "experimental": false,
      "date": "2021-08-03T13:04:53+00:00",
      "publisher": "User ID: '922' User name: 'AndrewJ.Walford' User skill set: 'T4'",
      "lastReviewDate": "2021-08-03",
      "contact": [ {
        "telecom": [ {
          "system": "phone",
          "value": "07798501130"
        } ]
      } ],
      "subjectType": [ "Patient" ],
      "item": [ {
        "linkId": "1766749",
        "prefix": "1900",
        "text": "WHAT IS SAID TO BE THE MAIN REASON FOR THIS CONTACT?",
        "type": "choice",
        "required": true,
        "repeats": false,
        "option": [ {
          "valueString": "new confusion now, Selected: false"
        }, {
          "valueString": "a diabetic hypo (low blood sugar) or a diabetic hyper (high blood sugar), Selected: false"
        }, {
          "valueString": "recovery from an ICD (implanted cardioverter defibrillator) shock, Selected: false"
        }, {
          "valueString": "none of the above, Selected: true"
        } ]
      } ]
    }
  }, {
    "fullUrl": "urn:uuid:80b72f88-e740-4fc8-92cd-c9d3bf764f42",
    "resource": {
      "resourceType": "QuestionnaireResponse",
      "id": "80b72f88-e740-4fc8-92cd-c9d3bf764f42",
      "identifier": {
        "value": "1766749"
      },
      "questionnaire": {
        "reference": "urn:uuid:d91ee0aa-77e5-4c9c-94b8-b4d92252c982"
      },
      "status": "completed",
      "subject": {
        "reference": "urn:uuid:9a631728-a4f9-4cdf-81d4-efcd24475c46"
      },
      "context": {
        "reference": "urn:uuid:4c4f3a38-d0aa-4bf4-bd26-c0e676c0b22f"
      },
      "authored": "2021-08-03T13:04:53+00:00",
      "item": [ {
        "linkId": "Tx223142",
        "text": "Does the skin on the chest, back or abdomen feel a normal temperature?",
        "answer": [ {
          "valueString": "yes - normal, warm or hot"
        } ]
      } ]
    }
  }, {
    "fullUrl": "urn:uuid:d91ee0aa-77e5-4c9c-94b8-b4d92252c982",
    "resource": {
      "resourceType": "Questionnaire",
      "id": "d91ee0aa-77e5-4c9c-94b8-b4d92252c982",
      "identifier": [ {
        "value": "1766749"
      } ],
      "version": "2021-08-03T13:04:53.000Z",
      "status": "active",
      "experimental": false,
      "date": "2021-08-03T13:04:53+00:00",
      "publisher": "User ID: '922' User name: 'AndrewJ.Walford' User skill set: 'T4'",
      "lastReviewDate": "2021-08-03",
      "contact": [ {
        "telecom": [ {
          "system": "phone",
          "value": "07798501130"
        } ]
      } ],
      "subjectType": [ "Patient" ],
      "item": [ {
        "linkId": "1766749",
        "prefix": "4000",
        "text": "Does the skin on the chest, back or abdomen feel a normal temperature?",
        "type": "choice",
        "required": true,
        "repeats": false,
        "option": [ {
          "valueString": "yes - normal, warm or hot, Selected: true"
        }, {
          "valueString": "not sure, Selected: false"
        }, {
          "valueString": "no - cool OR cold, Selected: false"
        }, {
          "valueString": "not safe to touch, Selected: false"
        } ]
      } ]
    }
  }, {
    "fullUrl": "urn:uuid:37312c9f-e83f-43d3-88b2-8ae5940eddba",
    "resource": {
      "resourceType": "QuestionnaireResponse",
      "id": "37312c9f-e83f-43d3-88b2-8ae5940eddba",
      "identifier": {
        "value": "1766749"
      },
      "questionnaire": {
        "reference": "urn:uuid:49626a61-f1d6-4886-ad71-51556e6970bd"
      },
      "status": "completed",
      "subject": {
        "reference": "urn:uuid:9a631728-a4f9-4cdf-81d4-efcd24475c46"
      },
      "context": {
        "reference": "urn:uuid:4c4f3a38-d0aa-4bf4-bd26-c0e676c0b22f"
      },
      "authored": "2021-08-03T13:04:53+00:00",
      "item": [ {
        "linkId": "Tx221724",
        "text": "STRING:ShockAsked",
        "answer": [ {
          "valueString": "\"\"present\"\""
        } ]
      } ]
    }
  }, {
    "fullUrl": "urn:uuid:49626a61-f1d6-4886-ad71-51556e6970bd",
    "resource": {
      "resourceType": "Questionnaire",
      "id": "49626a61-f1d6-4886-ad71-51556e6970bd",
      "identifier": [ {
        "value": "1766749"
      } ],
      "version": "2021-08-03T13:04:53.000Z",
      "status": "active",
      "experimental": false,
      "date": "2021-08-03T13:04:53+00:00",
      "publisher": "User ID: '922' User name: 'AndrewJ.Walford' User skill set: 'T4'",
      "lastReviewDate": "2021-08-03",
      "contact": [ {
        "telecom": [ {
          "system": "phone",
          "value": "07798501130"
        } ]
      } ],
      "subjectType": [ "Patient" ],
      "item": [ {
        "linkId": "1766749",
        "prefix": "3300",
        "text": "STRING:ShockAsked",
        "type": "choice",
        "required": true,
        "repeats": false,
        "option": [ {
          "valueString": "\"\"present\"\", Selected: true"
        } ]
      } ]
    }
  }, {
    "fullUrl": "urn:uuid:ded2607e-0188-4a5b-8409-3159a7d98887",
    "resource": {
      "resourceType": "QuestionnaireResponse",
      "id": "ded2607e-0188-4a5b-8409-3159a7d98887",
      "identifier": {
        "value": "1766749"
      },
      "questionnaire": {
        "reference": "urn:uuid:eb882bb6-f1a0-4e20-9161-1291bc3defc3"
      },
      "status": "completed",
      "subject": {
        "reference": "urn:uuid:9a631728-a4f9-4cdf-81d4-efcd24475c46"
      },
      "context": {
        "reference": "urn:uuid:4c4f3a38-d0aa-4bf4-bd26-c0e676c0b22f"
      },
      "authored": "2021-08-03T13:04:53+00:00"
    }
  }, {
    "fullUrl": "urn:uuid:eb882bb6-f1a0-4e20-9161-1291bc3defc3",
    "resource": {
      "resourceType": "Questionnaire",
      "id": "eb882bb6-f1a0-4e20-9161-1291bc3defc3",
      "identifier": [ {
        "value": "1766749"
      } ],
      "version": "2021-08-03T13:04:53.000Z",
      "status": "active",
      "experimental": false,
      "date": "2021-08-03T13:04:53+00:00",
      "publisher": "User ID: '922' User name: 'AndrewJ.Walford' User skill set: 'T4'",
      "lastReviewDate": "2021-08-03",
      "contact": [ {
        "telecom": [ {
          "system": "phone",
          "value": "07798501130"
        } ]
      } ],
      "subjectType": [ "Patient" ]
    }
  }, {
    "fullUrl": "urn:uuid:acf64e2a-082e-41fb-a92c-ff0df6b79196",
    "resource": {
      "resourceType": "QuestionnaireResponse",
      "id": "acf64e2a-082e-41fb-a92c-ff0df6b79196",
      "identifier": {
        "value": "1766749"
      },
      "questionnaire": {
        "reference": "urn:uuid:aa11ace4-b931-492d-9a2c-796b9c485ba6"
      },
      "status": "completed",
      "subject": {
        "reference": "urn:uuid:9a631728-a4f9-4cdf-81d4-efcd24475c46"
      },
      "context": {
        "reference": "urn:uuid:4c4f3a38-d0aa-4bf4-bd26-c0e676c0b22f"
      },
      "authored": "2021-08-03T13:04:53+00:00"
    }
  }, {
    "fullUrl": "urn:uuid:aa11ace4-b931-492d-9a2c-796b9c485ba6",
    "resource": {
      "resourceType": "Questionnaire",
      "id": "aa11ace4-b931-492d-9a2c-796b9c485ba6",
      "identifier": [ {
        "value": "1766749"
      } ],
      "version": "2021-08-03T13:04:53.000Z",
      "status": "active",
      "experimental": false,
      "date": "2021-08-03T13:04:53+00:00",
      "publisher": "User ID: '922' User name: 'AndrewJ.Walford' User skill set: 'T4'",
      "lastReviewDate": "2021-08-03",
      "contact": [ {
        "telecom": [ {
          "system": "phone",
          "value": "07798501130"
        } ]
      } ],
      "subjectType": [ "Patient" ]
    }
  }, {
    "fullUrl": "urn:uuid:bb91be02-1366-4a9d-9429-d2fd28415c5d",
    "resource": {
      "resourceType": "QuestionnaireResponse",
      "id": "bb91be02-1366-4a9d-9429-d2fd28415c5d",
      "identifier": {
        "value": "1766749"
      },
      "questionnaire": {
        "reference": "urn:uuid:9646bf47-43c0-4b84-9e59-1a5cdb047096"
      },
      "status": "completed",
      "subject": {
        "reference": "urn:uuid:9a631728-a4f9-4cdf-81d4-efcd24475c46"
      },
      "context": {
        "reference": "urn:uuid:4c4f3a38-d0aa-4bf4-bd26-c0e676c0b22f"
      },
      "authored": "2021-08-03T13:04:53+00:00",
      "item": [ {
        "linkId": "Tx224190",
        "text": "Does the problem stop you from doing ALL of your normal activities?",
        "answer": [ {
          "valueString": "no - able to do most or all of their activities"
        } ]
      } ]
    }
  }, {
    "fullUrl": "urn:uuid:9646bf47-43c0-4b84-9e59-1a5cdb047096",
    "resource": {
      "resourceType": "Questionnaire",
      "id": "9646bf47-43c0-4b84-9e59-1a5cdb047096",
      "identifier": [ {
        "value": "1766749"
      } ],
      "version": "2021-08-03T13:04:53.000Z",
      "status": "active",
      "experimental": false,
      "date": "2021-08-03T13:04:53+00:00",
      "publisher": "User ID: '922' User name: 'AndrewJ.Walford' User skill set: 'T4'",
      "lastReviewDate": "2021-08-03",
      "contact": [ {
        "telecom": [ {
          "system": "phone",
          "value": "07798501130"
        } ]
      } ],
      "subjectType": [ "Patient" ],
      "item": [ {
        "linkId": "1766749",
        "prefix": "4900",
        "text": "Does the problem stop you from doing ALL of your normal activities?",
        "type": "choice",
        "required": true,
        "repeats": false,
        "option": [ {
          "valueString": "yes - unable to do all of their normal activities, Selected: false"
        }, {
          "valueString": "no - able to do some of their normal activities, Selected: false"
        }, {
          "valueString": "no - able to do most or all of their activities, Selected: true"
        } ]
      } ]
    }
  }, {
    "fullUrl": "urn:uuid:60323a70-6a5e-4f6b-8fc6-1bcd31a5ba9a",
    "resource": {
      "resourceType": "QuestionnaireResponse",
      "id": "60323a70-6a5e-4f6b-8fc6-1bcd31a5ba9a",
      "identifier": {
        "value": "1766749"
      },
      "questionnaire": {
        "reference": "urn:uuid:e7ed3c4a-83bf-41fb-961b-9646c14ee88b"
      },
      "status": "completed",
      "subject": {
        "reference": "urn:uuid:9a631728-a4f9-4cdf-81d4-efcd24475c46"
      },
      "context": {
        "reference": "urn:uuid:4c4f3a38-d0aa-4bf4-bd26-c0e676c0b22f"
      },
      "authored": "2021-08-03T13:04:53+00:00",
      "item": [ {
        "linkId": "Tx220244",
        "text": "Have you got any of the following new symptoms?",
        "answer": [ {
          "valueString": "no"
        } ]
      } ]
    }
  }, {
    "fullUrl": "urn:uuid:e7ed3c4a-83bf-41fb-961b-9646c14ee88b",
    "resource": {
      "resourceType": "Questionnaire",
      "id": "e7ed3c4a-83bf-41fb-961b-9646c14ee88b",
      "identifier": [ {
        "value": "1766749"
      } ],
      "version": "2021-08-03T13:04:53.000Z",
      "status": "active",
      "experimental": false,
      "date": "2021-08-03T13:04:53+00:00",
      "publisher": "User ID: '922' User name: 'AndrewJ.Walford' User skill set: 'T4'",
      "lastReviewDate": "2021-08-03",
      "contact": [ {
        "telecom": [ {
          "system": "phone",
          "value": "07798501130"
        } ]
      } ],
      "subjectType": [ "Patient" ],
      "item": [ {
        "linkId": "1766749",
        "prefix": "17",
        "text": "Have you got any of the following new symptoms?",
        "type": "choice",
        "required": true,
        "repeats": false,
        "option": [ {
          "valueString": "unable to control the bowels, Selected: false"
        }, {
          "valueString": "unable to move one or both legs, Selected: false"
        }, {
          "valueString": "numbness or pins and needles in both legs or around the back passage, Selected: false"
        }, {
          "valueString": "not sure, Selected: false"
        }, {
          "valueString": "no, Selected: true"
        } ]
      } ]
    }
  }, {
    "fullUrl": "urn:uuid:de8d08b6-0cfc-4325-9f8b-209de37fd5d0",
    "resource": {
      "resourceType": "QuestionnaireResponse",
      "id": "de8d08b6-0cfc-4325-9f8b-209de37fd5d0",
      "identifier": {
        "value": "1766749"
      },
      "questionnaire": {
        "reference": "urn:uuid:6fdba1d6-6520-43d0-a6a4-504ef28f377f"
      },
      "status": "completed",
      "subject": {
        "reference": "urn:uuid:9a631728-a4f9-4cdf-81d4-efcd24475c46"
      },
      "context": {
        "reference": "urn:uuid:4c4f3a38-d0aa-4bf4-bd26-c0e676c0b22f"
      },
      "authored": "2021-08-03T13:04:53+00:00",
      "item": [ {
        "linkId": "Tx221119",
        "text": "FunctionallyImpaired",
        "answer": [ {
          "valueString": "*"
        } ]
      } ]
    }
  }, {
    "fullUrl": "urn:uuid:6fdba1d6-6520-43d0-a6a4-504ef28f377f",
    "resource": {
      "resourceType": "Questionnaire",
      "id": "6fdba1d6-6520-43d0-a6a4-504ef28f377f",
      "identifier": [ {
        "value": "1766749"
      } ],
      "version": "2021-08-03T13:04:53.000Z",
      "status": "active",
      "experimental": false,
      "date": "2021-08-03T13:04:53+00:00",
      "publisher": "User ID: '922' User name: 'AndrewJ.Walford' User skill set: 'T4'",
      "lastReviewDate": "2021-08-03",
      "contact": [ {
        "telecom": [ {
          "system": "phone",
          "value": "07798501130"
        } ]
      } ],
      "subjectType": [ "Patient" ],
      "item": [ {
        "linkId": "1766749",
        "prefix": "5400",
        "text": "FunctionallyImpaired",
        "type": "choice",
        "required": true,
        "repeats": false,
        "option": [ {
          "valueString": "==\"\"present\"\", Selected: false"
        }, {
          "valueString": "*, Selected: true"
        } ]
      } ]
    }
  }, {
    "fullUrl": "urn:uuid:8fc6d4f1-2437-45ad-9bc6-202214109010",
    "resource": {
      "resourceType": "QuestionnaireResponse",
      "id": "8fc6d4f1-2437-45ad-9bc6-202214109010",
      "identifier": {
        "value": "1766749"
      },
      "questionnaire": {
        "reference": "urn:uuid:509c435a-5b5d-4be7-93fe-479f7ff95b2f"
      },
      "status": "completed",
      "subject": {
        "reference": "urn:uuid:9a631728-a4f9-4cdf-81d4-efcd24475c46"
      },
      "context": {
        "reference": "urn:uuid:4c4f3a38-d0aa-4bf4-bd26-c0e676c0b22f"
      },
      "authored": "2021-08-03T13:04:53+00:00",
      "item": [ {
        "linkId": "Tx221639",
        "text": "Have you been unable to pass urine for the last 12 hours, except for a few drops?",
        "answer": [ {
          "valueString": "no (ABLE TO pass urine)"
        } ]
      } ]
    }
  }, {
    "fullUrl": "urn:uuid:509c435a-5b5d-4be7-93fe-479f7ff95b2f",
    "resource": {
      "resourceType": "Questionnaire",
      "id": "509c435a-5b5d-4be7-93fe-479f7ff95b2f",
      "identifier": [ {
        "value": "1766749"
      } ],
      "version": "2021-08-03T13:04:53.000Z",
      "status": "active",
      "experimental": false,
      "date": "2021-08-03T13:04:53+00:00",
      "publisher": "User ID: '922' User name: 'AndrewJ.Walford' User skill set: 'T4'",
      "lastReviewDate": "2021-08-03",
      "contact": [ {
        "telecom": [ {
          "system": "phone",
          "value": "07798501130"
        } ]
      } ],
      "subjectType": [ "Patient" ],
      "item": [ {
        "linkId": "1766749",
        "prefix": "6100",
        "text": "Have you been unable to pass urine for the last 12 hours, except for a few drops?",
        "type": "choice",
        "required": true,
        "repeats": false,
        "option": [ {
          "valueString": "yes (UNABLE TO pass urine), Selected: false"
        }, {
          "valueString": "not sure, Selected: false"
        }, {
          "valueString": "no (ABLE TO pass urine), Selected: true"
        } ]
      } ]
    }
  }, {
    "fullUrl": "urn:uuid:5a9ad636-8588-49fd-99cd-ee1a799d6ce9",
    "resource": {
      "resourceType": "QuestionnaireResponse",
      "id": "5a9ad636-8588-49fd-99cd-ee1a799d6ce9",
      "identifier": {
        "value": "1766749"
      },
      "questionnaire": {
        "reference": "urn:uuid:f14fab0f-ccb6-49a6-9d66-ae0624725b35"
      },
      "status": "completed",
      "subject": {
        "reference": "urn:uuid:9a631728-a4f9-4cdf-81d4-efcd24475c46"
      },
      "context": {
        "reference": "urn:uuid:4c4f3a38-d0aa-4bf4-bd26-c0e676c0b22f"
      },
      "authored": "2021-08-03T13:04:53+00:00",
      "item": [ {
        "linkId": "Tx221119",
        "text": "FunctionallyImpaired",
        "answer": [ {
          "valueString": "*"
        } ]
      } ]
    }
  }, {
    "fullUrl": "urn:uuid:f14fab0f-ccb6-49a6-9d66-ae0624725b35",
    "resource": {
      "resourceType": "Questionnaire",
      "id": "f14fab0f-ccb6-49a6-9d66-ae0624725b35",
      "identifier": [ {
        "value": "1766749"
      } ],
      "version": "2021-08-03T13:04:53.000Z",
      "status": "active",
      "experimental": false,
      "date": "2021-08-03T13:04:53+00:00",
      "publisher": "User ID: '922' User name: 'AndrewJ.Walford' User skill set: 'T4'",
      "lastReviewDate": "2021-08-03",
      "contact": [ {
        "telecom": [ {
          "system": "phone",
          "value": "07798501130"
        } ]
      } ],
      "subjectType": [ "Patient" ],
      "item": [ {
        "linkId": "1766749",
        "prefix": "7200",
        "text": "FunctionallyImpaired",
        "type": "choice",
        "required": true,
        "repeats": false,
        "option": [ {
          "valueString": "==\"\"present\"\", Selected: false"
        }, {
          "valueString": "*, Selected: true"
        } ]
      } ]
    }
  }, {
    "fullUrl": "urn:uuid:8debf6bb-0abe-424a-a95f-dad355df4bb2",
    "resource": {
      "resourceType": "QuestionnaireResponse",
      "id": "8debf6bb-0abe-424a-a95f-dad355df4bb2",
      "identifier": {
        "value": "1766749"
      },
      "questionnaire": {
        "reference": "urn:uuid:8c0791c9-2f77-4c86-831e-b208c2274a8b"
      },
      "status": "completed",
      "subject": {
        "reference": "urn:uuid:9a631728-a4f9-4cdf-81d4-efcd24475c46"
      },
      "context": {
        "reference": "urn:uuid:4c4f3a38-d0aa-4bf4-bd26-c0e676c0b22f"
      },
      "authored": "2021-08-03T13:04:53+00:00",
      "item": [ {
        "linkId": "Tx223485",
        "text": "ConfusionDeclared",
        "answer": [ {
          "valueString": "*"
        } ]
      } ]
    }
  }, {
    "fullUrl": "urn:uuid:8c0791c9-2f77-4c86-831e-b208c2274a8b",
    "resource": {
      "resourceType": "Questionnaire",
      "id": "8c0791c9-2f77-4c86-831e-b208c2274a8b",
      "identifier": [ {
        "value": "1766749"
      } ],
      "version": "2021-08-03T13:04:53.000Z",
      "status": "active",
      "experimental": false,
      "date": "2021-08-03T13:04:53+00:00",
      "publisher": "User ID: '922' User name: 'AndrewJ.Walford' User skill set: 'T4'",
      "lastReviewDate": "2021-08-03",
      "contact": [ {
        "telecom": [ {
          "system": "phone",
          "value": "07798501130"
        } ]
      } ],
      "subjectType": [ "Patient" ],
      "item": [ {
        "linkId": "1766749",
        "prefix": "2900",
        "text": "ConfusionDeclared",
        "type": "choice",
        "required": true,
        "repeats": false,
        "option": [ {
          "valueString": "==\"\"present\"\", Selected: false"
        }, {
          "valueString": "*, Selected: true"
        } ]
      } ]
    }
  }, {
    "fullUrl": "urn:uuid:986c29b2-10c8-4c30-919c-6325bcb4cb3f",
    "resource": {
      "resourceType": "QuestionnaireResponse",
      "id": "986c29b2-10c8-4c30-919c-6325bcb4cb3f",
      "identifier": {
        "value": "1766749"
      },
      "questionnaire": {
        "reference": "urn:uuid:d087febc-3d15-4a63-9c0d-0228022632c2"
      },
      "status": "completed",
      "subject": {
        "reference": "urn:uuid:9a631728-a4f9-4cdf-81d4-efcd24475c46"
      },
      "context": {
        "reference": "urn:uuid:4c4f3a38-d0aa-4bf4-bd26-c0e676c0b22f"
      },
      "authored": "2021-08-03T13:04:53+00:00",
      "item": [ {
        "linkId": "Tx1213",
        "text": "Have you suddenly become confused OR more confused than usual?",
        "answer": [ {
          "valueString": "no"
        } ]
      } ]
    }
  }, {
    "fullUrl": "urn:uuid:d087febc-3d15-4a63-9c0d-0228022632c2",
    "resource": {
      "resourceType": "Questionnaire",
      "id": "d087febc-3d15-4a63-9c0d-0228022632c2",
      "identifier": [ {
        "value": "1766749"
      } ],
      "version": "2021-08-03T13:04:53.000Z",
      "status": "active",
      "experimental": false,
      "date": "2021-08-03T13:04:53+00:00",
      "publisher": "User ID: '922' User name: 'AndrewJ.Walford' User skill set: 'T4'",
      "lastReviewDate": "2021-08-03",
      "contact": [ {
        "telecom": [ {
          "system": "phone",
          "value": "07798501130"
        } ]
      } ],
      "subjectType": [ "Patient" ],
      "item": [ {
        "linkId": "1766749",
        "prefix": "7700",
        "text": "Have you suddenly become confused OR more confused than usual?",
        "type": "choice",
        "required": true,
        "repeats": false,
        "option": [ {
          "valueString": "yes, Selected: false"
        }, {
          "valueString": "not sure, Selected: false"
        }, {
          "valueString": "no, Selected: true"
        } ]
      } ]
    }
  }, {
    "fullUrl": "urn:uuid:394c27c2-449a-40fd-8a58-faaf4028deac",
    "resource": {
      "resourceType": "QuestionnaireResponse",
      "id": "394c27c2-449a-40fd-8a58-faaf4028deac",
      "identifier": {
        "value": "1766749"
      },
      "questionnaire": {
        "reference": "urn:uuid:5e2dd7be-c6b2-42be-bb9d-d8c275e0394a"
      },
      "status": "completed",
      "subject": {
        "reference": "urn:uuid:9a631728-a4f9-4cdf-81d4-efcd24475c46"
      },
      "context": {
        "reference": "urn:uuid:4c4f3a38-d0aa-4bf4-bd26-c0e676c0b22f"
      },
      "authored": "2021-08-03T13:04:53+00:00",
      "item": [ {
        "linkId": "Tx220164",
        "text": "Are you breathing faster or harder when doing nothing at all?",
        "answer": [ {
          "valueString": "no"
        } ]
      } ]
    }
  }, {
    "fullUrl": "urn:uuid:5e2dd7be-c6b2-42be-bb9d-d8c275e0394a",
    "resource": {
      "resourceType": "Questionnaire",
      "id": "5e2dd7be-c6b2-42be-bb9d-d8c275e0394a",
      "identifier": [ {
        "value": "1766749"
      } ],
      "version": "2021-08-03T13:04:53.000Z",
      "status": "active",
      "experimental": false,
      "date": "2021-08-03T13:04:53+00:00",
      "publisher": "User ID: '922' User name: 'AndrewJ.Walford' User skill set: 'T4'",
      "lastReviewDate": "2021-08-03",
      "contact": [ {
        "telecom": [ {
          "system": "phone",
          "value": "07798501130"
        } ]
      } ],
      "subjectType": [ "Patient" ],
      "item": [ {
        "linkId": "1766749",
        "prefix": "3400",
        "text": "Are you breathing faster or harder when doing nothing at all?",
        "type": "choice",
        "required": true,
        "repeats": false,
        "option": [ {
          "valueString": "yes, Selected: false"
        }, {
          "valueString": "not sure, Selected: false"
        }, {
          "valueString": "no, Selected: true"
        } ]
      } ]
    }
  }, {
    "fullUrl": "urn:uuid:54a0bb58-a8cf-47de-9cbd-da4ce4740961",
    "resource": {
      "resourceType": "QuestionnaireResponse",
      "id": "54a0bb58-a8cf-47de-9cbd-da4ce4740961",
      "identifier": {
        "value": "1766749"
      },
      "questionnaire": {
        "reference": "urn:uuid:42350b0b-6a15-432a-9b1b-2042e72670f0"
      },
      "status": "completed",
      "subject": {
        "reference": "urn:uuid:9a631728-a4f9-4cdf-81d4-efcd24475c46"
      },
      "context": {
        "reference": "urn:uuid:4c4f3a38-d0aa-4bf4-bd26-c0e676c0b22f"
      },
      "authored": "2021-08-03T13:04:53+00:00",
      "item": [ {
        "linkId": "Tx224506",
        "text": "UnableToPassUrine",
        "answer": [ {
          "valueString": "*"
        } ]
      } ]
    }
  }, {
    "fullUrl": "urn:uuid:42350b0b-6a15-432a-9b1b-2042e72670f0",
    "resource": {
      "resourceType": "Questionnaire",
      "id": "42350b0b-6a15-432a-9b1b-2042e72670f0",
      "identifier": [ {
        "value": "1766749"
      } ],
      "version": "2021-08-03T13:04:53.000Z",
      "status": "active",
      "experimental": false,
      "date": "2021-08-03T13:04:53+00:00",
      "publisher": "User ID: '922' User name: 'AndrewJ.Walford' User skill set: 'T4'",
      "lastReviewDate": "2021-08-03",
      "contact": [ {
        "telecom": [ {
          "system": "phone",
          "value": "07798501130"
        } ]
      } ],
      "subjectType": [ "Patient" ],
      "item": [ {
        "linkId": "1766749",
        "prefix": "8300",
        "text": "UnableToPassUrine",
        "type": "choice",
        "required": true,
        "repeats": false,
        "option": [ {
          "valueString": "==\"\"present\"\", Selected: false"
        }, {
          "valueString": "*, Selected: true"
        } ]
      } ]
    }
  }, {
    "fullUrl": "urn:uuid:c0a99f4b-20c3-41b4-84e8-a5276766c889",
    "resource": {
      "resourceType": "QuestionnaireResponse",
      "id": "c0a99f4b-20c3-41b4-84e8-a5276766c889",
      "identifier": {
        "value": "1766749"
      },
      "questionnaire": {
        "reference": "urn:uuid:8b1ec6d8-0290-4331-99ec-4d2cbca250cd"
      },
      "status": "completed",
      "subject": {
        "reference": "urn:uuid:9a631728-a4f9-4cdf-81d4-efcd24475c46"
      },
      "context": {
        "reference": "urn:uuid:4c4f3a38-d0aa-4bf4-bd26-c0e676c0b22f"
      },
      "authored": "2021-08-03T13:04:53+00:00",
      "item": [ {
        "linkId": "Tx222078",
        "text": "Have you got pain in the spine?",
        "answer": [ {
          "valueString": "no"
        } ]
      } ]
    }
  }, {
    "fullUrl": "urn:uuid:8b1ec6d8-0290-4331-99ec-4d2cbca250cd",
    "resource": {
      "resourceType": "Questionnaire",
      "id": "8b1ec6d8-0290-4331-99ec-4d2cbca250cd",
      "identifier": [ {
        "value": "1766749"
      } ],
      "version": "2021-08-03T13:04:53.000Z",
      "status": "active",
      "experimental": false,
      "date": "2021-08-03T13:04:53+00:00",
      "publisher": "User ID: '922' User name: 'AndrewJ.Walford' User skill set: 'T4'",
      "lastReviewDate": "2021-08-03",
      "contact": [ {
        "telecom": [ {
          "system": "phone",
          "value": "07798501130"
        } ]
      } ],
      "subjectType": [ "Patient" ],
      "item": [ {
        "linkId": "1766749",
        "prefix": "400",
        "text": "Have you got pain in the spine?",
        "type": "choice",
        "required": true,
        "repeats": false,
        "option": [ {
          "valueString": "yes, Selected: false"
        }, {
          "valueString": "not sure, Selected: false"
        }, {
          "valueString": "no, Selected: true"
        } ]
      } ]
    }
  }, {
    "fullUrl": "urn:uuid:68a0e9c5-2a7b-4368-aa36-9e5a8733bd1b",
    "resource": {
      "resourceType": "QuestionnaireResponse",
      "id": "68a0e9c5-2a7b-4368-aa36-9e5a8733bd1b",
      "identifier": {
        "value": "1766749"
      },
      "questionnaire": {
        "reference": "urn:uuid:12d2f681-657c-425d-977c-80ff510a3c7c"
      },
      "status": "completed",
      "subject": {
        "reference": "urn:uuid:9a631728-a4f9-4cdf-81d4-efcd24475c46"
      },
      "context": {
        "reference": "urn:uuid:4c4f3a38-d0aa-4bf4-bd26-c0e676c0b22f"
      },
      "authored": "2021-08-03T13:04:53+00:00",
      "item": [ {
        "linkId": "Tx220168",
        "text": "Have you got pain that is getting worse?",
        "answer": [ {
          "valueString": "no"
        } ]
      } ]
    }
  }, {
    "fullUrl": "urn:uuid:12d2f681-657c-425d-977c-80ff510a3c7c",
    "resource": {
      "resourceType": "Questionnaire",
      "id": "12d2f681-657c-425d-977c-80ff510a3c7c",
      "identifier": [ {
        "value": "1766749"
      } ],
      "version": "2021-08-03T13:04:53.000Z",
      "status": "active",
      "experimental": false,
      "date": "2021-08-03T13:04:53+00:00",
      "publisher": "User ID: '922' User name: 'AndrewJ.Walford' User skill set: 'T4'",
      "lastReviewDate": "2021-08-03",
      "contact": [ {
        "telecom": [ {
          "system": "phone",
          "value": "07798501130"
        } ]
      } ],
      "subjectType": [ "Patient" ],
      "item": [ {
        "linkId": "1766749",
        "prefix": "300",
        "text": "Have you got pain that is getting worse?",
        "type": "choice",
        "required": true,
        "repeats": false,
        "option": [ {
          "valueString": "yes, Selected: false"
        }, {
          "valueString": "not sure, Selected: false"
        }, {
          "valueString": "no, Selected: true"
        } ]
      } ]
    }
  }, {
    "fullUrl": "urn:uuid:a41dd427-39b0-4742-82ca-4af089cdc232",
    "resource": {
      "resourceType": "QuestionnaireResponse",
      "id": "a41dd427-39b0-4742-82ca-4af089cdc232",
      "identifier": {
        "value": "1766749"
      },
      "questionnaire": {
        "reference": "urn:uuid:3a2c4042-5911-486c-af4f-60618aaa6ef1"
      },
      "status": "completed",
      "subject": {
        "reference": "urn:uuid:9a631728-a4f9-4cdf-81d4-efcd24475c46"
      },
      "context": {
        "reference": "urn:uuid:4c4f3a38-d0aa-4bf4-bd26-c0e676c0b22f"
      },
      "authored": "2021-08-03T13:04:53+00:00",
      "item": [ {
        "linkId": "Tx1122",
        "text": "Have you felt hot or feverish at any time in the last 12 hours?",
        "answer": [ {
          "valueString": "no"
        } ]
      } ]
    }
  }, {
    "fullUrl": "urn:uuid:3a2c4042-5911-486c-af4f-60618aaa6ef1",
    "resource": {
      "resourceType": "Questionnaire",
      "id": "3a2c4042-5911-486c-af4f-60618aaa6ef1",
      "identifier": [ {
        "value": "1766749"
      } ],
      "version": "2021-08-03T13:04:53.000Z",
      "status": "active",
      "experimental": false,
      "date": "2021-08-03T13:04:53+00:00",
      "publisher": "User ID: '922' User name: 'AndrewJ.Walford' User skill set: 'T4'",
      "lastReviewDate": "2021-08-03",
      "contact": [ {
        "telecom": [ {
          "system": "phone",
          "value": "07798501130"
        } ]
      } ],
      "subjectType": [ "Patient" ],
      "item": [ {
        "linkId": "1766749",
        "prefix": "500",
        "text": "Have you felt hot or feverish at any time in the last 12 hours?",
        "type": "choice",
        "required": true,
        "repeats": false,
        "option": [ {
          "valueString": "yes - temperature not taken, Selected: false"
        }, {
          "valueString": "yes - temperature taken (specify), Selected: false"
        }, {
          "valueString": "not sure, Selected: false"
        }, {
          "valueString": "no, Selected: true"
        } ]
      } ]
    }
  }, {
    "fullUrl": "urn:uuid:44c10fc9-1385-422e-9bf7-9fb9d9ef96bb",
    "resource": {
      "resourceType": "QuestionnaireResponse",
      "id": "44c10fc9-1385-422e-9bf7-9fb9d9ef96bb",
      "identifier": {
        "value": "1766749"
      },
      "questionnaire": {
        "reference": "urn:uuid:15e02b90-b1a3-49eb-99ac-ea81ed3671bc"
      },
      "status": "completed",
      "subject": {
        "reference": "urn:uuid:9a631728-a4f9-4cdf-81d4-efcd24475c46"
      },
      "context": {
        "reference": "urn:uuid:4c4f3a38-d0aa-4bf4-bd26-c0e676c0b22f"
      },
      "authored": "2021-08-03T13:04:53+00:00",
      "item": [ {
        "linkId": "Tx1233",
        "text": "Have you had a back injury IN THE LAST 4 WEEKS?",
        "answer": [ {
          "valueString": "no"
        } ]
      } ]
    }
  }, {
    "fullUrl": "urn:uuid:15e02b90-b1a3-49eb-99ac-ea81ed3671bc",
    "resource": {
      "resourceType": "Questionnaire",
      "id": "15e02b90-b1a3-49eb-99ac-ea81ed3671bc",
      "identifier": [ {
        "value": "1766749"
      } ],
      "version": "2021-08-03T13:04:53.000Z",
      "status": "active",
      "experimental": false,
      "date": "2021-08-03T13:04:53+00:00",
      "publisher": "User ID: '922' User name: 'AndrewJ.Walford' User skill set: 'T4'",
      "lastReviewDate": "2021-08-03",
      "contact": [ {
        "telecom": [ {
          "system": "phone",
          "value": "07798501130"
        } ]
      } ],
      "subjectType": [ "Patient" ],
      "item": [ {
        "linkId": "1766749",
        "prefix": "900",
        "text": "Have you had a back injury IN THE LAST 4 WEEKS?",
        "type": "choice",
        "required": true,
        "repeats": false,
        "option": [ {
          "valueString": "yes, Selected: false"
        }, {
          "valueString": "not sure, Selected: false"
        }, {
          "valueString": "no, Selected: true"
        } ]
      } ]
    }
  }, {
    "fullUrl": "urn:uuid:b96ff6d7-23de-405b-9e64-6e3c318e31c1",
    "resource": {
      "resourceType": "QuestionnaireResponse",
      "id": "b96ff6d7-23de-405b-9e64-6e3c318e31c1",
      "identifier": {
        "value": "1766749"
      },
      "questionnaire": {
        "reference": "urn:uuid:4b25e85c-4b9d-4a63-b528-e7db395620bf"
      },
      "status": "completed",
      "subject": {
        "reference": "urn:uuid:9a631728-a4f9-4cdf-81d4-efcd24475c46"
      },
      "context": {
        "reference": "urn:uuid:4c4f3a38-d0aa-4bf4-bd26-c0e676c0b22f"
      },
      "authored": "2021-08-03T13:04:53+00:00",
      "item": [ {
        "linkId": "Tx2947",
        "text": "Have you had any change of medication IN THE LAST 2 WEEKS?",
        "answer": [ {
          "valueString": "no"
        } ]
      } ]
    }
  }, {
    "fullUrl": "urn:uuid:4b25e85c-4b9d-4a63-b528-e7db395620bf",
    "resource": {
      "resourceType": "Questionnaire",
      "id": "4b25e85c-4b9d-4a63-b528-e7db395620bf",
      "identifier": [ {
        "value": "1766749"
      } ],
      "version": "2021-08-03T13:04:53.000Z",
      "status": "active",
      "experimental": false,
      "date": "2021-08-03T13:04:53+00:00",
      "publisher": "User ID: '922' User name: 'AndrewJ.Walford' User skill set: 'T4'",
      "lastReviewDate": "2021-08-03",
      "contact": [ {
        "telecom": [ {
          "system": "phone",
          "value": "07798501130"
        } ]
      } ],
      "subjectType": [ "Patient" ],
      "item": [ {
        "linkId": "1766749",
        "prefix": "1000",
        "text": "Have you had any change of medication IN THE LAST 2 WEEKS?",
        "type": "choice",
        "required": true,
        "repeats": false,
        "option": [ {
          "valueString": "started new medication, Selected: false"
        }, {
          "valueString": "changed the dose of medication, Selected: false"
        }, {
          "valueString": "stopped medication, Selected: false"
        }, {
          "valueString": "not sure, Selected: false"
        }, {
          "valueString": "no, Selected: true"
        } ]
      } ]
    }
  }, {
    "fullUrl": "urn:uuid:5ae672d6-9495-4061-8562-1f41c59047bb",
    "resource": {
      "resourceType": "QuestionnaireResponse",
      "id": "5ae672d6-9495-4061-8562-1f41c59047bb",
      "identifier": {
        "value": "1766749"
      },
      "questionnaire": {
        "reference": "urn:uuid:4630cf42-75cb-4894-8f31-59c954ee31bc"
      },
      "status": "completed",
      "subject": {
        "reference": "urn:uuid:9a631728-a4f9-4cdf-81d4-efcd24475c46"
      },
      "context": {
        "reference": "urn:uuid:4c4f3a38-d0aa-4bf4-bd26-c0e676c0b22f"
      },
      "authored": "2021-08-03T13:04:53+00:00",
      "item": [ {
        "linkId": "Tx221449",
        "text": "STRING:SDPCFullPrimaryCareassessmentandprescribingcapability",
        "answer": [ {
          "valueString": "\"\"PC full Primary Care assessment and prescribing capability\"\""
        } ]
      } ]
    }
  }, {
    "fullUrl": "urn:uuid:4630cf42-75cb-4894-8f31-59c954ee31bc",
    "resource": {
      "resourceType": "Questionnaire",
      "id": "4630cf42-75cb-4894-8f31-59c954ee31bc",
      "identifier": [ {
        "value": "1766749"
      } ],
      "version": "2021-08-03T13:04:53.000Z",
      "status": "active",
      "experimental": false,
      "date": "2021-08-03T13:04:53+00:00",
      "publisher": "User ID: '922' User name: 'AndrewJ.Walford' User skill set: 'T4'",
      "lastReviewDate": "2021-08-03",
      "contact": [ {
        "telecom": [ {
          "system": "phone",
          "value": "07798501130"
        } ]
      } ],
      "subjectType": [ "Patient" ],
      "item": [ {
        "linkId": "1766749",
        "prefix": "1200",
        "text": "STRING:SDPCFullPrimaryCareassessmentandprescribingcapability",
        "type": "choice",
        "required": true,
        "repeats": false,
        "option": [ {
          "valueString": "\"\"PC full Primary Care assessment and prescribing capability\"\", Selected: true"
        } ]
      } ]
    }
  }, {
    "fullUrl": "urn:uuid:89006da4-fb4a-4c26-bdc7-18b6aa576934",
    "resource": {
      "resourceType": "QuestionnaireResponse",
      "id": "89006da4-fb4a-4c26-bdc7-18b6aa576934",
      "identifier": {
        "value": "1766749"
      },
      "questionnaire": {
        "reference": "urn:uuid:d0a771ac-19f5-497c-a377-33ebb1455dfc"
      },
      "status": "completed",
      "subject": {
        "reference": "urn:uuid:9a631728-a4f9-4cdf-81d4-efcd24475c46"
      },
      "context": {
        "reference": "urn:uuid:4c4f3a38-d0aa-4bf4-bd26-c0e676c0b22f"
      },
      "authored": "2021-08-03T13:04:53+00:00"
    }
  }, {
    "fullUrl": "urn:uuid:d0a771ac-19f5-497c-a377-33ebb1455dfc",
    "resource": {
      "resourceType": "Questionnaire",
      "id": "d0a771ac-19f5-497c-a377-33ebb1455dfc",
      "identifier": [ {
        "value": "1766749"
      } ],
      "version": "2021-08-03T13:04:53.000Z",
      "status": "active",
      "experimental": false,
      "date": "2021-08-03T13:04:53+00:00",
      "publisher": "User ID: '922' User name: 'AndrewJ.Walford' User skill set: 'T4'",
      "lastReviewDate": "2021-08-03",
      "contact": [ {
        "telecom": [ {
          "system": "phone",
          "value": "07798501130"
        } ]
      } ],
      "subjectType": [ "Patient" ]
    }
  }, {
    "fullUrl": "urn:uuid:c021d0e0-e9a9-4bca-ba6c-795043a4251c",
    "resource": {
      "resourceType": "QuestionnaireResponse",
      "id": "c021d0e0-e9a9-4bca-ba6c-795043a4251c",
      "identifier": {
        "value": "1766749"
      },
      "questionnaire": {
        "reference": "urn:uuid:184222b7-a9c5-4fe0-bf9c-c03669ab7f8e"
      },
      "status": "completed",
      "subject": {
        "reference": "urn:uuid:9a631728-a4f9-4cdf-81d4-efcd24475c46"
      },
      "context": {
        "reference": "urn:uuid:4c4f3a38-d0aa-4bf4-bd26-c0e676c0b22f"
      },
      "authored": "2021-08-03T13:04:53+00:00",
      "item": [ {
        "linkId": "N/A"
      } ]
    }
  }, {
    "fullUrl": "urn:uuid:184222b7-a9c5-4fe0-bf9c-c03669ab7f8e",
    "resource": {
      "resourceType": "Questionnaire",
      "id": "184222b7-a9c5-4fe0-bf9c-c03669ab7f8e",
      "identifier": [ {
        "value": "1766749"
      } ],
      "version": "2021-08-03T13:04:53.000Z",
      "status": "active",
      "experimental": false,
      "date": "2021-08-03T13:04:53+00:00",
      "publisher": "User ID: '922' User name: 'AndrewJ.Walford' User skill set: 'T4'",
      "lastReviewDate": "2021-08-03",
      "contact": [ {
        "telecom": [ {
          "system": "phone",
          "value": "07798501130"
        } ]
      } ],
      "subjectType": [ "Patient" ],
      "item": [ {
        "linkId": "1766749",
        "type": "choice",
        "required": true,
        "repeats": false,
        "option": [ {
          "valueString": ", Selected: false"
        } ]
      } ]
    }
  }, {
    "fullUrl": "urn:uuid:6c581b78-fb9c-4bfc-ba51-78acec99d3e3",
    "resource": {
      "resourceType": "QuestionnaireResponse",
      "id": "6c581b78-fb9c-4bfc-ba51-78acec99d3e3",
      "identifier": {
        "value": "1766749"
      },
      "questionnaire": {
        "reference": "urn:uuid:3b58b77c-bd6f-4907-96d0-feef4ba24a06"
      },
      "status": "completed",
      "subject": {
        "reference": "urn:uuid:9a631728-a4f9-4cdf-81d4-efcd24475c46"
      },
      "context": {
        "reference": "urn:uuid:4c4f3a38-d0aa-4bf4-bd26-c0e676c0b22f"
      },
      "authored": "2021-08-03T13:04:53+00:00"
    }
  }, {
    "fullUrl": "urn:uuid:3b58b77c-bd6f-4907-96d0-feef4ba24a06",
    "resource": {
      "resourceType": "Questionnaire",
      "id": "3b58b77c-bd6f-4907-96d0-feef4ba24a06",
      "identifier": [ {
        "value": "1766749"
      } ],
      "version": "2021-08-03T13:04:53.000Z",
      "status": "active",
      "experimental": false,
      "date": "2021-08-03T13:04:53+00:00",
      "publisher": "User ID: '922' User name: 'AndrewJ.Walford' User skill set: 'T4'",
      "lastReviewDate": "2021-08-03",
      "contact": [ {
        "telecom": [ {
          "system": "phone",
          "value": "07798501130"
        } ]
      } ],
      "subjectType": [ "Patient" ]
    }
  }, {
    "fullUrl": "urn:uuid:041314e7-6a87-4a54-80e3-adc284ff4efe",
    "resource": {
      "resourceType": "Observation",
      "id": "041314e7-6a87-4a54-80e3-adc284ff4efe",
      "status": "final",
      "code": {
        "coding": [ {
          "system": "http://snomed.info/sct",
          "code": "33962009",
          "display": "Presenting complaint"
        } ]
      },
      "subject": {
        "reference": "urn:uuid:9a631728-a4f9-4cdf-81d4-efcd24475c46"
      },
      "context": {
        "reference": "urn:uuid:4c4f3a38-d0aa-4bf4-bd26-c0e676c0b22f"
      }
    }
  }, {
    "fullUrl": "urn:uuid:46eb08e6-5327-434f-ac81-6ea79bce5b29",
    "resource": {
      "resourceType": "PractitionerRole",
      "id": "46eb08e6-5327-434f-ac81-6ea79bce5b29",
      "practitioner": {
        "reference": "urn:uuid:c0ffa730-380c-4cef-a11e-d73191feb4be"
      },
      "organization": {
        "reference": "urn:uuid:fb287a4a-aa28-4bfd-b250-a1564b7709ae"
      },
      "code": [ {
        "coding": [ {
          "system": "2.16.840.1.113883.2.1.3.2.4.17.339",
          "code": "NP",
          "display": "Nurse Practitioner"
        } ]
      } ]
    }
  }, {
    "fullUrl": "urn:uuid:fb287a4a-aa28-4bfd-b250-a1564b7709ae",
    "resource": {
      "resourceType": "Organization",
      "id": "fb287a4a-aa28-4bfd-b250-a1564b7709ae",
      "identifier": [ {
        "value": "RX7"
      } ],
      "name": "NWAS 111"
    }
  }, {
    "fullUrl": "urn:uuid:4896c72c-d34d-4507-b36d-88ceebae12dc",
    "resource": {
      "resourceType": "RelatedPerson",
      "id": "4896c72c-d34d-4507-b36d-88ceebae12dc",
      "patient": {
        "reference": "urn:uuid:9a631728-a4f9-4cdf-81d4-efcd24475c46"
      },
      "relationship": {
        "coding": [ {
          "system": "http://hl7.org/fhir/v2/0131",
          "code": "C",
          "display": "Emergency Contact"
        } ]
      },
      "telecom": [ {
        "system": "phone",
        "value": "tel:07798501130"
      } ]
    }
  }, {
    "fullUrl": "urn:uuid:36a0047f-4c4c-40ed-b3e1-374df11d633a",
    "resource": {
      "resourceType": "Device",
      "id": "36a0047f-4c4c-40ed-b3e1-374df11d633a",
      "model": "111 Adaptor",
      "version": "1.0.1"
    }
  }, {
    "fullUrl": "urn:uuid:d5201297-95aa-439b-97c3-fed84bcc2d24",
    "resource": {
      "resourceType": "List",
      "id": "d5201297-95aa-439b-97c3-fed84bcc2d24",
      "status": "current",
      "mode": "working",
      "title": "111 Report List",
      "code": {
        "coding": [ {
          "system": "http://snomed.info/sct",
          "code": "225390008",
          "display": "Triage"
        } ]
      },
      "subject": {
        "reference": "urn:uuid:9a631728-a4f9-4cdf-81d4-efcd24475c46"
      },
      "encounter": {
        "reference": "urn:uuid:4c4f3a38-d0aa-4bf4-bd26-c0e676c0b22f"
      },
      "date": "2022-04-07T07:52:14+00:00",
      "source": {
        "reference": "urn:uuid:36a0047f-4c4c-40ed-b3e1-374df11d633a"
      },
      "orderedBy": {
        "coding": [ {
          "system": "http://hl7.org/fhir/list-order",
          "code": "event-date",
          "display": "Sorted by Event Date"
        } ]
      },
      "entry": [ {
        "item": {
          "reference": "urn:uuid:41a1efbb-7ab5-421c-a98d-c2934c56d059"
        }
      }, {
        "item": {
          "reference": "urn:uuid:4896c72c-d34d-4507-b36d-88ceebae12dc"
        }
      }, {
        "item": {
          "reference": "urn:uuid:c0ffa730-380c-4cef-a11e-d73191feb4be"
        }
      }, {
        "item": {
          "reference": "urn:uuid:75d490a0-8b26-465a-9ad9-068a8d0f84ce"
        }
      }, {
        "item": {
          "reference": "urn:uuid:9ba45c0f-48b1-4dd4-9478-14bf038f36ab"
        }
      }, {
        "item": {
          "reference": "urn:uuid:fb287a4a-aa28-4bfd-b250-a1564b7709ae"
        }
      }, {
        "item": {
          "reference": "urn:uuid:66d2ec83-fd74-4dc5-9e8f-ce1fcc175b4b"
        }
      }, {
        "item": {
          "reference": "urn:uuid:041314e7-6a87-4a54-80e3-adc284ff4efe"
        }
      }, {
        "item": {
          "reference": "urn:uuid:680e920b-b6aa-4cc4-ae14-1a25c26d0eb2"
        }
      }, {
        "item": {
          "reference": "urn:uuid:4b25e85c-4b9d-4a63-b528-e7db395620bf"
        }
      }, {
        "item": {
          "reference": "urn:uuid:cd1b6df3-0d27-4ebe-a477-f4982e2b65fb"
        }
      }, {
        "item": {
          "reference": "urn:uuid:d087febc-3d15-4a63-9c0d-0228022632c2"
        }
      }, {
        "item": {
          "reference": "urn:uuid:acf64e2a-082e-41fb-a92c-ff0df6b79196"
        }
      }, {
        "item": {
          "reference": "urn:uuid:f14fab0f-ccb6-49a6-9d66-ae0624725b35"
        }
      }, {
        "item": {
          "reference": "urn:uuid:60323a70-6a5e-4f6b-8fc6-1bcd31a5ba9a"
        }
      }, {
        "item": {
          "reference": "urn:uuid:b1e95ebf-5cc3-401e-9543-1ffcb93d755d"
        }
      }, {
        "item": {
          "reference": "urn:uuid:aa11ace4-b931-492d-9a2c-796b9c485ba6"
        }
      }, {
        "item": {
          "reference": "urn:uuid:49626a61-f1d6-4886-ad71-51556e6970bd"
        }
      }, {
        "item": {
          "reference": "urn:uuid:8debf6bb-0abe-424a-a95f-dad355df4bb2"
        }
      }, {
        "item": {
          "reference": "urn:uuid:8c0791c9-2f77-4c86-831e-b208c2274a8b"
        }
      }, {
        "item": {
          "reference": "urn:uuid:ded2607e-0188-4a5b-8409-3159a7d98887"
        }
      }, {
        "item": {
          "reference": "urn:uuid:c021d0e0-e9a9-4bca-ba6c-795043a4251c"
        }
      }, {
        "item": {
          "reference": "urn:uuid:509c435a-5b5d-4be7-93fe-479f7ff95b2f"
        }
      }, {
        "item": {
          "reference": "urn:uuid:a41dd427-39b0-4742-82ca-4af089cdc232"
        }
      }, {
        "item": {
          "reference": "urn:uuid:7286cb2f-3055-4a78-832e-aaa5cd88a6df"
        }
      }, {
        "item": {
          "reference": "urn:uuid:c0a99f4b-20c3-41b4-84e8-a5276766c889"
        }
      }, {
        "item": {
          "reference": "urn:uuid:3b58b77c-bd6f-4907-96d0-feef4ba24a06"
        }
      }, {
        "item": {
          "reference": "urn:uuid:1092eb18-7960-4c3b-bd1c-d12b33856043"
        }
      }, {
        "item": {
          "reference": "urn:uuid:d91ee0aa-77e5-4c9c-94b8-b4d92252c982"
        }
      }, {
        "item": {
          "reference": "urn:uuid:d0a771ac-19f5-497c-a377-33ebb1455dfc"
        }
      }, {
        "item": {
          "reference": "urn:uuid:de8d08b6-0cfc-4325-9f8b-209de37fd5d0"
        }
      }, {
        "item": {
          "reference": "urn:uuid:ece4ee3b-f568-4f8e-a652-c502ad0b3943"
        }
      }, {
        "item": {
          "reference": "urn:uuid:37312c9f-e83f-43d3-88b2-8ae5940eddba"
        }
      }, {
        "item": {
          "reference": "urn:uuid:3a2c4042-5911-486c-af4f-60618aaa6ef1"
        }
      }, {
        "item": {
          "reference": "urn:uuid:4630cf42-75cb-4894-8f31-59c954ee31bc"
        }
      }, {
        "item": {
          "reference": "urn:uuid:8297c9bc-d526-427a-ab35-73b7e74e7345"
        }
      }, {
        "item": {
          "reference": "urn:uuid:6c581b78-fb9c-4bfc-ba51-78acec99d3e3"
        }
      }, {
        "item": {
          "reference": "urn:uuid:fab47b2c-1630-4b99-ab58-cdded4ccffb5"
        }
      }, {
        "item": {
          "reference": "urn:uuid:ba3e6baa-6312-4373-b1fd-463d87c411c0"
        }
      }, {
        "item": {
          "reference": "urn:uuid:5e2dd7be-c6b2-42be-bb9d-d8c275e0394a"
        }
      }, {
        "item": {
          "reference": "urn:uuid:5a9ad636-8588-49fd-99cd-ee1a799d6ce9"
        }
      }, {
        "item": {
          "reference": "urn:uuid:d441f206-b03a-4169-a436-edea279e7042"
        }
      }, {
        "item": {
          "reference": "urn:uuid:89006da4-fb4a-4c26-bdc7-18b6aa576934"
        }
      }, {
        "item": {
          "reference": "urn:uuid:6273be28-c8e9-4473-a329-01a1614ccd7f"
        }
      }, {
        "item": {
          "reference": "urn:uuid:986c29b2-10c8-4c30-919c-6325bcb4cb3f"
        }
      }, {
        "item": {
          "reference": "urn:uuid:7aa27214-67a3-4ce7-8479-cf670920be31"
        }
      }, {
        "item": {
          "reference": "urn:uuid:181b7669-6b47-4c7a-89a9-4248a4ec5959"
        }
      }, {
        "item": {
          "reference": "urn:uuid:9646bf47-43c0-4b84-9e59-1a5cdb047096"
        }
      }, {
        "item": {
          "reference": "urn:uuid:f1f53d3a-b7a2-41ab-9235-1b1625b7d0f0"
        }
      }, {
        "item": {
          "reference": "urn:uuid:e9786787-f09d-4459-9d61-a7e46af98617"
        }
      }, {
        "item": {
          "reference": "urn:uuid:8b1ec6d8-0290-4331-99ec-4d2cbca250cd"
        }
      }, {
        "item": {
          "reference": "urn:uuid:e7ed3c4a-83bf-41fb-961b-9646c14ee88b"
        }
      }, {
        "item": {
          "reference": "urn:uuid:15e02b90-b1a3-49eb-99ac-ea81ed3671bc"
        }
      }, {
        "item": {
          "reference": "urn:uuid:184222b7-a9c5-4fe0-bf9c-c03669ab7f8e"
        }
      }, {
        "item": {
          "reference": "urn:uuid:f784a08b-e71d-487c-a7c7-fd19f9869e81"
        }
      }, {
        "item": {
          "reference": "urn:uuid:42350b0b-6a15-432a-9b1b-2042e72670f0"
        }
      }, {
        "item": {
          "reference": "urn:uuid:ed34c6ca-b8d8-48e6-b382-85519295cf93"
        }
      }, {
        "item": {
          "reference": "urn:uuid:8fc6d4f1-2437-45ad-9bc6-202214109010"
        }
      }, {
        "item": {
          "reference": "urn:uuid:68a0e9c5-2a7b-4368-aa36-9e5a8733bd1b"
        }
      }, {
        "item": {
          "reference": "urn:uuid:44c10fc9-1385-422e-9bf7-9fb9d9ef96bb"
        }
      }, {
        "item": {
          "reference": "urn:uuid:066cd301-d559-4c82-ab9a-983130cebadb"
        }
      }, {
        "item": {
          "reference": "urn:uuid:6fdba1d6-6520-43d0-a6a4-504ef28f377f"
        }
      }, {
        "item": {
          "reference": "urn:uuid:80b72f88-e740-4fc8-92cd-c9d3bf764f42"
        }
      }, {
        "item": {
          "reference": "urn:uuid:394c27c2-449a-40fd-8a58-faaf4028deac"
        }
      }, {
        "item": {
          "reference": "urn:uuid:54a0bb58-a8cf-47de-9cbd-da4ce4740961"
        }
      }, {
        "item": {
          "reference": "urn:uuid:0ee8cc59-974c-480e-b4f0-7c2ec04c6a52"
        }
      }, {
        "item": {
          "reference": "urn:uuid:b8e9af17-814b-484c-93f1-ca11f871aa01"
        }
      }, {
        "item": {
          "reference": "urn:uuid:bb91be02-1366-4a9d-9429-d2fd28415c5d"
        }
      }, {
        "item": {
          "reference": "urn:uuid:eb882bb6-f1a0-4e20-9161-1291bc3defc3"
        }
      }, {
        "item": {
          "reference": "urn:uuid:12d2f681-657c-425d-977c-80ff510a3c7c"
        }
      }, {
        "item": {
          "reference": "urn:uuid:5ae672d6-9495-4061-8562-1f41c59047bb"
        }
      }, {
        "item": {
          "reference": "urn:uuid:b96ff6d7-23de-405b-9e64-6e3c318e31c1"
        }
      }, {
        "item": {
          "reference": "urn:uuid:6318cbbb-e4a1-4b1a-9166-cc964d75578c"
        }
      } ]
    }
  } ]
}