{
  "resourceType": "Bundle",
  "identifier": {
    "type": {
      "text": "ClinicalDocument VersionNumber"
    },
    "value": "1"
  },
  "type": "message",
  "entry": [ {
    "fullUrl": "urn:uuid:C34D38AA-2A35-4E0C-AAB2-BCC8D397736A",
    "resource": {
      "resourceType": "MessageHeader",
      "id": "C34D38AA-2A35-4E0C-AAB2-BCC8D397736A",
      "event": {
        "system": "https://fhir.nhs.uk/STU3/CodeSystem/EventType-1",
        "code": "referral-1",
        "display": "Referral"
      },
      "destination": [ {
        "endpoint": "urn:nhs-uk:addressing:ods:A82018:DOSServiceID:136753"
      } ],
      "timestamp": "2021-08-03T13:07:14.000+00:00",
      "source": {
        "name": "NHS 111 Adaptor",
        "endpoint": "http://localhost:8080/report"
      },
      "reason": {
        "coding": [ {
          "system": "urn:nhs-itk:ns:201005:interaction",
          "code": "urn:nhs-itk:interaction:primaryGeneralPractitionerRecipientNHS111CDADocument-v2-0"
        } ]
      }
    }
  }, {
    "fullUrl": "urn:uuid:66aba586-e8bb-4184-acbc-e1184cadcff2",
    "resource": {
      "resourceType": "Encounter",
      "id": "66aba586-e8bb-4184-acbc-e1184cadcff2",
      "identifier": [ {
        "system": "2.16.840.1.113883.2.1.3.2.4.18.49",
        "value": "6C072313-DFFB-4D60-9416-43B044FDBA9F"
      }, {
        "system": "2.16.840.1.113883.2.1.3.2.4.18.34",
        "value": "1766759"
      }, {
        "system": "2.16.840.1.113883.2.1.3.2.4.18.35",
        "value": "1766759"
      } ],
      "status": "finished",
      "type": [ {
        "text": "111 Encounter Referral"
      } ],
      "subject": {
        "reference": "urn:uuid:868dd4ba-a208-4588-b041-508992918042"
      },
      "participant": [ {
        "type": [ {
          "coding": [ {
            "system": "http://hl7.org/fhir/ValueSet/encounter-participant-type",
            "code": "PPRF",
            "display": "Author"
          } ]
        } ],
        "individual": {
          "reference": "urn:uuid:7bf20250-38fa-4d15-99c1-9e13fb6350f6"
        }
      } ],
      "period": {
        "start": "2021-08-03T13:07:14+00:00"
      },
      "location": [ {
        "location": {
          "reference": "urn:uuid:3fbd09b2-99a5-46c7-a2cc-cdbb99127460"
        },
        "status": "active"
      }, {
        "location": {
          "reference": "urn:uuid:a9374a86-f517-4f44-b28d-c31f193e5dfb"
        },
        "status": "completed"
      } ],
      "serviceProvider": {
        "reference": "urn:uuid:3c9da8b3-c335-470c-aa0a-08b6814ba9e3"
      }
    }
  }, {
    "fullUrl": "urn:uuid:3c9da8b3-c335-470c-aa0a-08b6814ba9e3",
    "resource": {
      "resourceType": "Organization",
      "id": "3c9da8b3-c335-470c-aa0a-08b6814ba9e3",
      "active": true,
      "type": [ {
        "text": "CST"
      } ],
      "name": "NWAS 111"
    }
  }, {
    "fullUrl": "urn:uuid:7bf20250-38fa-4d15-99c1-9e13fb6350f6",
    "resource": {
      "resourceType": "Practitioner",
      "id": "7bf20250-38fa-4d15-99c1-9e13fb6350f6",
      "active": true,
      "name": [ {
        "text": "AndrewJ.Walford"
      } ]
    }
  }, {
    "fullUrl": "urn:uuid:3fbd09b2-99a5-46c7-a2cc-cdbb99127460",
    "resource": {
      "resourceType": "Location",
      "id": "3fbd09b2-99a5-46c7-a2cc-cdbb99127460",
      "managingOrganization": {
        "reference": "urn:uuid:28076a3c-0ee7-44f5-9738-a81d6818b23f"
      }
    }
  }, {
    "fullUrl": "urn:uuid:28076a3c-0ee7-44f5-9738-a81d6818b23f",
    "resource": {
      "resourceType": "Organization",
      "id": "28076a3c-0ee7-44f5-9738-a81d6818b23f",
      "identifier": [ {
        "value": "A82018"
      } ],
      "type": [ {
        "text": "GP Practice"
      } ],
      "name": "Spencer St Surgery",
      "telecom": [ {
        "system": "phone",
        "value": "tel:01228529171",
        "use": "work"
      } ],
      "address": [ {
        "use": "work",
        "line": [ "Spencer Street Surgery", "10 Spencer Street", "Carlisle" ],
        "postalCode": "CA1 1BP"
      } ]
    }
  }, {
    "fullUrl": "urn:uuid:a9374a86-f517-4f44-b28d-c31f193e5dfb",
    "resource": {
      "resourceType": "Location",
      "id": "a9374a86-f517-4f44-b28d-c31f193e5dfb",
      "address": {
        "type": "physical",
        "line": [ "North West Ambulance Service Nhs Trust Salkeld Hall", "Infirmary Street", "Carlisle" ],
        "postalCode": "CA2 7AN"
      }
    }
  }, {
    "fullUrl": "urn:uuid:868dd4ba-a208-4588-b041-508992918042",
    "resource": {
      "resourceType": "Patient",
      "id": "868dd4ba-a208-4588-b041-508992918042",
      "active": true,
      "name": [ {
        "use": "official",
        "family": "Please Disregard",
        "given": [ "Dx09 Test" ]
      } ],
      "telecom": [ {
        "system": "phone",
        "value": "tel:07798501130",
        "use": "mobile"
      }, {
        "system": "phone",
        "value": "tel:07798501130"
      } ],
      "gender": "male",
      "birthDate": "1980-01-01",
      "address": [ {
        "use": "home",
        "line": [ "North West Ambulance Service Nhs Trust Salkeld Hall", "Infirmary Street", "Carlisle" ],
        "postalCode": "CA2 7AN"
      }, {
        "type": "physical",
        "line": [ "North West Ambulance Service Nhs Trust Salkeld Hall", "Infirmary Street", "Carlisle" ],
        "postalCode": "CA2 7AN"
      } ],
      "generalPractitioner": [ {
        "reference": "urn:uuid:619545b1-5013-4d6a-95b7-e6e29283d011"
      } ]
    }
  }, {
    "fullUrl": "urn:uuid:619545b1-5013-4d6a-95b7-e6e29283d011",
    "resource": {
      "resourceType": "Organization",
      "id": "619545b1-5013-4d6a-95b7-e6e29283d011",
      "identifier": [ {
        "value": "A82018"
      } ],
      "type": [ {
        "text": "GP Practice"
      } ],
      "name": "Spencer St Surgery",
      "telecom": [ {
        "system": "phone",
        "value": "tel:01228529171",
        "use": "work"
      } ],
      "address": [ {
        "use": "work",
        "line": [ "Spencer Street Surgery", "10 Spencer Street", "Carlisle" ],
        "postalCode": "CA1 1BP"
      } ]
    }
  }, {
    "fullUrl": "urn:uuid:fbb2ccc7-b6ba-4ea0-9ca6-8dd5cef17530",
    "resource": {
      "resourceType": "HealthcareService",
      "id": "fbb2ccc7-b6ba-4ea0-9ca6-8dd5cef17530",
      "active": true,
      "providedBy": {
        "reference": "urn:uuid:cb46b19f-f30b-4e1d-9bbf-36e08608ce78"
      },
      "location": [ {
        "reference": "urn:uuid:90451f1d-5da3-4bce-89e1-7a2aeab8879a"
      } ],
      "name": "Spencer St Surgery",
      "telecom": [ {
        "system": "phone",
        "value": "tel:01228529171",
        "use": "work"
      } ]
    }
  }, {
    "fullUrl": "urn:uuid:90451f1d-5da3-4bce-89e1-7a2aeab8879a",
    "resource": {
      "resourceType": "Location",
      "id": "90451f1d-5da3-4bce-89e1-7a2aeab8879a",
      "telecom": [ {
        "system": "phone",
        "value": "tel:01228529171",
        "use": "work"
      } ],
      "address": {
        "use": "work",
        "line": [ "Spencer Street Surgery", "10 Spencer Street", "Carlisle" ],
        "postalCode": "CA1 1BP"
      },
      "managingOrganization": {
        "reference": "urn:uuid:cb46b19f-f30b-4e1d-9bbf-36e08608ce78"
      }
    }
  }, {
    "fullUrl": "urn:uuid:cb46b19f-f30b-4e1d-9bbf-36e08608ce78",
    "resource": {
      "resourceType": "Organization",
      "id": "cb46b19f-f30b-4e1d-9bbf-36e08608ce78",
      "identifier": [ {
        "value": "A82018"
      } ],
      "type": [ {
        "coding": [ {
          "code": "PRCP",
          "display": "Spencer St Surgery"
        } ]
      } ],
      "name": "Spencer St Surgery"
    }
  }, {
    "fullUrl": "urn:uuid:e025a79c-e111-4065-8021-a8e1d18faa73",
    "resource": {
      "resourceType": "ReferralRequest",
      "id": "e025a79c-e111-4065-8021-a8e1d18faa73",
      "status": "active",
      "intent": "plan",
      "priority": "routine",
      "subject": {
        "reference": "urn:uuid:868dd4ba-a208-4588-b041-508992918042"
      },
      "context": {
        "reference": "urn:uuid:66aba586-e8bb-4184-acbc-e1184cadcff2"
      },
      "occurrencePeriod": {
        "start": "2022-04-07T07:52:14+00:00",
        "end": "2022-04-07T08:52:14+00:00"
      },
      "authoredOn": "2021-08-03T12:36:56+00:00",
      "requester": {
        "agent": {
          "reference": "urn:uuid:e7256115-163c-48fc-944b-ff74a79a39d2"
        },
        "onBehalfOf": {
          "reference": "urn:uuid:3c9da8b3-c335-470c-aa0a-08b6814ba9e3"
        }
      },
      "recipient": [ {
        "reference": "urn:uuid:f8666bc9-e9f1-4bde-b7c4-c2a84b3b5db0"
      }, {
        "reference": "urn:uuid:fbb2ccc7-b6ba-4ea0-9ca6-8dd5cef17530"
      } ],
      "reasonReference": [ {
        "reference": "urn:uuid:5a01e0ea-0f2e-481b-9750-26eb129e5cd6"
      } ],
      "supportingInfo": [ {
        "reference": "urn:uuid:95288ff2-1790-44b2-b8d2-a73394e4ac1c"
      } ]
    }
  }, {
    "fullUrl": "urn:uuid:95288ff2-1790-44b2-b8d2-a73394e4ac1c",
    "resource": {
      "resourceType": "ProcedureRequest",
      "id": "95288ff2-1790-44b2-b8d2-a73394e4ac1c",
      "status": "active",
      "intent": "plan",
      "priority": "routine",
      "doNotPerform": false,
      "code": {
        "coding": [ {
          "system": "2.16.840.1.113883.2.1.3.2.4.17.325",
          "code": "Dx09",
          "display": "For Persistent Or Recurrent Symptoms: Get In Touch With A Local Service For A Non-urgent Appointment"
        } ]
      },
      "subject": {
        "reference": "urn:uuid:868dd4ba-a208-4588-b041-508992918042"
      },
      "occurrencePeriod": {
        "start": "2022-04-07T07:52:14+00:00",
        "end": "2022-04-07T08:52:14+00:00"
      },
      "reasonReference": [ {
        "reference": "urn:uuid:5a01e0ea-0f2e-481b-9750-26eb129e5cd6"
      } ]
    }
  }, {
    "fullUrl": "urn:uuid:f8666bc9-e9f1-4bde-b7c4-c2a84b3b5db0",
    "resource": {
      "resourceType": "Practitioner",
      "id": "f8666bc9-e9f1-4bde-b7c4-c2a84b3b5db0",
      "active": true,
      "address": [ {
        "type": "physical",
        "line": [ "Spencer Street Surgery", "Spencer Street", "Carlisle" ],
        "postalCode": "CA1 1BP"
      } ]
    }
  }, {
    "fullUrl": "urn:uuid:aea7232a-564f-41f3-9616-92a84f6d08f9",
    "resource": {
      "resourceType": "Composition",
      "id": "aea7232a-564f-41f3-9616-92a84f6d08f9",
      "identifier": {
        "use": "usual",
        "value": "B5A4AC85-5A10-4D08-B956-83421A24BB81"
      },
      "status": "final",
      "type": {
        "coding": [ {
          "system": "http://snomed.info/sct",
          "code": "371531000",
          "display": "Report of clinical encounter (record artifact)"
        } ]
      },
      "subject": {
        "reference": "urn:uuid:868dd4ba-a208-4588-b041-508992918042"
      },
      "encounter": {
        "reference": "urn:uuid:66aba586-e8bb-4184-acbc-e1184cadcff2"
      },
      "date": "2022-04-07T07:52:14+00:00",
      "author": [ {
        "reference": "urn:uuid:7bf20250-38fa-4d15-99c1-9e13fb6350f6"
      } ],
      "title": "111 Report",
      "confidentiality": "N",
      "section": [ {
        "section": [ {
          "title": "Patient's Reported Condition",
          "text": {
            "status": "generated",
            "div": "<div xmlns=\"http://www.w3.org/1999/xhtml\">**test From Nwas111 - No Action Required - Please Disregard Test</div>"
          }
        }, {
          "title": "Case Summary",
          "text": {
            "status": "generated",
            "div": "<div xmlns=\"http://www.w3.org/1999/xhtml\">&lt;content styleCode=&quot;bold&quot;&gt;Pathways Disposition: Dx09&lt;/content&gt;\n                                                    &lt;br/&gt;\n                                                    &lt;content&gt;For Persistent Or Recurrent Symptoms: Get In Touch With A Local Service For A Non-urgent Appointment&lt;/content&gt;\n                                                    &lt;br/&gt;\n                                                    &lt;br/&gt;\n                                                    &lt;content styleCode=&quot;bold&quot;&gt;Consultation Summary:&lt;/content&gt;\n                                                    &lt;br/&gt;\n                                                    &lt;content&gt;Illness - '**Test From NWAS111 - No Action required - Please Disregard Test case**'&lt;/content&gt;\n                                                    &lt;br/&gt;\n                                                    &lt;content&gt;Warm to touch&lt;/content&gt;\n                                                    &lt;br/&gt;\n                                                    &lt;content&gt;Head lice&lt;/content&gt;\n                                                    &lt;br/&gt;\n                                                    &lt;content&gt;Head lice contact&lt;/content&gt;\n                                                    &lt;br/&gt;\n                                                    &lt;content&gt;Recent sudden loss of clumps of hair&lt;/content&gt;\n                                                    &lt;br/&gt;\n                                                    &lt;br/&gt;\n                                                    &lt;content styleCode=&quot;bold&quot;&gt;Pathways Assessment:&lt;/content&gt;\n                                                    &lt;br/&gt;\n                                                    &lt;content&gt;An injury or health problem was the reason for the contact.&lt;/content&gt;\n                                                    &lt;br/&gt;\n                                                    &lt;content&gt;User comment - '**Test From NWAS111 - No Action required - Please Disregard Test case**'&lt;/content&gt;\n                                                    &lt;br/&gt;\n                                                    &lt;content&gt;Heavy bleeding had not occurred in the previous 2 hours.&lt;/content&gt;\n                                                    &lt;br/&gt;\n                                                    &lt;content&gt;An illness or health problem was the main problem.&lt;/content&gt;\n                                                    &lt;br/&gt;\n                                                    &lt;content&gt;User comment - '**Test From NWAS111 - No Action required - Please Disregard Test case**'&lt;/content&gt;\n                                                    &lt;br/&gt;\n                                                    &lt;content&gt;The individual was not fighting for breath.&lt;/content&gt;\n                                                    &lt;br/&gt;\n                                                    &lt;content&gt;The main reason for the assessment was not an allergic reaction, heart attack, chest/upper back pain, probable stroke, recent fit/seizure or suicide attempt.&lt;/content&gt;\n                                                    &lt;br/&gt;\n                                                    &lt;content&gt;The main reason for contact was not new confusion, declared diabetic hypo/hyperglycaemia, or ICD shock.&lt;/content&gt;\n                                                    &lt;br/&gt;\n                                                    &lt;content&gt;The skin on the torso felt normal, warm or hot.&lt;/content&gt;\n                                                    &lt;br/&gt;\n                                                    &lt;content&gt;Pathway selected - Skin Problems&lt;/content&gt;\n                                                    &lt;br/&gt;\n                                                    &lt;content&gt;The main problem was not a rash, itch, jaundice, skin lumps or abnormal bruising.&lt;/content&gt;\n                                                    &lt;br/&gt;\n                                                    &lt;content&gt;The main problem was head lice.&lt;/content&gt;\n                                                    &lt;br/&gt;\n                                                    &lt;content&gt;There had been contact with somebody with head lice.&lt;/content&gt;\n                                                    &lt;br/&gt;\n                                                    &lt;content&gt;There was recent patchy hair loss.&lt;/content&gt;\n                                                    &lt;br/&gt;\n                                                    &lt;content&gt;User comment - 'GP - Spencer Street Surgery - Cumbria (Home GP)'&lt;/content&gt;\n                                                    &lt;br/&gt;\n                                                    &lt;br/&gt;\n                                                    &lt;content styleCode=&quot;bold&quot;&gt;Advice Given:&lt;/content&gt;\n                                                    &lt;br/&gt;\n                                                    &lt;content&gt;Head lice is common. Speak to a pharmacist for advice on suitable treatments.&lt;/content&gt;\n                                                    &lt;br/&gt;\n                                                    &lt;br/&gt;</div>"
          }
        } ]
      }, {
        "title": "ReferralRequest",
        "entry": [ {
          "reference": "urn:uuid:e025a79c-e111-4065-8021-a8e1d18faa73"
        } ]
      }, {
        "title": "QuestionnaireResponse",
        "entry": [ {
          "reference": "urn:uuid:e8c1a53a-8603-44b8-81b2-5439af42f813"
        } ]
      }, {
        "title": "QuestionnaireResponse",
        "entry": [ {
          "reference": "urn:uuid:f60278b3-1f1f-418d-8fb9-278654b62003"
        } ]
      }, {
        "title": "QuestionnaireResponse",
        "entry": [ {
          "reference": "urn:uuid:baa650dd-5c21-4751-bb4f-f86d0e83a657"
        } ]
      }, {
        "title": "QuestionnaireResponse",
        "entry": [ {
          "reference": "urn:uuid:a50fbc76-d302-4b9d-832c-4835f27da8de"
        } ]
      }, {
        "title": "QuestionnaireResponse",
        "entry": [ {
          "reference": "urn:uuid:a55c4778-27fd-4273-be13-aa6359717b81"
        } ]
      }, {
        "title": "QuestionnaireResponse",
        "entry": [ {
          "reference": "urn:uuid:fc14934a-bc20-490b-a031-9e96f194a08a"
        } ]
      }, {
        "title": "QuestionnaireResponse",
        "entry": [ {
          "reference": "urn:uuid:71f1f076-4e46-42b0-b2f8-99bca4288e7b"
        } ]
      }, {
        "title": "QuestionnaireResponse",
        "entry": [ {
          "reference": "urn:uuid:5c29f370-b871-4711-ba12-f2e9885c18c7"
        } ]
      }, {
        "title": "QuestionnaireResponse",
        "entry": [ {
          "reference": "urn:uuid:5f344d94-9023-433b-82d5-c5fa03451af3"
        } ]
      }, {
        "title": "QuestionnaireResponse",
        "entry": [ {
          "reference": "urn:uuid:850eeb59-1f0e-47a3-b48c-530aef554977"
        } ]
      }, {
        "title": "QuestionnaireResponse",
        "entry": [ {
          "reference": "urn:uuid:2f06c1ec-352a-4b57-92cb-f75e0a3b6d29"
        } ]
      }, {
        "title": "QuestionnaireResponse",
        "entry": [ {
          "reference": "urn:uuid:0317bd08-ea02-402e-8943-afe028639e52"
        } ]
      }, {
        "title": "QuestionnaireResponse",
        "entry": [ {
          "reference": "urn:uuid:3ec00379-5f8a-4033-8b29-fd7eb366054e"
        } ]
      }, {
        "title": "QuestionnaireResponse",
        "entry": [ {
          "reference": "urn:uuid:314f71c0-c2c7-4ff0-a9a3-de8599cfdbd4"
        } ]
      }, {
        "title": "QuestionnaireResponse",
        "entry": [ {
          "reference": "urn:uuid:dad43f76-3b4c-49e3-9051-4bf2c4111d86"
        } ]
      }, {
        "title": "QuestionnaireResponse",
        "entry": [ {
          "reference": "urn:uuid:6d3b7247-0d8d-4b95-b511-c6e567ef3346"
        } ]
      }, {
        "title": "QuestionnaireResponse",
        "entry": [ {
          "reference": "urn:uuid:63a8531d-a71c-421f-98b3-af8dfd069d83"
        } ]
      }, {
        "title": "QuestionnaireResponse",
        "entry": [ {
          "reference": "urn:uuid:92112ff6-abe3-4c3b-924e-90d0a190c738"
        } ]
      }, {
        "title": "QuestionnaireResponse",
        "entry": [ {
          "reference": "urn:uuid:1d94cfb5-6cfa-4a19-94c3-af68b6ca7a7b"
        } ]
      }, {
        "title": "QuestionnaireResponse",
        "entry": [ {
          "reference": "urn:uuid:23fedd47-c22b-4b07-90ef-920ed569e75b"
        } ]
      }, {
        "title": "QuestionnaireResponse",
        "entry": [ {
          "reference": "urn:uuid:e1c4e0a9-ab01-4373-a587-f4d1fe670da8"
        } ]
      } ]
    }
  }, {
    "fullUrl": "urn:uuid:27d5eac5-21fc-4760-b1b3-c756284be487",
    "resource": {
      "resourceType": "Consent",
      "id": "27d5eac5-21fc-4760-b1b3-c756284be487",
      "identifier": {
        "use": "usual",
        "value": "B5A4AC85-5A10-4D08-B956-83421A24BB81"
      },
      "status": "active",
      "patient": {
        "reference": "urn:uuid:868dd4ba-a208-4588-b041-508992918042"
      },
      "period": {
        "start": "2021-08-03T13:07:14+00:00"
      },
      "consentingParty": [ {
        "reference": "urn:uuid:868dd4ba-a208-4588-b041-508992918042"
      } ],
      "action": [ {
        "coding": [ {
          "system": "http://snomed.info/sct",
          "code": "425691002",
          "display": "Consent given for electronic record sharing"
        } ],
        "text": "Consent given for electronic record sharing"
      } ],
      "organization": [ {
        "reference": "urn:uuid:3c9da8b3-c335-470c-aa0a-08b6814ba9e3"
      } ],
      "policyRule": "http://hl7.org/fhir/ConsentPolicy/opt-out",
      "data": [ {
        "meaning": "related",
        "reference": {
          "reference": "urn:uuid:66aba586-e8bb-4184-acbc-e1184cadcff2"
        }
      } ]
    }
  }, {
    "fullUrl": "urn:uuid:5a01e0ea-0f2e-481b-9750-26eb129e5cd6",
    "resource": {
      "resourceType": "Condition",
      "id": "5a01e0ea-0f2e-481b-9750-26eb129e5cd6",
      "clinicalStatus": "active",
      "verificationStatus": "unknown",
      "subject": {
        "reference": "urn:uuid:868dd4ba-a208-4588-b041-508992918042"
      },
      "context": {
        "reference": "urn:uuid:66aba586-e8bb-4184-acbc-e1184cadcff2"
      },
      "evidence": [ {
        "detail": [ {
          "reference": "urn:uuid:e8c1a53a-8603-44b8-81b2-5439af42f813"
        } ]
      }, {
        "detail": [ {
          "reference": "urn:uuid:f60278b3-1f1f-418d-8fb9-278654b62003"
        } ]
      }, {
        "detail": [ {
          "reference": "urn:uuid:baa650dd-5c21-4751-bb4f-f86d0e83a657"
        } ]
      }, {
        "detail": [ {
          "reference": "urn:uuid:a50fbc76-d302-4b9d-832c-4835f27da8de"
        } ]
      }, {
        "detail": [ {
          "reference": "urn:uuid:a55c4778-27fd-4273-be13-aa6359717b81"
        } ]
      }, {
        "detail": [ {
          "reference": "urn:uuid:fc14934a-bc20-490b-a031-9e96f194a08a"
        } ]
      }, {
        "detail": [ {
          "reference": "urn:uuid:71f1f076-4e46-42b0-b2f8-99bca4288e7b"
        } ]
      }, {
        "detail": [ {
          "reference": "urn:uuid:5c29f370-b871-4711-ba12-f2e9885c18c7"
        } ]
      }, {
        "detail": [ {
          "reference": "urn:uuid:5f344d94-9023-433b-82d5-c5fa03451af3"
        } ]
      }, {
        "detail": [ {
          "reference": "urn:uuid:850eeb59-1f0e-47a3-b48c-530aef554977"
        } ]
      }, {
        "detail": [ {
          "reference": "urn:uuid:2f06c1ec-352a-4b57-92cb-f75e0a3b6d29"
        } ]
      }, {
        "detail": [ {
          "reference": "urn:uuid:0317bd08-ea02-402e-8943-afe028639e52"
        } ]
      }, {
        "detail": [ {
          "reference": "urn:uuid:3ec00379-5f8a-4033-8b29-fd7eb366054e"
        } ]
      }, {
        "detail": [ {
          "reference": "urn:uuid:314f71c0-c2c7-4ff0-a9a3-de8599cfdbd4"
        } ]
      }, {
        "detail": [ {
          "reference": "urn:uuid:dad43f76-3b4c-49e3-9051-4bf2c4111d86"
        } ]
      }, {
        "detail": [ {
          "reference": "urn:uuid:6d3b7247-0d8d-4b95-b511-c6e567ef3346"
        } ]
      }, {
        "detail": [ {
          "reference": "urn:uuid:63a8531d-a71c-421f-98b3-af8dfd069d83"
        } ]
      }, {
        "detail": [ {
          "reference": "urn:uuid:92112ff6-abe3-4c3b-924e-90d0a190c738"
        } ]
      }, {
        "detail": [ {
          "reference": "urn:uuid:1d94cfb5-6cfa-4a19-94c3-af68b6ca7a7b"
        } ]
      }, {
        "detail": [ {
          "reference": "urn:uuid:23fedd47-c22b-4b07-90ef-920ed569e75b"
        } ]
      }, {
        "detail": [ {
          "reference": "urn:uuid:e1c4e0a9-ab01-4373-a587-f4d1fe670da8"
        } ]
      } ]
    }
  }, {
    "fullUrl": "urn:uuid:e8c1a53a-8603-44b8-81b2-5439af42f813",
    "resource": {
      "resourceType": "QuestionnaireResponse",
      "id": "e8c1a53a-8603-44b8-81b2-5439af42f813",
      "identifier": {
        "value": "1766759"
      },
      "questionnaire": {
        "reference": "urn:uuid:0460ffae-6d72-4a16-85ab-dab03d26d17b"
      },
      "status": "completed",
      "subject": {
        "reference": "urn:uuid:868dd4ba-a208-4588-b041-508992918042"
      },
      "context": {
        "reference": "urn:uuid:66aba586-e8bb-4184-acbc-e1184cadcff2"
      },
      "authored": "2021-08-03T13:07:14+00:00",
      "item": [ {
        "linkId": "Tx220109",
        "text": "What is the reason for the contact?",
        "answer": [ {
          "valueString": "an injury or other health problem"
        } ]
      } ]
    }
  }, {
    "fullUrl": "urn:uuid:0460ffae-6d72-4a16-85ab-dab03d26d17b",
    "resource": {
      "resourceType": "Questionnaire",
      "id": "0460ffae-6d72-4a16-85ab-dab03d26d17b",
      "identifier": [ {
        "value": "1766759"
      } ],
      "version": "2021-08-03T13:07:14.000Z",
      "status": "active",
      "experimental": false,
      "date": "2021-08-03T13:07:14+00:00",
      "publisher": "User ID: '922' User name: 'AndrewJ.Walford' User skill set: 'T4'",
      "lastReviewDate": "2021-08-03",
      "contact": [ {
        "telecom": [ {
          "system": "phone",
          "value": "07798501130"
        } ]
      } ],
      "subjectType": [ "Patient" ],
      "item": [ {
        "linkId": "1766759",
        "prefix": "5",
        "text": "What is the reason for the contact?",
        "type": "choice",
        "required": true,
        "repeats": false,
        "option": [ {
          "valueString": "an injury or other health problem, Selected: true"
        }, {
          "valueString": "a need to access another healthcare service, Selected: false"
        }, {
          "valueString": "a healthcare professional requesting contact with another clinician, Selected: false"
        }, {
          "valueString": "a report of results or tests, Selected: false"
        }, {
          "valueString": "more, Selected: false"
        } ]
      } ]
    }
  }, {
    "fullUrl": "urn:uuid:f60278b3-1f1f-418d-8fb9-278654b62003",
    "resource": {
      "resourceType": "QuestionnaireResponse",
      "id": "f60278b3-1f1f-418d-8fb9-278654b62003",
      "identifier": {
        "value": "1766759"
      },
      "questionnaire": {
        "reference": "urn:uuid:e5e30178-25a8-40cf-b5e5-f91147701ac1"
      },
      "status": "completed",
      "subject": {
        "reference": "urn:uuid:868dd4ba-a208-4588-b041-508992918042"
      },
      "context": {
        "reference": "urn:uuid:66aba586-e8bb-4184-acbc-e1184cadcff2"
      },
      "authored": "2021-08-03T13:07:14+00:00",
      "item": [ {
        "linkId": "Tx221788",
        "text": "STRING:to'ImmediateThreatsToLife(SPA/OOHversion)'-'ABC'menu",
        "answer": [ {
          "valueString": "\"\"present\"\""
        } ]
      } ]
    }
  }, {
    "fullUrl": "urn:uuid:e5e30178-25a8-40cf-b5e5-f91147701ac1",
    "resource": {
      "resourceType": "Questionnaire",
      "id": "e5e30178-25a8-40cf-b5e5-f91147701ac1",
      "identifier": [ {
        "value": "1766759"
      } ],
      "version": "2021-08-03T13:07:14.000Z",
      "status": "active",
      "experimental": false,
      "date": "2021-08-03T13:07:14+00:00",
      "publisher": "User ID: '922' User name: 'AndrewJ.Walford' User skill set: 'T4'",
      "lastReviewDate": "2021-08-03",
      "contact": [ {
        "telecom": [ {
          "system": "phone",
          "value": "07798501130"
        } ]
      } ],
      "subjectType": [ "Patient" ],
      "item": [ {
        "linkId": "1766759",
        "prefix": "500",
        "text": "STRING:to'ImmediateThreatsToLife(SPA/OOHversion)'-'ABC'menu",
        "type": "choice",
        "required": true,
        "repeats": false,
        "option": [ {
          "valueString": "\"\"present\"\", Selected: true"
        } ]
      } ]
    }
  }, {
    "fullUrl": "urn:uuid:baa650dd-5c21-4751-bb4f-f86d0e83a657",
    "resource": {
      "resourceType": "QuestionnaireResponse",
      "id": "baa650dd-5c21-4751-bb4f-f86d0e83a657",
      "identifier": {
        "value": "1766759"
      },
      "questionnaire": {
        "reference": "urn:uuid:01f558a4-8260-4e74-893d-90368e4c43a4"
      },
      "status": "completed",
      "subject": {
        "reference": "urn:uuid:868dd4ba-a208-4588-b041-508992918042"
      },
      "context": {
        "reference": "urn:uuid:66aba586-e8bb-4184-acbc-e1184cadcff2"
      },
      "authored": "2021-08-03T13:07:14+00:00",
      "item": [ {
        "linkId": "Tx221814",
        "text": "STRING:aninjuryorotherhealthproblemestablishedinEntryFlow",
        "answer": [ {
          "valueString": "\"\"present\"\""
        } ]
      } ]
    }
  }, {
    "fullUrl": "urn:uuid:01f558a4-8260-4e74-893d-90368e4c43a4",
    "resource": {
      "resourceType": "Questionnaire",
      "id": "01f558a4-8260-4e74-893d-90368e4c43a4",
      "identifier": [ {
        "value": "1766759"
      } ],
      "version": "2021-08-03T13:07:14.000Z",
      "status": "active",
      "experimental": false,
      "date": "2021-08-03T13:07:14+00:00",
      "publisher": "User ID: '922' User name: 'AndrewJ.Walford' User skill set: 'T4'",
      "lastReviewDate": "2021-08-03",
      "contact": [ {
        "telecom": [ {
          "system": "phone",
          "value": "07798501130"
        } ]
      } ],
      "subjectType": [ "Patient" ],
      "item": [ {
        "linkId": "1766759",
        "prefix": "0",
        "text": "STRING:aninjuryorotherhealthproblemestablishedinEntryFlow",
        "type": "choice",
        "required": true,
        "repeats": false,
        "option": [ {
          "valueString": "\"\"present\"\", Selected: true"
        } ]
      } ]
    }
  }, {
    "fullUrl": "urn:uuid:a50fbc76-d302-4b9d-832c-4835f27da8de",
    "resource": {
      "resourceType": "QuestionnaireResponse",
      "id": "a50fbc76-d302-4b9d-832c-4835f27da8de",
      "identifier": {
        "value": "1766759"
      },
      "questionnaire": {
        "reference": "urn:uuid:4d5422a7-6c8e-4df4-9d7d-e031ff335bc9"
      },
      "status": "completed",
      "subject": {
        "reference": "urn:uuid:868dd4ba-a208-4588-b041-508992918042"
      },
      "context": {
        "reference": "urn:uuid:66aba586-e8bb-4184-acbc-e1184cadcff2"
      },
      "authored": "2021-08-03T13:07:14+00:00",
      "item": [ {
        "linkId": "Tx224120",
        "text": "Have you been bleeding RED BLOOD very heavily IN THE LAST 2 HOURS?",
        "answer": [ {
          "valueString": "no"
        } ]
      } ]
    }
  }, {
    "fullUrl": "urn:uuid:4d5422a7-6c8e-4df4-9d7d-e031ff335bc9",
    "resource": {
      "resourceType": "Questionnaire",
      "id": "4d5422a7-6c8e-4df4-9d7d-e031ff335bc9",
      "identifier": [ {
        "value": "1766759"
      } ],
      "version": "2021-08-03T13:07:14.000Z",
      "status": "active",
      "experimental": false,
      "date": "2021-08-03T13:07:14+00:00",
      "publisher": "User ID: '922' User name: 'AndrewJ.Walford' User skill set: 'T4'",
      "lastReviewDate": "2021-08-03",
      "contact": [ {
        "telecom": [ {
          "system": "phone",
          "value": "07798501130"
        } ]
      } ],
      "subjectType": [ "Patient" ],
      "item": [ {
        "linkId": "1766759",
        "prefix": "7000",
        "text": "Have you been bleeding RED BLOOD very heavily IN THE LAST 2 HOURS?",
        "type": "choice",
        "required": true,
        "repeats": false,
        "option": [ {
          "valueString": "yes, Selected: false"
        }, {
          "valueString": "not sure, Selected: false"
        }, {
          "valueString": "no, Selected: true"
        } ]
      } ]
    }
  }, {
    "fullUrl": "urn:uuid:a55c4778-27fd-4273-be13-aa6359717b81",
    "resource": {
      "resourceType": "QuestionnaireResponse",
      "id": "a55c4778-27fd-4273-be13-aa6359717b81",
      "identifier": {
        "value": "1766759"
      },
      "questionnaire": {
        "reference": "urn:uuid:a9f30946-8c3c-4b30-924f-88e5107e5489"
      },
      "status": "completed",
      "subject": {
        "reference": "urn:uuid:868dd4ba-a208-4588-b041-508992918042"
      },
      "context": {
        "reference": "urn:uuid:66aba586-e8bb-4184-acbc-e1184cadcff2"
      },
      "authored": "2021-08-03T13:07:14+00:00",
      "item": [ {
        "linkId": "Tx221343",
        "text": "SocialConcernsExcluded",
        "answer": [ {
          "valueString": "*"
        } ]
      } ]
    }
  }, {
    "fullUrl": "urn:uuid:a9f30946-8c3c-4b30-924f-88e5107e5489",
    "resource": {
      "resourceType": "Questionnaire",
      "id": "a9f30946-8c3c-4b30-924f-88e5107e5489",
      "identifier": [ {
        "value": "1766759"
      } ],
      "version": "2021-08-03T13:07:14.000Z",
      "status": "active",
      "experimental": false,
      "date": "2021-08-03T13:07:14+00:00",
      "publisher": "User ID: '922' User name: 'AndrewJ.Walford' User skill set: 'T4'",
      "lastReviewDate": "2021-08-03",
      "contact": [ {
        "telecom": [ {
          "system": "phone",
          "value": "07798501130"
        } ]
      } ],
      "subjectType": [ "Patient" ],
      "item": [ {
        "linkId": "1766759",
        "prefix": "2700",
        "text": "SocialConcernsExcluded",
        "type": "choice",
        "required": true,
        "repeats": false,
        "option": [ {
          "valueString": "==\"\"present\"\", Selected: false"
        }, {
          "valueString": "*, Selected: true"
        } ]
      } ]
    }
  }, {
    "fullUrl": "urn:uuid:fc14934a-bc20-490b-a031-9e96f194a08a",
    "resource": {
      "resourceType": "QuestionnaireResponse",
      "id": "fc14934a-bc20-490b-a031-9e96f194a08a",
      "identifier": {
        "value": "1766759"
      },
      "questionnaire": {
        "reference": "urn:uuid:d498c0fc-8b46-42c5-a1dd-8f68607b5e69"
      },
      "status": "completed",
      "subject": {
        "reference": "urn:uuid:868dd4ba-a208-4588-b041-508992918042"
      },
      "context": {
        "reference": "urn:uuid:66aba586-e8bb-4184-acbc-e1184cadcff2"
      },
      "authored": "2021-08-03T13:07:14+00:00",
      "item": [ {
        "linkId": "Tx130011",
        "text": "What is the main problem?",
        "answer": [ {
          "valueString": "illness or other health problem (specify)"
        } ]
      } ]
    }
  }, {
    "fullUrl": "urn:uuid:d498c0fc-8b46-42c5-a1dd-8f68607b5e69",
    "resource": {
      "resourceType": "Questionnaire",
      "id": "d498c0fc-8b46-42c5-a1dd-8f68607b5e69",
      "identifier": [ {
        "value": "1766759"
      } ],
      "version": "2021-08-03T13:07:14.000Z",
      "status": "active",
      "experimental": false,
      "date": "2021-08-03T13:07:14+00:00",
      "publisher": "User ID: '922' User name: 'AndrewJ.Walford' User skill set: 'T4'",
      "lastReviewDate": "2021-08-03",
      "contact": [ {
        "telecom": [ {
          "system": "phone",
          "value": "07798501130"
        } ]
      } ],
      "subjectType": [ "Patient" ],
      "item": [ {
        "linkId": "1766759",
        "prefix": "3400",
        "text": "What is the main problem?",
        "type": "choice",
        "required": true,
        "repeats": false,
        "option": [ {
          "valueString": "the individual has been told to follow a particular course of action (specify), Selected: false"
        }, {
          "valueString": "the individual is an identified frequent caller, Selected: false"
        }, {
          "valueString": "injury (specify), Selected: false"
        }, {
          "valueString": "illness or other health problem (specify), Selected: true"
        }, {
          "valueString": "child protection/vulnerable adult concern, Selected: false"
        }, {
          "valueString": "social or domestic emergency, Selected: false"
        }, {
          "valueString": "the environment potentially poses an immediate threat to life (specify), Selected: false"
        } ]
      } ]
    }
  }, {
    "fullUrl": "urn:uuid:71f1f076-4e46-42b0-b2f8-99bca4288e7b",
    "resource": {
      "resourceType": "QuestionnaireResponse",
      "id": "71f1f076-4e46-42b0-b2f8-99bca4288e7b",
      "identifier": {
        "value": "1766759"
      },
      "questionnaire": {
        "reference": "urn:uuid:e0eb8881-aeb3-4a14-aa12-f7a03ed6684e"
      },
      "status": "completed",
      "subject": {
        "reference": "urn:uuid:868dd4ba-a208-4588-b041-508992918042"
      },
      "context": {
        "reference": "urn:uuid:66aba586-e8bb-4184-acbc-e1184cadcff2"
      },
      "authored": "2021-08-03T13:07:14+00:00",
      "item": [ {
        "linkId": "Tx61025",
        "text": "Are you so breathless that speaking more than a few words is impossible?",
        "answer": [ {
          "valueString": "no"
        } ]
      } ]
    }
  }, {
    "fullUrl": "urn:uuid:e0eb8881-aeb3-4a14-aa12-f7a03ed6684e",
    "resource": {
      "resourceType": "Questionnaire",
      "id": "e0eb8881-aeb3-4a14-aa12-f7a03ed6684e",
      "identifier": [ {
        "value": "1766759"
      } ],
      "version": "2021-08-03T13:07:14.000Z",
      "status": "active",
      "experimental": false,
      "date": "2021-08-03T13:07:14+00:00",
      "publisher": "User ID: '922' User name: 'AndrewJ.Walford' User skill set: 'T4'",
      "lastReviewDate": "2021-08-03",
      "contact": [ {
        "telecom": [ {
          "system": "phone",
          "value": "07798501130"
        } ]
      } ],
      "subjectType": [ "Patient" ],
      "item": [ {
        "linkId": "1766759",
        "prefix": "0",
        "text": "Are you so breathless that speaking more than a few words is impossible?",
        "type": "choice",
        "required": true,
        "repeats": false,
        "option": [ {
          "valueString": "yes, Selected: false"
        }, {
          "valueString": "not sure, Selected: false"
        }, {
          "valueString": "no, Selected: true"
        } ]
      } ]
    }
  }, {
    "fullUrl": "urn:uuid:5c29f370-b871-4711-ba12-f2e9885c18c7",
    "resource": {
      "resourceType": "QuestionnaireResponse",
      "id": "5c29f370-b871-4711-ba12-f2e9885c18c7",
      "identifier": {
        "value": "1766759"
      },
      "questionnaire": {
        "reference": "urn:uuid:485172e7-fccb-46f9-8c27-70e283a072dc"
      },
      "status": "completed",
      "subject": {
        "reference": "urn:uuid:868dd4ba-a208-4588-b041-508992918042"
      },
      "context": {
        "reference": "urn:uuid:66aba586-e8bb-4184-acbc-e1184cadcff2"
      },
      "authored": "2021-08-03T13:07:14+00:00",
      "item": [ {
        "linkId": "Tx220845",
        "text": "SYSTEM_FLUPANDEMIC",
        "answer": [ {
          "valueString": "*"
        } ]
      } ]
    }
  }, {
    "fullUrl": "urn:uuid:485172e7-fccb-46f9-8c27-70e283a072dc",
    "resource": {
      "resourceType": "Questionnaire",
      "id": "485172e7-fccb-46f9-8c27-70e283a072dc",
      "identifier": [ {
        "value": "1766759"
      } ],
      "version": "2021-08-03T13:07:14.000Z",
      "status": "active",
      "experimental": false,
      "date": "2021-08-03T13:07:14+00:00",
      "publisher": "User ID: '922' User name: 'AndrewJ.Walford' User skill set: 'T4'",
      "lastReviewDate": "2021-08-03",
      "contact": [ {
        "telecom": [ {
          "system": "phone",
          "value": "07798501130"
        } ]
      } ],
      "subjectType": [ "Patient" ],
      "item": [ {
        "linkId": "1766759",
        "prefix": "100",
        "text": "SYSTEM_FLUPANDEMIC",
        "type": "choice",
        "required": true,
        "repeats": false,
        "option": [ {
          "valueString": "==\"\"pandemic\"\", Selected: false"
        }, {
          "valueString": "*, Selected: true"
        } ]
      } ]
    }
  }, {
    "fullUrl": "urn:uuid:5f344d94-9023-433b-82d5-c5fa03451af3",
    "resource": {
      "resourceType": "QuestionnaireResponse",
      "id": "5f344d94-9023-433b-82d5-c5fa03451af3",
      "identifier": {
        "value": "1766759"
      },
      "questionnaire": {
        "reference": "urn:uuid:3920aa64-ad2b-42c4-86cc-4f2df168e917"
      },
      "status": "completed",
      "subject": {
        "reference": "urn:uuid:868dd4ba-a208-4588-b041-508992918042"
      },
      "context": {
        "reference": "urn:uuid:66aba586-e8bb-4184-acbc-e1184cadcff2"
      },
      "authored": "2021-08-03T13:07:14+00:00",
      "item": [ {
        "linkId": "Tx223440",
        "text": "WHAT IS SAID TO BE THE MAIN REASON FOR THIS CONTACT?",
        "answer": [ {
          "valueString": "more"
        } ]
      } ]
    }
  }, {
    "fullUrl": "urn:uuid:3920aa64-ad2b-42c4-86cc-4f2df168e917",
    "resource": {
      "resourceType": "Questionnaire",
      "id": "3920aa64-ad2b-42c4-86cc-4f2df168e917",
      "identifier": [ {
        "value": "1766759"
      } ],
      "version": "2021-08-03T13:07:14.000Z",
      "status": "active",
      "experimental": false,
      "date": "2021-08-03T13:07:14+00:00",
      "publisher": "User ID: '922' User name: 'AndrewJ.Walford' User skill set: 'T4'",
      "lastReviewDate": "2021-08-03",
      "contact": [ {
        "telecom": [ {
          "system": "phone",
          "value": "07798501130"
        } ]
      } ],
      "subjectType": [ "Patient" ],
      "item": [ {
        "linkId": "1766759",
        "prefix": "5000",
        "text": "WHAT IS SAID TO BE THE MAIN REASON FOR THIS CONTACT?",
        "type": "choice",
        "required": true,
        "repeats": false,
        "option": [ {
          "valueString": "a probable allergic reaction now, Selected: false"
        }, {
          "valueString": "a probable heart attack, Selected: false"
        }, {
          "valueString": "chest or upper back pain, Selected: false"
        }, {
          "valueString": "a probable stroke or mini-stroke, Selected: false"
        }, {
          "valueString": "a probable fit or seizure within the last 12 hours, Selected: false"
        }, {
          "valueString": "a suicide attempt, Selected: false"
        }, {
          "valueString": "more, Selected: true"
        } ]
      } ]
    }
  }, {
    "fullUrl": "urn:uuid:850eeb59-1f0e-47a3-b48c-530aef554977",
    "resource": {
      "resourceType": "QuestionnaireResponse",
      "id": "850eeb59-1f0e-47a3-b48c-530aef554977",
      "identifier": {
        "value": "1766759"
      },
      "questionnaire": {
        "reference": "urn:uuid:f714627d-ea93-4b14-943b-0c2414c89823"
      },
      "status": "completed",
      "subject": {
        "reference": "urn:uuid:868dd4ba-a208-4588-b041-508992918042"
      },
      "context": {
        "reference": "urn:uuid:66aba586-e8bb-4184-acbc-e1184cadcff2"
      },
      "authored": "2021-08-03T13:07:14+00:00",
      "item": [ {
        "linkId": "Tx220032",
        "text": "WHAT IS SAID TO BE THE MAIN REASON FOR THIS CONTACT?",
        "answer": [ {
          "valueString": "none of the above"
        } ]
      } ]
    }
  }, {
    "fullUrl": "urn:uuid:f714627d-ea93-4b14-943b-0c2414c89823",
    "resource": {
      "resourceType": "Questionnaire",
      "id": "f714627d-ea93-4b14-943b-0c2414c89823",
      "identifier": [ {
        "value": "1766759"
      } ],
      "version": "2021-08-03T13:07:14.000Z",
      "status": "active",
      "experimental": false,
      "date": "2021-08-03T13:07:14+00:00",
      "publisher": "User ID: '922' User name: 'AndrewJ.Walford' User skill set: 'T4'",
      "lastReviewDate": "2021-08-03",
      "contact": [ {
        "telecom": [ {
          "system": "phone",
          "value": "07798501130"
        } ]
      } ],
      "subjectType": [ "Patient" ],
      "item": [ {
        "linkId": "1766759",
        "prefix": "1900",
        "text": "WHAT IS SAID TO BE THE MAIN REASON FOR THIS CONTACT?",
        "type": "choice",
        "required": true,
        "repeats": false,
        "option": [ {
          "valueString": "new confusion now, Selected: false"
        }, {
          "valueString": "a diabetic hypo (low blood sugar) or a diabetic hyper (high blood sugar), Selected: false"
        }, {
          "valueString": "recovery from an ICD (implanted cardioverter defibrillator) shock, Selected: false"
        }, {
          "valueString": "none of the above, Selected: true"
        } ]
      } ]
    }
  }, {
    "fullUrl": "urn:uuid:2f06c1ec-352a-4b57-92cb-f75e0a3b6d29",
    "resource": {
      "resourceType": "QuestionnaireResponse",
      "id": "2f06c1ec-352a-4b57-92cb-f75e0a3b6d29",
      "identifier": {
        "value": "1766759"
      },
      "questionnaire": {
        "reference": "urn:uuid:7b6cb580-bb21-48db-9dbe-6cdf2f67e68f"
      },
      "status": "completed",
      "subject": {
        "reference": "urn:uuid:868dd4ba-a208-4588-b041-508992918042"
      },
      "context": {
        "reference": "urn:uuid:66aba586-e8bb-4184-acbc-e1184cadcff2"
      },
      "authored": "2021-08-03T13:07:14+00:00",
      "item": [ {
        "linkId": "Tx223142",
        "text": "Does the skin on the chest, back or abdomen feel a normal temperature?",
        "answer": [ {
          "valueString": "yes - normal, warm or hot"
        } ]
      } ]
    }
  }, {
    "fullUrl": "urn:uuid:7b6cb580-bb21-48db-9dbe-6cdf2f67e68f",
    "resource": {
      "resourceType": "Questionnaire",
      "id": "7b6cb580-bb21-48db-9dbe-6cdf2f67e68f",
      "identifier": [ {
        "value": "1766759"
      } ],
      "version": "2021-08-03T13:07:14.000Z",
      "status": "active",
      "experimental": false,
      "date": "2021-08-03T13:07:14+00:00",
      "publisher": "User ID: '922' User name: 'AndrewJ.Walford' User skill set: 'T4'",
      "lastReviewDate": "2021-08-03",
      "contact": [ {
        "telecom": [ {
          "system": "phone",
          "value": "07798501130"
        } ]
      } ],
      "subjectType": [ "Patient" ],
      "item": [ {
        "linkId": "1766759",
        "prefix": "4000",
        "text": "Does the skin on the chest, back or abdomen feel a normal temperature?",
        "type": "choice",
        "required": true,
        "repeats": false,
        "option": [ {
          "valueString": "yes - normal, warm or hot, Selected: true"
        }, {
          "valueString": "not sure, Selected: false"
        }, {
          "valueString": "no - cool OR cold, Selected: false"
        }, {
          "valueString": "not safe to touch, Selected: false"
        } ]
      } ]
    }
  }, {
    "fullUrl": "urn:uuid:0317bd08-ea02-402e-8943-afe028639e52",
    "resource": {
      "resourceType": "QuestionnaireResponse",
      "id": "0317bd08-ea02-402e-8943-afe028639e52",
      "identifier": {
        "value": "1766759"
      },
      "questionnaire": {
        "reference": "urn:uuid:f61c619a-355f-44bf-97ee-873b8822a4fd"
      },
      "status": "completed",
      "subject": {
        "reference": "urn:uuid:868dd4ba-a208-4588-b041-508992918042"
      },
      "context": {
        "reference": "urn:uuid:66aba586-e8bb-4184-acbc-e1184cadcff2"
      },
      "authored": "2021-08-03T13:07:14+00:00",
      "item": [ {
        "linkId": "Tx221724",
        "text": "STRING:ShockAsked",
        "answer": [ {
          "valueString": "\"\"present\"\""
        } ]
      } ]
    }
  }, {
    "fullUrl": "urn:uuid:f61c619a-355f-44bf-97ee-873b8822a4fd",
    "resource": {
      "resourceType": "Questionnaire",
      "id": "f61c619a-355f-44bf-97ee-873b8822a4fd",
      "identifier": [ {
        "value": "1766759"
      } ],
      "version": "2021-08-03T13:07:14.000Z",
      "status": "active",
      "experimental": false,
      "date": "2021-08-03T13:07:14+00:00",
      "publisher": "User ID: '922' User name: 'AndrewJ.Walford' User skill set: 'T4'",
      "lastReviewDate": "2021-08-03",
      "contact": [ {
        "telecom": [ {
          "system": "phone",
          "value": "07798501130"
        } ]
      } ],
      "subjectType": [ "Patient" ],
      "item": [ {
        "linkId": "1766759",
        "prefix": "3300",
        "text": "STRING:ShockAsked",
        "type": "choice",
        "required": true,
        "repeats": false,
        "option": [ {
          "valueString": "\"\"present\"\", Selected: true"
        } ]
      } ]
    }
  }, {
    "fullUrl": "urn:uuid:3ec00379-5f8a-4033-8b29-fd7eb366054e",
    "resource": {
      "resourceType": "QuestionnaireResponse",
      "id": "3ec00379-5f8a-4033-8b29-fd7eb366054e",
      "identifier": {
        "value": "1766759"
      },
      "questionnaire": {
        "reference": "urn:uuid:b77bf515-facb-4f84-b2ad-34fc2f76669b"
      },
      "status": "completed",
      "subject": {
        "reference": "urn:uuid:868dd4ba-a208-4588-b041-508992918042"
      },
      "context": {
        "reference": "urn:uuid:66aba586-e8bb-4184-acbc-e1184cadcff2"
      },
      "authored": "2021-08-03T13:07:14+00:00"
    }
  }, {
    "fullUrl": "urn:uuid:b77bf515-facb-4f84-b2ad-34fc2f76669b",
    "resource": {
      "resourceType": "Questionnaire",
      "id": "b77bf515-facb-4f84-b2ad-34fc2f76669b",
      "identifier": [ {
        "value": "1766759"
      } ],
      "version": "2021-08-03T13:07:14.000Z",
      "status": "active",
      "experimental": false,
      "date": "2021-08-03T13:07:14+00:00",
      "publisher": "User ID: '922' User name: 'AndrewJ.Walford' User skill set: 'T4'",
      "lastReviewDate": "2021-08-03",
      "contact": [ {
        "telecom": [ {
          "system": "phone",
          "value": "07798501130"
        } ]
      } ],
      "subjectType": [ "Patient" ]
    }
  }, {
    "fullUrl": "urn:uuid:314f71c0-c2c7-4ff0-a9a3-de8599cfdbd4",
    "resource": {
      "resourceType": "QuestionnaireResponse",
      "id": "314f71c0-c2c7-4ff0-a9a3-de8599cfdbd4",
      "identifier": {
        "value": "1766759"
      },
      "questionnaire": {
        "reference": "urn:uuid:08608780-b786-422e-ac18-d3c8c6c34eb3"
      },
      "status": "completed",
      "subject": {
        "reference": "urn:uuid:868dd4ba-a208-4588-b041-508992918042"
      },
      "context": {
        "reference": "urn:uuid:66aba586-e8bb-4184-acbc-e1184cadcff2"
      },
      "authored": "2021-08-03T13:07:14+00:00",
      "item": [ {
        "linkId": "Tx222984",
        "text": "WHAT IS THE MAIN PROBLEM?",
        "answer": [ {
          "valueString": "more"
        } ]
      } ]
    }
  }, {
    "fullUrl": "urn:uuid:08608780-b786-422e-ac18-d3c8c6c34eb3",
    "resource": {
      "resourceType": "Questionnaire",
      "id": "08608780-b786-422e-ac18-d3c8c6c34eb3",
      "identifier": [ {
        "value": "1766759"
      } ],
      "version": "2021-08-03T13:07:14.000Z",
      "status": "active",
      "experimental": false,
      "date": "2021-08-03T13:07:14+00:00",
      "publisher": "User ID: '922' User name: 'AndrewJ.Walford' User skill set: 'T4'",
      "lastReviewDate": "2021-08-03",
      "contact": [ {
        "telecom": [ {
          "system": "phone",
          "value": "07798501130"
        } ]
      } ],
      "subjectType": [ "Patient" ],
      "item": [ {
        "linkId": "1766759",
        "prefix": "0",
        "text": "WHAT IS THE MAIN PROBLEM?",
        "type": "choice",
        "required": true,
        "repeats": false,
        "option": [ {
          "valueString": "a rash, Selected: false"
        }, {
          "valueString": "itch, Selected: false"
        }, {
          "valueString": "yellow skin, Selected: false"
        }, {
          "valueString": "skin lumps, Selected: false"
        }, {
          "valueString": "easy or unexplained bruising, Selected: false"
        }, {
          "valueString": "more, Selected: true"
        } ]
      } ]
    }
  }, {
    "fullUrl": "urn:uuid:dad43f76-3b4c-49e3-9051-4bf2c4111d86",
    "resource": {
      "resourceType": "QuestionnaireResponse",
      "id": "dad43f76-3b4c-49e3-9051-4bf2c4111d86",
      "identifier": {
        "value": "1766759"
      },
      "questionnaire": {
        "reference": "urn:uuid:b2b5ca86-f10e-4a74-9777-22cd04cd6946"
      },
      "status": "completed",
      "subject": {
        "reference": "urn:uuid:868dd4ba-a208-4588-b041-508992918042"
      },
      "context": {
        "reference": "urn:uuid:66aba586-e8bb-4184-acbc-e1184cadcff2"
      },
      "authored": "2021-08-03T13:07:14+00:00",
      "item": [ {
        "linkId": "Tx222985",
        "text": "WHAT IS THE MAIN PROBLEM?",
        "answer": [ {
          "valueString": "declared head lice"
        } ]
      } ]
    }
  }, {
    "fullUrl": "urn:uuid:b2b5ca86-f10e-4a74-9777-22cd04cd6946",
    "resource": {
      "resourceType": "Questionnaire",
      "id": "b2b5ca86-f10e-4a74-9777-22cd04cd6946",
      "identifier": [ {
        "value": "1766759"
      } ],
      "version": "2021-08-03T13:07:14.000Z",
      "status": "active",
      "experimental": false,
      "date": "2021-08-03T13:07:14+00:00",
      "publisher": "User ID: '922' User name: 'AndrewJ.Walford' User skill set: 'T4'",
      "lastReviewDate": "2021-08-03",
      "contact": [ {
        "telecom": [ {
          "system": "phone",
          "value": "07798501130"
        } ]
      } ],
      "subjectType": [ "Patient" ],
      "item": [ {
        "linkId": "1766759",
        "prefix": "700",
        "text": "WHAT IS THE MAIN PROBLEM?",
        "type": "choice",
        "required": true,
        "repeats": false,
        "option": [ {
          "valueString": "declared head lice, Selected: true"
        }, {
          "valueString": "declared pubic lice, Selected: false"
        }, {
          "valueString": "declared scabies, Selected: false"
        }, {
          "valueString": "declared athlete's foot, Selected: false"
        }, {
          "valueString": "acne, spots or pimples, Selected: false"
        }, {
          "valueString": "more, Selected: false"
        } ]
      } ]
    }
  }, {
    "fullUrl": "urn:uuid:6d3b7247-0d8d-4b95-b511-c6e567ef3346",
    "resource": {
      "resourceType": "QuestionnaireResponse",
      "id": "6d3b7247-0d8d-4b95-b511-c6e567ef3346",
      "identifier": {
        "value": "1766759"
      },
      "questionnaire": {
        "reference": "urn:uuid:ba81ad82-9b92-41d9-893b-4de6d32192f7"
      },
      "status": "completed",
      "subject": {
        "reference": "urn:uuid:868dd4ba-a208-4588-b041-508992918042"
      },
      "context": {
        "reference": "urn:uuid:66aba586-e8bb-4184-acbc-e1184cadcff2"
      },
      "authored": "2021-08-03T13:07:14+00:00",
      "item": [ {
        "linkId": "Tx220667",
        "text": "Have you been in contact with somebody with head lice or nits?",
        "answer": [ {
          "valueString": "yes"
        } ]
      } ]
    }
  }, {
    "fullUrl": "urn:uuid:ba81ad82-9b92-41d9-893b-4de6d32192f7",
    "resource": {
      "resourceType": "Questionnaire",
      "id": "ba81ad82-9b92-41d9-893b-4de6d32192f7",
      "identifier": [ {
        "value": "1766759"
      } ],
      "version": "2021-08-03T13:07:14.000Z",
      "status": "active",
      "experimental": false,
      "date": "2021-08-03T13:07:14+00:00",
      "publisher": "User ID: '922' User name: 'AndrewJ.Walford' User skill set: 'T4'",
      "lastReviewDate": "2021-08-03",
      "contact": [ {
        "telecom": [ {
          "system": "phone",
          "value": "07798501130"
        } ]
      } ],
      "subjectType": [ "Patient" ],
      "item": [ {
        "linkId": "1766759",
        "prefix": "0",
        "text": "Have you been in contact with somebody with head lice or nits?",
        "type": "choice",
        "required": true,
        "repeats": false,
        "option": [ {
          "valueString": "yes, Selected: true"
        }, {
          "valueString": "not sure, Selected: false"
        }, {
          "valueString": "no, Selected: false"
        } ]
      } ]
    }
  }, {
    "fullUrl": "urn:uuid:63a8531d-a71c-421f-98b3-af8dfd069d83",
    "resource": {
      "resourceType": "QuestionnaireResponse",
      "id": "63a8531d-a71c-421f-98b3-af8dfd069d83",
      "identifier": {
        "value": "1766759"
      },
      "questionnaire": {
        "reference": "urn:uuid:5c86183f-9f1f-40cb-8ed6-eaa75a87c9e2"
      },
      "status": "completed",
      "subject": {
        "reference": "urn:uuid:868dd4ba-a208-4588-b041-508992918042"
      },
      "context": {
        "reference": "urn:uuid:66aba586-e8bb-4184-acbc-e1184cadcff2"
      },
      "authored": "2021-08-03T13:07:14+00:00",
      "item": [ {
        "linkId": "Tx220664",
        "text": "Have you lost patches or clumps of hair OVER THE LAST FEW WEEKS?",
        "answer": [ {
          "valueString": "yes"
        } ]
      } ]
    }
  }, {
    "fullUrl": "urn:uuid:5c86183f-9f1f-40cb-8ed6-eaa75a87c9e2",
    "resource": {
      "resourceType": "Questionnaire",
      "id": "5c86183f-9f1f-40cb-8ed6-eaa75a87c9e2",
      "identifier": [ {
        "value": "1766759"
      } ],
      "version": "2021-08-03T13:07:14.000Z",
      "status": "active",
      "experimental": false,
      "date": "2021-08-03T13:07:14+00:00",
      "publisher": "User ID: '922' User name: 'AndrewJ.Walford' User skill set: 'T4'",
      "lastReviewDate": "2021-08-03",
      "contact": [ {
        "telecom": [ {
          "system": "phone",
          "value": "07798501130"
        } ]
      } ],
      "subjectType": [ "Patient" ],
      "item": [ {
        "linkId": "1766759",
        "prefix": "300",
        "text": "Have you lost patches or clumps of hair OVER THE LAST FEW WEEKS?",
        "type": "choice",
        "required": true,
        "repeats": false,
        "option": [ {
          "valueString": "yes, Selected: true"
        }, {
          "valueString": "not sure, Selected: false"
        }, {
          "valueString": "no, Selected: false"
        } ]
      } ]
    }
  }, {
    "fullUrl": "urn:uuid:92112ff6-abe3-4c3b-924e-90d0a190c738",
    "resource": {
      "resourceType": "QuestionnaireResponse",
      "id": "92112ff6-abe3-4c3b-924e-90d0a190c738",
      "identifier": {
        "value": "1766759"
      },
      "questionnaire": {
        "reference": "urn:uuid:0d3c6c51-e176-4d3f-b84c-45d8ca1b7062"
      },
      "status": "completed",
      "subject": {
        "reference": "urn:uuid:868dd4ba-a208-4588-b041-508992918042"
      },
      "context": {
        "reference": "urn:uuid:66aba586-e8bb-4184-acbc-e1184cadcff2"
      },
      "authored": "2021-08-03T13:07:14+00:00",
      "item": [ {
        "linkId": "Tx221449",
        "text": "STRING:SDPCFullPrimaryCareassessmentandprescribingcapability",
        "answer": [ {
          "valueString": "\"\"PC full Primary Care assessment and prescribing capability\"\""
        } ]
      } ]
    }
  }, {
    "fullUrl": "urn:uuid:0d3c6c51-e176-4d3f-b84c-45d8ca1b7062",
    "resource": {
      "resourceType": "Questionnaire",
      "id": "0d3c6c51-e176-4d3f-b84c-45d8ca1b7062",
      "identifier": [ {
        "value": "1766759"
      } ],
      "version": "2021-08-03T13:07:14.000Z",
      "status": "active",
      "experimental": false,
      "date": "2021-08-03T13:07:14+00:00",
      "publisher": "User ID: '922' User name: 'AndrewJ.Walford' User skill set: 'T4'",
      "lastReviewDate": "2021-08-03",
      "contact": [ {
        "telecom": [ {
          "system": "phone",
          "value": "07798501130"
        } ]
      } ],
      "subjectType": [ "Patient" ],
      "item": [ {
        "linkId": "1766759",
        "prefix": "500",
        "text": "STRING:SDPCFullPrimaryCareassessmentandprescribingcapability",
        "type": "choice",
        "required": true,
        "repeats": false,
        "option": [ {
          "valueString": "\"\"PC full Primary Care assessment and prescribing capability\"\", Selected: true"
        } ]
      } ]
    }
  }, {
    "fullUrl": "urn:uuid:1d94cfb5-6cfa-4a19-94c3-af68b6ca7a7b",
    "resource": {
      "resourceType": "QuestionnaireResponse",
      "id": "1d94cfb5-6cfa-4a19-94c3-af68b6ca7a7b",
      "identifier": {
        "value": "1766759"
      },
      "questionnaire": {
        "reference": "urn:uuid:941902ce-e762-4167-89ac-e457f5d23031"
      },
      "status": "completed",
      "subject": {
        "reference": "urn:uuid:868dd4ba-a208-4588-b041-508992918042"
      },
      "context": {
        "reference": "urn:uuid:66aba586-e8bb-4184-acbc-e1184cadcff2"
      },
      "authored": "2021-08-03T13:07:14+00:00"
    }
  }, {
    "fullUrl": "urn:uuid:941902ce-e762-4167-89ac-e457f5d23031",
    "resource": {
      "resourceType": "Questionnaire",
      "id": "941902ce-e762-4167-89ac-e457f5d23031",
      "identifier": [ {
        "value": "1766759"
      } ],
      "version": "2021-08-03T13:07:14.000Z",
      "status": "active",
      "experimental": false,
      "date": "2021-08-03T13:07:14+00:00",
      "publisher": "User ID: '922' User name: 'AndrewJ.Walford' User skill set: 'T4'",
      "lastReviewDate": "2021-08-03",
      "contact": [ {
        "telecom": [ {
          "system": "phone",
          "value": "07798501130"
        } ]
      } ],
      "subjectType": [ "Patient" ]
    }
  }, {
    "fullUrl": "urn:uuid:23fedd47-c22b-4b07-90ef-920ed569e75b",
    "resource": {
      "resourceType": "QuestionnaireResponse",
      "id": "23fedd47-c22b-4b07-90ef-920ed569e75b",
      "identifier": {
        "value": "1766759"
      },
      "questionnaire": {
        "reference": "urn:uuid:bc743c0f-9ec8-4542-82c2-3c8fec1daa5f"
      },
      "status": "completed",
      "subject": {
        "reference": "urn:uuid:868dd4ba-a208-4588-b041-508992918042"
      },
      "context": {
        "reference": "urn:uuid:66aba586-e8bb-4184-acbc-e1184cadcff2"
      },
      "authored": "2021-08-03T13:07:14+00:00",
      "item": [ {
        "linkId": "N/A"
      } ]
    }
  }, {
    "fullUrl": "urn:uuid:bc743c0f-9ec8-4542-82c2-3c8fec1daa5f",
    "resource": {
      "resourceType": "Questionnaire",
      "id": "bc743c0f-9ec8-4542-82c2-3c8fec1daa5f",
      "identifier": [ {
        "value": "1766759"
      } ],
      "version": "2021-08-03T13:07:14.000Z",
      "status": "active",
      "experimental": false,
      "date": "2021-08-03T13:07:14+00:00",
      "publisher": "User ID: '922' User name: 'AndrewJ.Walford' User skill set: 'T4'",
      "lastReviewDate": "2021-08-03",
      "contact": [ {
        "telecom": [ {
          "system": "phone",
          "value": "07798501130"
        } ]
      } ],
      "subjectType": [ "Patient" ],
      "item": [ {
        "linkId": "1766759",
        "type": "choice",
        "required": true,
        "repeats": false,
        "option": [ {
          "valueString": ", Selected: false"
        } ]
      } ]
    }
  }, {
    "fullUrl": "urn:uuid:e1c4e0a9-ab01-4373-a587-f4d1fe670da8",
    "resource": {
      "resourceType": "QuestionnaireResponse",
      "id": "e1c4e0a9-ab01-4373-a587-f4d1fe670da8",
      "identifier": {
        "value": "1766759"
      },
      "questionnaire": {
        "reference": "urn:uuid:60cf72c5-30bf-4729-8053-d4d1cec6bd9e"
      },
      "status": "completed",
      "subject": {
        "reference": "urn:uuid:868dd4ba-a208-4588-b041-508992918042"
      },
      "context": {
        "reference": "urn:uuid:66aba586-e8bb-4184-acbc-e1184cadcff2"
      },
      "authored": "2021-08-03T13:07:14+00:00"
    }
  }, {
    "fullUrl": "urn:uuid:60cf72c5-30bf-4729-8053-d4d1cec6bd9e",
    "resource": {
      "resourceType": "Questionnaire",
      "id": "60cf72c5-30bf-4729-8053-d4d1cec6bd9e",
      "identifier": [ {
        "value": "1766759"
      } ],
      "version": "2021-08-03T13:07:14.000Z",
      "status": "active",
      "experimental": false,
      "date": "2021-08-03T13:07:14+00:00",
      "publisher": "User ID: '922' User name: 'AndrewJ.Walford' User skill set: 'T4'",
      "lastReviewDate": "2021-08-03",
      "contact": [ {
        "telecom": [ {
          "system": "phone",
          "value": "07798501130"
        } ]
      } ],
      "subjectType": [ "Patient" ]
    }
  }, {
    "fullUrl": "urn:uuid:29a172c7-45ba-4ebe-9b9f-f1d71149b05a",
    "resource": {
      "resourceType": "Observation",
      "id": "29a172c7-45ba-4ebe-9b9f-f1d71149b05a",
      "status": "final",
      "code": {
        "coding": [ {
          "system": "http://snomed.info/sct",
          "code": "33962009",
          "display": "Presenting complaint"
        } ]
      },
      "subject": {
        "reference": "urn:uuid:868dd4ba-a208-4588-b041-508992918042"
      },
      "context": {
        "reference": "urn:uuid:66aba586-e8bb-4184-acbc-e1184cadcff2"
      }
    }
  }, {
    "fullUrl": "urn:uuid:72bfa954-0545-4e6d-a6db-b9a97a6c2180",
    "resource": {
      "resourceType": "PractitionerRole",
      "id": "72bfa954-0545-4e6d-a6db-b9a97a6c2180",
      "practitioner": {
        "reference": "urn:uuid:7bf20250-38fa-4d15-99c1-9e13fb6350f6"
      },
      "organization": {
        "reference": "urn:uuid:95cb16ed-299b-4196-a671-ae3ec582bb2a"
      },
      "code": [ {
        "coding": [ {
          "system": "2.16.840.1.113883.2.1.3.2.4.17.339",
          "code": "NP",
          "display": "Nurse Practitioner"
        } ]
      } ]
    }
  }, {
    "fullUrl": "urn:uuid:95cb16ed-299b-4196-a671-ae3ec582bb2a",
    "resource": {
      "resourceType": "Organization",
      "id": "95cb16ed-299b-4196-a671-ae3ec582bb2a",
      "identifier": [ {
        "value": "RX7"
      } ],
      "name": "NWAS 111"
    }
  }, {
    "fullUrl": "urn:uuid:d8aade8f-bf25-4bf5-8432-e87ff5c2951f",
    "resource": {
      "resourceType": "RelatedPerson",
      "id": "d8aade8f-bf25-4bf5-8432-e87ff5c2951f",
      "patient": {
        "reference": "urn:uuid:868dd4ba-a208-4588-b041-508992918042"
      },
      "relationship": {
        "coding": [ {
          "system": "http://hl7.org/fhir/v2/0131",
          "code": "C",
          "display": "Emergency Contact"
        } ]
      },
      "telecom": [ {
        "system": "phone",
        "value": "tel:07798501130"
      } ]
    }
  }, {
    "fullUrl": "urn:uuid:e7256115-163c-48fc-944b-ff74a79a39d2",
    "resource": {
      "resourceType": "Device",
      "id": "e7256115-163c-48fc-944b-ff74a79a39d2",
      "model": "111 Adaptor",
      "version": "1.0.1"
    }
  }, {
    "fullUrl": "urn:uuid:d287b439-5452-426b-9785-bef9e5a5a5dc",
    "resource": {
      "resourceType": "List",
      "id": "d287b439-5452-426b-9785-bef9e5a5a5dc",
      "status": "current",
      "mode": "working",
      "title": "111 Report List",
      "code": {
        "coding": [ {
          "system": "http://snomed.info/sct",
          "code": "225390008",
          "display": "Triage"
        } ]
      },
      "subject": {
        "reference": "urn:uuid:868dd4ba-a208-4588-b041-508992918042"
      },
      "encounter": {
        "reference": "urn:uuid:66aba586-e8bb-4184-acbc-e1184cadcff2"
      },
      "date": "2022-04-07T07:52:14+00:00",
      "source": {
        "reference": "urn:uuid:e7256115-163c-48fc-944b-ff74a79a39d2"
      },
      "orderedBy": {
        "coding": [ {
          "system": "http://hl7.org/fhir/list-order",
          "code": "event-date",
          "display": "Sorted by Event Date"
        } ]
      },
      "entry": [ {
        "item": {
          "reference": "urn:uuid:f8666bc9-e9f1-4bde-b7c4-c2a84b3b5db0"
        }
      }, {
        "item": {
          "reference": "urn:uuid:cb46b19f-f30b-4e1d-9bbf-36e08608ce78"
        }
      }, {
        "item": {
          "reference": "urn:uuid:28076a3c-0ee7-44f5-9738-a81d6818b23f"
        }
      }, {
        "item": {
          "reference": "urn:uuid:619545b1-5013-4d6a-95b7-e6e29283d011"
        }
      }, {
        "item": {
          "reference": "urn:uuid:7bf20250-38fa-4d15-99c1-9e13fb6350f6"
        }
      }, {
        "item": {
          "reference": "urn:uuid:3c9da8b3-c335-470c-aa0a-08b6814ba9e3"
        }
      }, {
        "item": {
          "reference": "urn:uuid:29a172c7-45ba-4ebe-9b9f-f1d71149b05a"
        }
      }, {
        "item": {
          "reference": "urn:uuid:5a01e0ea-0f2e-481b-9750-26eb129e5cd6"
        }
      }, {
        "item": {
          "reference": "urn:uuid:95cb16ed-299b-4196-a671-ae3ec582bb2a"
        }
      }, {
        "item": {
          "reference": "urn:uuid:d8aade8f-bf25-4bf5-8432-e87ff5c2951f"
        }
      }, {
        "item": {
          "reference": "urn:uuid:314f71c0-c2c7-4ff0-a9a3-de8599cfdbd4"
        }
      }, {
        "item": {
          "reference": "urn:uuid:fc14934a-bc20-490b-a031-9e96f194a08a"
        }
      }, {
        "item": {
          "reference": "urn:uuid:71f1f076-4e46-42b0-b2f8-99bca4288e7b"
        }
      }, {
        "item": {
          "reference": "urn:uuid:dad43f76-3b4c-49e3-9051-4bf2c4111d86"
        }
      }, {
        "item": {
          "reference": "urn:uuid:a9f30946-8c3c-4b30-924f-88e5107e5489"
        }
      }, {
        "item": {
          "reference": "urn:uuid:f61c619a-355f-44bf-97ee-873b8822a4fd"
        }
      }, {
        "item": {
          "reference": "urn:uuid:f714627d-ea93-4b14-943b-0c2414c89823"
        }
      }, {
        "item": {
          "reference": "urn:uuid:1d94cfb5-6cfa-4a19-94c3-af68b6ca7a7b"
        }
      }, {
        "item": {
          "reference": "urn:uuid:b2b5ca86-f10e-4a74-9777-22cd04cd6946"
        }
      }, {
        "item": {
          "reference": "urn:uuid:92112ff6-abe3-4c3b-924e-90d0a190c738"
        }
      }, {
        "item": {
          "reference": "urn:uuid:d498c0fc-8b46-42c5-a1dd-8f68607b5e69"
        }
      }, {
        "item": {
          "reference": "urn:uuid:6d3b7247-0d8d-4b95-b511-c6e567ef3346"
        }
      }, {
        "item": {
          "reference": "urn:uuid:bc743c0f-9ec8-4542-82c2-3c8fec1daa5f"
        }
      }, {
        "item": {
          "reference": "urn:uuid:a50fbc76-d302-4b9d-832c-4835f27da8de"
        }
      }, {
        "item": {
          "reference": "urn:uuid:b77bf515-facb-4f84-b2ad-34fc2f76669b"
        }
      }, {
        "item": {
          "reference": "urn:uuid:485172e7-fccb-46f9-8c27-70e283a072dc"
        }
      }, {
        "item": {
          "reference": "urn:uuid:63a8531d-a71c-421f-98b3-af8dfd069d83"
        }
      }, {
        "item": {
          "reference": "urn:uuid:23fedd47-c22b-4b07-90ef-920ed569e75b"
        }
      }, {
        "item": {
          "reference": "urn:uuid:e1c4e0a9-ab01-4373-a587-f4d1fe670da8"
        }
      }, {
        "item": {
          "reference": "urn:uuid:60cf72c5-30bf-4729-8053-d4d1cec6bd9e"
        }
      }, {
        "item": {
          "reference": "urn:uuid:5c29f370-b871-4711-ba12-f2e9885c18c7"
        }
      }, {
        "item": {
          "reference": "urn:uuid:2f06c1ec-352a-4b57-92cb-f75e0a3b6d29"
        }
      }, {
        "item": {
          "reference": "urn:uuid:0d3c6c51-e176-4d3f-b84c-45d8ca1b7062"
        }
      }, {
        "item": {
          "reference": "urn:uuid:e5e30178-25a8-40cf-b5e5-f91147701ac1"
        }
      }, {
        "item": {
          "reference": "urn:uuid:3ec00379-5f8a-4033-8b29-fd7eb366054e"
        }
      }, {
        "item": {
          "reference": "urn:uuid:0460ffae-6d72-4a16-85ab-dab03d26d17b"
        }
      }, {
        "item": {
          "reference": "urn:uuid:ba81ad82-9b92-41d9-893b-4de6d32192f7"
        }
      }, {
        "item": {
          "reference": "urn:uuid:7b6cb580-bb21-48db-9dbe-6cdf2f67e68f"
        }
      }, {
        "item": {
          "reference": "urn:uuid:01f558a4-8260-4e74-893d-90368e4c43a4"
        }
      }, {
        "item": {
          "reference": "urn:uuid:0317bd08-ea02-402e-8943-afe028639e52"
        }
      }, {
        "item": {
          "reference": "urn:uuid:e0eb8881-aeb3-4a14-aa12-f7a03ed6684e"
        }
      }, {
        "item": {
          "reference": "urn:uuid:941902ce-e762-4167-89ac-e457f5d23031"
        }
      }, {
        "item": {
          "reference": "urn:uuid:5f344d94-9023-433b-82d5-c5fa03451af3"
        }
      }, {
        "item": {
          "reference": "urn:uuid:baa650dd-5c21-4751-bb4f-f86d0e83a657"
        }
      }, {
        "item": {
          "reference": "urn:uuid:e8c1a53a-8603-44b8-81b2-5439af42f813"
        }
      }, {
        "item": {
          "reference": "urn:uuid:f60278b3-1f1f-418d-8fb9-278654b62003"
        }
      }, {
        "item": {
          "reference": "urn:uuid:850eeb59-1f0e-47a3-b48c-530aef554977"
        }
      }, {
        "item": {
          "reference": "urn:uuid:08608780-b786-422e-ac18-d3c8c6c34eb3"
        }
      }, {
        "item": {
          "reference": "urn:uuid:4d5422a7-6c8e-4df4-9d7d-e031ff335bc9"
        }
      }, {
        "item": {
          "reference": "urn:uuid:3920aa64-ad2b-42c4-86cc-4f2df168e917"
        }
      }, {
        "item": {
          "reference": "urn:uuid:5c86183f-9f1f-40cb-8ed6-eaa75a87c9e2"
        }
      }, {
        "item": {
          "reference": "urn:uuid:a55c4778-27fd-4273-be13-aa6359717b81"
        }
      }, {
        "item": {
          "reference": "urn:uuid:e025a79c-e111-4065-8021-a8e1d18faa73"
        }
      } ]
    }
  } ]
}