{
  "resourceType": "Bundle",
  "meta": {
    "lastUpdated": "2022-05-12T06:46:16.081+00:00"
  },
  "identifier": {
    "type": {
      "text": "ClinicalDocument VersionNumber"
    },
    "value": "1"
  },
  "type": "message",
  "entry": [ {
    "fullUrl": "urn:uuid:C34D38AA-2A35-4E0C-AAB2-BCC8D397736A",
    "resource": {
      "resourceType": "MessageHeader",
      "id": "C34D38AA-2A35-4E0C-AAB2-BCC8D397736A",
      "event": {
        "system": "https://fhir.nhs.uk/STU3/CodeSystem/EventType-1",
        "code": "referral-1",
        "display": "Referral"
      },
      "destination": [ {
        "endpoint": "urn:nhs-uk:addressing:ods:A82018:DOSServiceID:136753"
      } ],
      "timestamp": "2021-08-03T13:07:14.000+00:00",
      "source": {
        "name": "NHS 111 Adaptor",
        "endpoint": "http://localhost:8080/report"
      },
      "reason": {
        "coding": [ {
          "system": "urn:nhs-itk:ns:201005:interaction",
          "code": "urn:nhs-itk:interaction:primaryGeneralPractitionerRecipientNHS111CDADocument-v2-0"
        } ]
      }
    }
  }, {
    "fullUrl": "urn:uuid:a115669f-05da-4efd-ae63-8259dc2dba0a",
    "resource": {
      "resourceType": "Encounter",
      "id": "a115669f-05da-4efd-ae63-8259dc2dba0a",
      "identifier": [ {
        "system": "2.16.840.1.113883.2.1.3.2.4.18.49",
        "value": "6C072313-DFFB-4D60-9416-43B044FDBA9F"
      }, {
        "system": "2.16.840.1.113883.2.1.3.2.4.18.34",
        "value": "1766759"
      }, {
        "system": "2.16.840.1.113883.2.1.3.2.4.18.35",
        "value": "1766759"
      } ],
      "status": "finished",
      "type": [ {
        "text": "111 Encounter Referral"
      } ],
      "subject": {
        "reference": "urn:uuid:9622cce4-7ac8-47fe-8c8a-2714d76a039d"
      },
      "participant": [ {
        "type": [ {
          "coding": [ {
            "system": "http://hl7.org/fhir/ValueSet/encounter-participant-type",
            "code": "PPRF",
            "display": "Author"
          } ]
        } ],
        "individual": {
          "reference": "urn:uuid:9efb11c5-ac15-4a68-acdf-00a2a91bf0cc"
        }
      } ],
      "period": {
        "start": "2021-08-03T12:36:56+00:00",
        "end": "2021-08-03T13:07:14+00:00"
      },
      "location": [ {
        "location": {
          "reference": "urn:uuid:c04e6fd4-39ed-46be-aea9-65e2016c1229"
        },
        "status": "active"
      }, {
        "location": {
          "reference": "urn:uuid:81b97e24-5aaf-49bc-8382-7ce250688cdb"
        },
        "status": "completed"
      } ],
      "serviceProvider": {
        "reference": "urn:uuid:a98f00a5-cb89-46e1-a19e-e5be37a8ee86"
      }
    }
  }, {
    "fullUrl": "urn:uuid:a98f00a5-cb89-46e1-a19e-e5be37a8ee86",
    "resource": {
      "resourceType": "Organization",
      "id": "a98f00a5-cb89-46e1-a19e-e5be37a8ee86",
      "active": true,
      "type": [ {
        "text": "CST"
      } ],
      "name": "NWAS 111"
    }
  }, {
    "fullUrl": "urn:uuid:9efb11c5-ac15-4a68-acdf-00a2a91bf0cc",
    "resource": {
      "resourceType": "Practitioner",
      "id": "9efb11c5-ac15-4a68-acdf-00a2a91bf0cc",
      "active": true,
      "name": [ {
        "text": "AndrewJ.Walford"
      } ]
    }
  }, {
    "fullUrl": "urn:uuid:c04e6fd4-39ed-46be-aea9-65e2016c1229",
    "resource": {
      "resourceType": "Location",
      "id": "c04e6fd4-39ed-46be-aea9-65e2016c1229",
      "managingOrganization": {
        "reference": "urn:uuid:cde68ee4-da1c-4d03-89ab-d67d8e89d563"
      }
    }
  }, {
    "fullUrl": "urn:uuid:cde68ee4-da1c-4d03-89ab-d67d8e89d563",
    "resource": {
      "resourceType": "Organization",
      "id": "cde68ee4-da1c-4d03-89ab-d67d8e89d563",
      "identifier": [ {
        "value": "A82018"
      } ],
      "type": [ {
        "text": "GP Practice"
      } ],
      "name": "Spencer St Surgery",
      "telecom": [ {
        "system": "phone",
        "value": "tel:01228529171",
        "use": "work"
      } ],
      "address": [ {
        "use": "work",
        "line": [ "Spencer Street Surgery", "10 Spencer Street", "Carlisle" ],
        "postalCode": "CA1 1BP"
      } ]
    }
  }, {
    "fullUrl": "urn:uuid:81b97e24-5aaf-49bc-8382-7ce250688cdb",
    "resource": {
      "resourceType": "Location",
      "id": "81b97e24-5aaf-49bc-8382-7ce250688cdb",
      "address": {
        "type": "physical",
        "line": [ "North West Ambulance Service Nhs Trust Salkeld Hall", "Infirmary Street", "Carlisle" ],
        "postalCode": "CA2 7AN"
      }
    }
  }, {
    "fullUrl": "urn:uuid:9622cce4-7ac8-47fe-8c8a-2714d76a039d",
    "resource": {
      "resourceType": "Patient",
      "id": "9622cce4-7ac8-47fe-8c8a-2714d76a039d",
      "active": true,
      "name": [ {
        "use": "official",
        "family": "Please Disregard",
        "given": [ "Dx09 Test" ]
      } ],
      "telecom": [ {
        "system": "phone",
        "value": "tel:07798501130",
        "use": "mobile"
      }, {
        "system": "phone",
        "value": "tel:07798501130"
      } ],
      "gender": "male",
      "birthDate": "1980-01-01",
      "address": [ {
        "use": "home",
        "line": [ "North West Ambulance Service Nhs Trust Salkeld Hall", "Infirmary Street", "Carlisle" ],
        "postalCode": "CA2 7AN"
      }, {
        "type": "physical",
        "line": [ "North West Ambulance Service Nhs Trust Salkeld Hall", "Infirmary Street", "Carlisle" ],
        "postalCode": "CA2 7AN"
      } ],
      "generalPractitioner": [ {
        "reference": "urn:uuid:d8dc20b8-9495-41a7-8e4d-87f29613187f"
      } ]
    }
  }, {
    "fullUrl": "urn:uuid:d8dc20b8-9495-41a7-8e4d-87f29613187f",
    "resource": {
      "resourceType": "Organization",
      "id": "d8dc20b8-9495-41a7-8e4d-87f29613187f",
      "identifier": [ {
        "value": "A82018"
      } ],
      "type": [ {
        "text": "GP Practice"
      } ],
      "name": "Spencer St Surgery",
      "telecom": [ {
        "system": "phone",
        "value": "tel:01228529171",
        "use": "work"
      } ],
      "address": [ {
        "use": "work",
        "line": [ "Spencer Street Surgery", "10 Spencer Street", "Carlisle" ],
        "postalCode": "CA1 1BP"
      } ]
    }
  }, {
    "fullUrl": "urn:uuid:5902c4ca-535b-4d93-9c72-b834c7a8f474",
    "resource": {
      "resourceType": "HealthcareService",
      "id": "5902c4ca-535b-4d93-9c72-b834c7a8f474",
      "active": true,
      "providedBy": {
        "reference": "urn:uuid:1947021c-7360-481f-9a70-6840a843ca8d"
      },
      "location": [ {
        "reference": "urn:uuid:1a1f3974-b590-4da1-b82d-585900dd92a2"
      } ],
      "name": "Spencer St Surgery",
      "telecom": [ {
        "system": "phone",
        "value": "tel:01228529171",
        "use": "work"
      } ]
    }
  }, {
    "fullUrl": "urn:uuid:1a1f3974-b590-4da1-b82d-585900dd92a2",
    "resource": {
      "resourceType": "Location",
      "id": "1a1f3974-b590-4da1-b82d-585900dd92a2",
      "telecom": [ {
        "system": "phone",
        "value": "tel:01228529171",
        "use": "work"
      } ],
      "address": {
        "use": "work",
        "line": [ "Spencer Street Surgery", "10 Spencer Street", "Carlisle" ],
        "postalCode": "CA1 1BP"
      },
      "managingOrganization": {
        "reference": "urn:uuid:1947021c-7360-481f-9a70-6840a843ca8d"
      }
    }
  }, {
    "fullUrl": "urn:uuid:1947021c-7360-481f-9a70-6840a843ca8d",
    "resource": {
      "resourceType": "Organization",
      "id": "1947021c-7360-481f-9a70-6840a843ca8d",
      "identifier": [ {
        "value": "A82018"
      } ],
      "type": [ {
        "coding": [ {
          "code": "PRCP",
          "display": "Spencer St Surgery"
        } ]
      } ],
      "name": "Spencer St Surgery"
    }
  }, {
    "fullUrl": "urn:uuid:2539e4af-c24f-43d4-898b-96a45599b617",
    "resource": {
      "resourceType": "ReferralRequest",
      "id": "2539e4af-c24f-43d4-898b-96a45599b617",
      "status": "active",
      "intent": "plan",
      "priority": "routine",
      "subject": {
        "reference": "urn:uuid:9622cce4-7ac8-47fe-8c8a-2714d76a039d"
      },
      "context": {
        "reference": "urn:uuid:a115669f-05da-4efd-ae63-8259dc2dba0a"
      },
      "occurrencePeriod": {
        "start": "2021-08-03T13:07:14+00:00"
      },
      "authoredOn": "2021-08-03T12:36:56+00:00",
      "requester": {
        "agent": {
          "reference": "urn:uuid:ec9f6bfc-9958-4768-935c-ef635213e58e"
        },
        "onBehalfOf": {
          "reference": "urn:uuid:a98f00a5-cb89-46e1-a19e-e5be37a8ee86"
        }
      },
      "recipient": [ {
        "reference": "urn:uuid:abfe2e21-80d6-43a1-83ea-8a8d5eba676f"
      }, {
        "reference": "urn:uuid:5902c4ca-535b-4d93-9c72-b834c7a8f474"
      } ],
      "reasonReference": [ {
        "reference": "urn:uuid:8f3a4168-5c60-49eb-9bae-d2ec092a89a3"
      } ],
      "supportingInfo": [ {
        "reference": "urn:uuid:ba4f5a36-34e4-401a-a1a9-b17bd4e161e7"
      } ]
    }
  }, {
    "fullUrl": "urn:uuid:ba4f5a36-34e4-401a-a1a9-b17bd4e161e7",
    "resource": {
      "resourceType": "ProcedureRequest",
      "id": "ba4f5a36-34e4-401a-a1a9-b17bd4e161e7",
      "status": "active",
      "intent": "plan",
      "priority": "routine",
      "doNotPerform": false,
      "code": {
        "coding": [ {
          "system": "2.16.840.1.113883.2.1.3.2.4.17.325",
          "code": "Dx09",
          "display": "For Persistent Or Recurrent Symptoms: Get In Touch With A Local Service For A Non-urgent Appointment"
        } ]
      },
      "subject": {
        "reference": "urn:uuid:9622cce4-7ac8-47fe-8c8a-2714d76a039d"
      },
      "occurrencePeriod": {
        "start": "2021-08-03T13:07:14+00:00"
      },
      "reasonReference": [ {
        "reference": "urn:uuid:8f3a4168-5c60-49eb-9bae-d2ec092a89a3"
      } ]
    }
  }, {
    "fullUrl": "urn:uuid:abfe2e21-80d6-43a1-83ea-8a8d5eba676f",
    "resource": {
      "resourceType": "Practitioner",
      "id": "abfe2e21-80d6-43a1-83ea-8a8d5eba676f",
      "active": true,
      "address": [ {
        "type": "physical",
        "line": [ "Spencer Street Surgery", "Spencer Street", "Carlisle" ],
        "postalCode": "CA1 1BP"
      } ]
    }
  }, {
    "fullUrl": "urn:uuid:8f70a6a5-10f8-412d-a266-242715c810ce",
    "resource": {
      "resourceType": "Composition",
      "id": "8f70a6a5-10f8-412d-a266-242715c810ce",
      "identifier": {
        "use": "usual",
        "value": "B5A4AC85-5A10-4D08-B956-83421A24BB81"
      },
      "status": "final",
      "type": {
        "coding": [ {
          "system": "http://snomed.info/sct",
          "code": "371531000",
          "display": "Report of clinical encounter (record artifact)"
        } ]
      },
      "subject": {
        "reference": "urn:uuid:9622cce4-7ac8-47fe-8c8a-2714d76a039d"
      },
      "encounter": {
        "reference": "urn:uuid:a115669f-05da-4efd-ae63-8259dc2dba0a"
      },
      "date": "2021-08-03T13:07:14+00:00",
      "author": [ {
        "reference": "urn:uuid:9efb11c5-ac15-4a68-acdf-00a2a91bf0cc"
      } ],
      "title": "111 Report",
      "confidentiality": "N",
      "section": [ {
        "section": [ {
          "title": "Patient's Reported Condition",
          "text": {
            "status": "generated",
            "div": "<div xmlns=\"http://www.w3.org/1999/xhtml\">**test From Nwas111 - No Action Required - Please Disregard Test</div>"
          }
        }, {
          "title": "Case Summary",
          "text": {
            "status": "generated",
            "div": "<div xmlns=\"http://www.w3.org/1999/xhtml\">&lt;content styleCode=&quot;bold&quot;&gt;Pathways Disposition: Dx09&lt;/content&gt;\n                                                    &lt;br/&gt;\n                                                    &lt;content&gt;For Persistent Or Recurrent Symptoms: Get In Touch With A Local Service For A Non-urgent Appointment&lt;/content&gt;\n                                                    &lt;br/&gt;\n                                                    &lt;br/&gt;\n                                                    &lt;content styleCode=&quot;bold&quot;&gt;Consultation Summary:&lt;/content&gt;\n                                                    &lt;br/&gt;\n                                                    &lt;content&gt;Illness - '**Test From NWAS111 - No Action required - Please Disregard Test case**'&lt;/content&gt;\n                                                    &lt;br/&gt;\n                                                    &lt;content&gt;Warm to touch&lt;/content&gt;\n                                                    &lt;br/&gt;\n                                                    &lt;content&gt;Head lice&lt;/content&gt;\n                                                    &lt;br/&gt;\n                                                    &lt;content&gt;Head lice contact&lt;/content&gt;\n                                                    &lt;br/&gt;\n                                                    &lt;content&gt;Recent sudden loss of clumps of hair&lt;/content&gt;\n                                                    &lt;br/&gt;\n                                                    &lt;br/&gt;\n                                                    &lt;content styleCode=&quot;bold&quot;&gt;Pathways Assessment:&lt;/content&gt;\n                                                    &lt;br/&gt;\n                                                    &lt;content&gt;An injury or health problem was the reason for the contact.&lt;/content&gt;\n                                                    &lt;br/&gt;\n                                                    &lt;content&gt;User comment - '**Test From NWAS111 - No Action required - Please Disregard Test case**'&lt;/content&gt;\n                                                    &lt;br/&gt;\n                                                    &lt;content&gt;Heavy bleeding had not occurred in the previous 2 hours.&lt;/content&gt;\n                                                    &lt;br/&gt;\n                                                    &lt;content&gt;An illness or health problem was the main problem.&lt;/content&gt;\n                                                    &lt;br/&gt;\n                                                    &lt;content&gt;User comment - '**Test From NWAS111 - No Action required - Please Disregard Test case**'&lt;/content&gt;\n                                                    &lt;br/&gt;\n                                                    &lt;content&gt;The individual was not fighting for breath.&lt;/content&gt;\n                                                    &lt;br/&gt;\n                                                    &lt;content&gt;The main reason for the assessment was not an allergic reaction, heart attack, chest/upper back pain, probable stroke, recent fit/seizure or suicide attempt.&lt;/content&gt;\n                                                    &lt;br/&gt;\n                                                    &lt;content&gt;The main reason for contact was not new confusion, declared diabetic hypo/hyperglycaemia, or ICD shock.&lt;/content&gt;\n                                                    &lt;br/&gt;\n                                                    &lt;content&gt;The skin on the torso felt normal, warm or hot.&lt;/content&gt;\n                                                    &lt;br/&gt;\n                                                    &lt;content&gt;Pathway selected - Skin Problems&lt;/content&gt;\n                                                    &lt;br/&gt;\n                                                    &lt;content&gt;The main problem was not a rash, itch, jaundice, skin lumps or abnormal bruising.&lt;/content&gt;\n                                                    &lt;br/&gt;\n                                                    &lt;content&gt;The main problem was head lice.&lt;/content&gt;\n                                                    &lt;br/&gt;\n                                                    &lt;content&gt;There had been contact with somebody with head lice.&lt;/content&gt;\n                                                    &lt;br/&gt;\n                                                    &lt;content&gt;There was recent patchy hair loss.&lt;/content&gt;\n                                                    &lt;br/&gt;\n                                                    &lt;content&gt;User comment - 'GP - Spencer Street Surgery - Cumbria (Home GP)'&lt;/content&gt;\n                                                    &lt;br/&gt;\n                                                    &lt;br/&gt;\n                                                    &lt;content styleCode=&quot;bold&quot;&gt;Advice Given:&lt;/content&gt;\n                                                    &lt;br/&gt;\n                                                    &lt;content&gt;Head lice is common. Speak to a pharmacist for advice on suitable treatments.&lt;/content&gt;\n                                                    &lt;br/&gt;\n                                                    &lt;br/&gt;</div>"
          }
        } ]
      }, {
        "title": "ReferralRequest",
        "entry": [ {
          "reference": "urn:uuid:2539e4af-c24f-43d4-898b-96a45599b617"
        } ]
      }, {
        "title": "QuestionnaireResponse",
        "entry": [ {
          "reference": "urn:uuid:bdb364d1-bc61-48c1-9f39-90cc0b4263bc"
        } ]
      }, {
        "title": "QuestionnaireResponse",
        "entry": [ {
          "reference": "urn:uuid:e70eb967-db61-4fde-bc13-13acc7d50341"
        } ]
      }, {
        "title": "QuestionnaireResponse",
        "entry": [ {
          "reference": "urn:uuid:9fc298f7-e0bb-43ca-8fde-da6202c1e5b6"
        } ]
      }, {
        "title": "QuestionnaireResponse",
        "entry": [ {
          "reference": "urn:uuid:5b41f258-9920-4c17-9d43-da0071178b58"
        } ]
      }, {
        "title": "QuestionnaireResponse",
        "entry": [ {
          "reference": "urn:uuid:ae53dedf-54c2-4f32-8602-e6cd3ec91708"
        } ]
      }, {
        "title": "QuestionnaireResponse",
        "entry": [ {
          "reference": "urn:uuid:308cf89e-26bc-4d97-9bfe-a39f0f8e4614"
        } ]
      }, {
        "title": "QuestionnaireResponse",
        "entry": [ {
          "reference": "urn:uuid:9cea0c26-3fbe-4c47-b0d3-1d12bd4050ae"
        } ]
      }, {
        "title": "QuestionnaireResponse",
        "entry": [ {
          "reference": "urn:uuid:7e29a530-8f46-4212-b04b-1468cb0c00c4"
        } ]
      }, {
        "title": "QuestionnaireResponse",
        "entry": [ {
          "reference": "urn:uuid:7538eb78-a229-49ea-9ad1-c494b0e21dc5"
        } ]
      }, {
        "title": "QuestionnaireResponse",
        "entry": [ {
          "reference": "urn:uuid:77f87fae-8d36-4898-b7b3-0f5040c4f618"
        } ]
      }, {
        "title": "QuestionnaireResponse",
        "entry": [ {
          "reference": "urn:uuid:840676b3-dd0f-4a6b-ae31-6f184c279b3e"
        } ]
      }, {
        "title": "QuestionnaireResponse",
        "entry": [ {
          "reference": "urn:uuid:7719d1dc-5131-4dd7-8c0f-79e73cab3f65"
        } ]
      }, {
        "title": "QuestionnaireResponse",
        "entry": [ {
          "reference": "urn:uuid:4e7386b5-8e2e-4f20-a921-afa04afbb1d6"
        } ]
      }, {
        "title": "QuestionnaireResponse",
        "entry": [ {
          "reference": "urn:uuid:1a48a8c3-f57f-4ae9-8a84-cfc9a3a79b8b"
        } ]
      }, {
        "title": "QuestionnaireResponse",
        "entry": [ {
          "reference": "urn:uuid:bda18101-4faa-4151-b04e-b8cb8f98611b"
        } ]
      }, {
        "title": "QuestionnaireResponse",
        "entry": [ {
          "reference": "urn:uuid:608bc62a-b40c-4046-90be-9e66156c9dea"
        } ]
      }, {
        "title": "QuestionnaireResponse",
        "entry": [ {
          "reference": "urn:uuid:a095f3d1-23c8-4ded-a811-511ec8b18848"
        } ]
      }, {
        "title": "QuestionnaireResponse",
        "entry": [ {
          "reference": "urn:uuid:a6ec9950-049d-4a7c-bbe8-599d16d94d15"
        } ]
      }, {
        "title": "QuestionnaireResponse",
        "entry": [ {
          "reference": "urn:uuid:05cfed3e-4610-4e3b-a9c1-745dcdf59573"
        } ]
      }, {
        "title": "QuestionnaireResponse",
        "entry": [ {
          "reference": "urn:uuid:7016292b-9172-46e4-b3d9-54f797ef46d8"
        } ]
      }, {
        "title": "QuestionnaireResponse",
        "entry": [ {
          "reference": "urn:uuid:72296ce6-3a58-4efe-859d-1dea6b7727bd"
        } ]
      } ]
    }
  }, {
    "fullUrl": "urn:uuid:29078baf-3658-4a84-adb4-704bab873072",
    "resource": {
      "resourceType": "Consent",
      "id": "29078baf-3658-4a84-adb4-704bab873072",
      "identifier": {
        "use": "usual",
        "value": "B5A4AC85-5A10-4D08-B956-83421A24BB81"
      },
      "status": "active",
      "patient": {
        "reference": "urn:uuid:9622cce4-7ac8-47fe-8c8a-2714d76a039d"
      },
      "period": {
        "start": "2021-08-03T12:36:56+00:00",
        "end": "2021-08-03T13:07:14+00:00"
      },
      "consentingParty": [ {
        "reference": "urn:uuid:9622cce4-7ac8-47fe-8c8a-2714d76a039d"
      } ],
      "action": [ {
        "coding": [ {
          "system": "http://snomed.info/sct",
          "code": "425691002",
          "display": "Consent given for electronic record sharing"
        } ],
        "text": "Consent given for electronic record sharing"
      } ],
      "organization": [ {
        "reference": "urn:uuid:a98f00a5-cb89-46e1-a19e-e5be37a8ee86"
      } ],
      "policyRule": "http://hl7.org/fhir/ConsentPolicy/opt-out",
      "data": [ {
        "meaning": "related",
        "reference": {
          "reference": "urn:uuid:a115669f-05da-4efd-ae63-8259dc2dba0a"
        }
      } ]
    }
  }, {
    "fullUrl": "urn:uuid:8f3a4168-5c60-49eb-9bae-d2ec092a89a3",
    "resource": {
      "resourceType": "Condition",
      "id": "8f3a4168-5c60-49eb-9bae-d2ec092a89a3",
      "clinicalStatus": "active",
      "verificationStatus": "unknown",
      "subject": {
        "reference": "urn:uuid:9622cce4-7ac8-47fe-8c8a-2714d76a039d"
      },
      "context": {
        "reference": "urn:uuid:a115669f-05da-4efd-ae63-8259dc2dba0a"
      },
      "evidence": [ {
        "detail": [ {
          "reference": "urn:uuid:bdb364d1-bc61-48c1-9f39-90cc0b4263bc"
        } ]
      }, {
        "detail": [ {
          "reference": "urn:uuid:e70eb967-db61-4fde-bc13-13acc7d50341"
        } ]
      }, {
        "detail": [ {
          "reference": "urn:uuid:9fc298f7-e0bb-43ca-8fde-da6202c1e5b6"
        } ]
      }, {
        "detail": [ {
          "reference": "urn:uuid:5b41f258-9920-4c17-9d43-da0071178b58"
        } ]
      }, {
        "detail": [ {
          "reference": "urn:uuid:ae53dedf-54c2-4f32-8602-e6cd3ec91708"
        } ]
      }, {
        "detail": [ {
          "reference": "urn:uuid:308cf89e-26bc-4d97-9bfe-a39f0f8e4614"
        } ]
      }, {
        "detail": [ {
          "reference": "urn:uuid:9cea0c26-3fbe-4c47-b0d3-1d12bd4050ae"
        } ]
      }, {
        "detail": [ {
          "reference": "urn:uuid:7e29a530-8f46-4212-b04b-1468cb0c00c4"
        } ]
      }, {
        "detail": [ {
          "reference": "urn:uuid:7538eb78-a229-49ea-9ad1-c494b0e21dc5"
        } ]
      }, {
        "detail": [ {
          "reference": "urn:uuid:77f87fae-8d36-4898-b7b3-0f5040c4f618"
        } ]
      }, {
        "detail": [ {
          "reference": "urn:uuid:840676b3-dd0f-4a6b-ae31-6f184c279b3e"
        } ]
      }, {
        "detail": [ {
          "reference": "urn:uuid:7719d1dc-5131-4dd7-8c0f-79e73cab3f65"
        } ]
      }, {
        "detail": [ {
          "reference": "urn:uuid:4e7386b5-8e2e-4f20-a921-afa04afbb1d6"
        } ]
      }, {
        "detail": [ {
          "reference": "urn:uuid:1a48a8c3-f57f-4ae9-8a84-cfc9a3a79b8b"
        } ]
      }, {
        "detail": [ {
          "reference": "urn:uuid:bda18101-4faa-4151-b04e-b8cb8f98611b"
        } ]
      }, {
        "detail": [ {
          "reference": "urn:uuid:608bc62a-b40c-4046-90be-9e66156c9dea"
        } ]
      }, {
        "detail": [ {
          "reference": "urn:uuid:a095f3d1-23c8-4ded-a811-511ec8b18848"
        } ]
      }, {
        "detail": [ {
          "reference": "urn:uuid:a6ec9950-049d-4a7c-bbe8-599d16d94d15"
        } ]
      }, {
        "detail": [ {
          "reference": "urn:uuid:05cfed3e-4610-4e3b-a9c1-745dcdf59573"
        } ]
      }, {
        "detail": [ {
          "reference": "urn:uuid:7016292b-9172-46e4-b3d9-54f797ef46d8"
        } ]
      }, {
        "detail": [ {
          "reference": "urn:uuid:72296ce6-3a58-4efe-859d-1dea6b7727bd"
        } ]
      } ]
    }
  }, {
    "fullUrl": "urn:uuid:bdb364d1-bc61-48c1-9f39-90cc0b4263bc",
    "resource": {
      "resourceType": "QuestionnaireResponse",
      "id": "bdb364d1-bc61-48c1-9f39-90cc0b4263bc",
      "identifier": {
        "value": "1766759"
      },
      "questionnaire": {
        "reference": "urn:uuid:fed60296-d445-4865-9892-cfbbc4f46aeb"
      },
      "status": "completed",
      "subject": {
        "reference": "urn:uuid:9622cce4-7ac8-47fe-8c8a-2714d76a039d"
      },
      "context": {
        "reference": "urn:uuid:a115669f-05da-4efd-ae63-8259dc2dba0a"
      },
      "authored": "2021-08-03T13:07:14+00:00",
      "item": [ {
        "linkId": "Tx220109",
        "text": "What is the reason for the contact?",
        "answer": [ {
          "valueString": "an injury or other health problem"
        } ]
      } ]
    }
  }, {
    "fullUrl": "urn:uuid:fed60296-d445-4865-9892-cfbbc4f46aeb",
    "resource": {
      "resourceType": "Questionnaire",
      "id": "fed60296-d445-4865-9892-cfbbc4f46aeb",
      "identifier": [ {
        "value": "1766759"
      } ],
      "version": "2021-08-03T13:07:14.000Z",
      "status": "active",
      "experimental": false,
      "date": "2021-08-03T13:07:14+00:00",
      "publisher": "User ID: '922' User name: 'AndrewJ.Walford' User skill set: 'T4'",
      "lastReviewDate": "2021-08-03",
      "contact": [ {
        "telecom": [ {
          "system": "phone",
          "value": "07798501130"
        } ]
      } ],
      "subjectType": [ "Patient" ],
      "item": [ {
        "linkId": "1766759",
        "prefix": "5",
        "text": "What is the reason for the contact?",
        "type": "choice",
        "required": true,
        "repeats": false,
        "option": [ {
          "valueString": "an injury or other health problem, Selected: true"
        }, {
          "valueString": "a need to access another healthcare service, Selected: false"
        }, {
          "valueString": "a healthcare professional requesting contact with another clinician, Selected: false"
        }, {
          "valueString": "a report of results or tests, Selected: false"
        }, {
          "valueString": "more, Selected: false"
        } ]
      } ]
    }
  }, {
    "fullUrl": "urn:uuid:e70eb967-db61-4fde-bc13-13acc7d50341",
    "resource": {
      "resourceType": "QuestionnaireResponse",
      "id": "e70eb967-db61-4fde-bc13-13acc7d50341",
      "identifier": {
        "value": "1766759"
      },
      "questionnaire": {
        "reference": "urn:uuid:495d217c-a8a7-41f3-bd34-4a3f642aee45"
      },
      "status": "completed",
      "subject": {
        "reference": "urn:uuid:9622cce4-7ac8-47fe-8c8a-2714d76a039d"
      },
      "context": {
        "reference": "urn:uuid:a115669f-05da-4efd-ae63-8259dc2dba0a"
      },
      "authored": "2021-08-03T13:07:14+00:00",
      "item": [ {
        "linkId": "Tx221788",
        "text": "STRING:to'ImmediateThreatsToLife(SPA/OOHversion)'-'ABC'menu",
        "answer": [ {
          "valueString": "\"\"present\"\""
        } ]
      } ]
    }
  }, {
    "fullUrl": "urn:uuid:495d217c-a8a7-41f3-bd34-4a3f642aee45",
    "resource": {
      "resourceType": "Questionnaire",
      "id": "495d217c-a8a7-41f3-bd34-4a3f642aee45",
      "identifier": [ {
        "value": "1766759"
      } ],
      "version": "2021-08-03T13:07:14.000Z",
      "status": "active",
      "experimental": false,
      "date": "2021-08-03T13:07:14+00:00",
      "publisher": "User ID: '922' User name: 'AndrewJ.Walford' User skill set: 'T4'",
      "lastReviewDate": "2021-08-03",
      "contact": [ {
        "telecom": [ {
          "system": "phone",
          "value": "07798501130"
        } ]
      } ],
      "subjectType": [ "Patient" ],
      "item": [ {
        "linkId": "1766759",
        "prefix": "500",
        "text": "STRING:to'ImmediateThreatsToLife(SPA/OOHversion)'-'ABC'menu",
        "type": "choice",
        "required": true,
        "repeats": false,
        "option": [ {
          "valueString": "\"\"present\"\", Selected: true"
        } ]
      } ]
    }
  }, {
    "fullUrl": "urn:uuid:9fc298f7-e0bb-43ca-8fde-da6202c1e5b6",
    "resource": {
      "resourceType": "QuestionnaireResponse",
      "id": "9fc298f7-e0bb-43ca-8fde-da6202c1e5b6",
      "identifier": {
        "value": "1766759"
      },
      "questionnaire": {
        "reference": "urn:uuid:ed57afee-33a5-4e10-8a66-55188f31c1df"
      },
      "status": "completed",
      "subject": {
        "reference": "urn:uuid:9622cce4-7ac8-47fe-8c8a-2714d76a039d"
      },
      "context": {
        "reference": "urn:uuid:a115669f-05da-4efd-ae63-8259dc2dba0a"
      },
      "authored": "2021-08-03T13:07:14+00:00",
      "item": [ {
        "linkId": "Tx221814",
        "text": "STRING:aninjuryorotherhealthproblemestablishedinEntryFlow",
        "answer": [ {
          "valueString": "\"\"present\"\""
        } ]
      } ]
    }
  }, {
    "fullUrl": "urn:uuid:ed57afee-33a5-4e10-8a66-55188f31c1df",
    "resource": {
      "resourceType": "Questionnaire",
      "id": "ed57afee-33a5-4e10-8a66-55188f31c1df",
      "identifier": [ {
        "value": "1766759"
      } ],
      "version": "2021-08-03T13:07:14.000Z",
      "status": "active",
      "experimental": false,
      "date": "2021-08-03T13:07:14+00:00",
      "publisher": "User ID: '922' User name: 'AndrewJ.Walford' User skill set: 'T4'",
      "lastReviewDate": "2021-08-03",
      "contact": [ {
        "telecom": [ {
          "system": "phone",
          "value": "07798501130"
        } ]
      } ],
      "subjectType": [ "Patient" ],
      "item": [ {
        "linkId": "1766759",
        "prefix": "0",
        "text": "STRING:aninjuryorotherhealthproblemestablishedinEntryFlow",
        "type": "choice",
        "required": true,
        "repeats": false,
        "option": [ {
          "valueString": "\"\"present\"\", Selected: true"
        } ]
      } ]
    }
  }, {
    "fullUrl": "urn:uuid:5b41f258-9920-4c17-9d43-da0071178b58",
    "resource": {
      "resourceType": "QuestionnaireResponse",
      "id": "5b41f258-9920-4c17-9d43-da0071178b58",
      "identifier": {
        "value": "1766759"
      },
      "questionnaire": {
        "reference": "urn:uuid:54bb8b69-208f-429e-aea6-bb409083b390"
      },
      "status": "completed",
      "subject": {
        "reference": "urn:uuid:9622cce4-7ac8-47fe-8c8a-2714d76a039d"
      },
      "context": {
        "reference": "urn:uuid:a115669f-05da-4efd-ae63-8259dc2dba0a"
      },
      "authored": "2021-08-03T13:07:14+00:00",
      "item": [ {
        "linkId": "Tx224120",
        "text": "Have you been bleeding RED BLOOD very heavily IN THE LAST 2 HOURS?",
        "answer": [ {
          "valueString": "no"
        } ]
      } ]
    }
  }, {
    "fullUrl": "urn:uuid:54bb8b69-208f-429e-aea6-bb409083b390",
    "resource": {
      "resourceType": "Questionnaire",
      "id": "54bb8b69-208f-429e-aea6-bb409083b390",
      "identifier": [ {
        "value": "1766759"
      } ],
      "version": "2021-08-03T13:07:14.000Z",
      "status": "active",
      "experimental": false,
      "date": "2021-08-03T13:07:14+00:00",
      "publisher": "User ID: '922' User name: 'AndrewJ.Walford' User skill set: 'T4'",
      "lastReviewDate": "2021-08-03",
      "contact": [ {
        "telecom": [ {
          "system": "phone",
          "value": "07798501130"
        } ]
      } ],
      "subjectType": [ "Patient" ],
      "item": [ {
        "linkId": "1766759",
        "prefix": "7000",
        "text": "Have you been bleeding RED BLOOD very heavily IN THE LAST 2 HOURS?",
        "type": "choice",
        "required": true,
        "repeats": false,
        "option": [ {
          "valueString": "yes, Selected: false"
        }, {
          "valueString": "not sure, Selected: false"
        }, {
          "valueString": "no, Selected: true"
        } ]
      } ]
    }
  }, {
    "fullUrl": "urn:uuid:ae53dedf-54c2-4f32-8602-e6cd3ec91708",
    "resource": {
      "resourceType": "QuestionnaireResponse",
      "id": "ae53dedf-54c2-4f32-8602-e6cd3ec91708",
      "identifier": {
        "value": "1766759"
      },
      "questionnaire": {
        "reference": "urn:uuid:721f224f-69e4-45d4-8549-d2976802458b"
      },
      "status": "completed",
      "subject": {
        "reference": "urn:uuid:9622cce4-7ac8-47fe-8c8a-2714d76a039d"
      },
      "context": {
        "reference": "urn:uuid:a115669f-05da-4efd-ae63-8259dc2dba0a"
      },
      "authored": "2021-08-03T13:07:14+00:00",
      "item": [ {
        "linkId": "Tx221343",
        "text": "SocialConcernsExcluded",
        "answer": [ {
          "valueString": "*"
        } ]
      } ]
    }
  }, {
    "fullUrl": "urn:uuid:721f224f-69e4-45d4-8549-d2976802458b",
    "resource": {
      "resourceType": "Questionnaire",
      "id": "721f224f-69e4-45d4-8549-d2976802458b",
      "identifier": [ {
        "value": "1766759"
      } ],
      "version": "2021-08-03T13:07:14.000Z",
      "status": "active",
      "experimental": false,
      "date": "2021-08-03T13:07:14+00:00",
      "publisher": "User ID: '922' User name: 'AndrewJ.Walford' User skill set: 'T4'",
      "lastReviewDate": "2021-08-03",
      "contact": [ {
        "telecom": [ {
          "system": "phone",
          "value": "07798501130"
        } ]
      } ],
      "subjectType": [ "Patient" ],
      "item": [ {
        "linkId": "1766759",
        "prefix": "2700",
        "text": "SocialConcernsExcluded",
        "type": "choice",
        "required": true,
        "repeats": false,
        "option": [ {
          "valueString": "==\"\"present\"\", Selected: false"
        }, {
          "valueString": "*, Selected: true"
        } ]
      } ]
    }
  }, {
    "fullUrl": "urn:uuid:308cf89e-26bc-4d97-9bfe-a39f0f8e4614",
    "resource": {
      "resourceType": "QuestionnaireResponse",
      "id": "308cf89e-26bc-4d97-9bfe-a39f0f8e4614",
      "identifier": {
        "value": "1766759"
      },
      "questionnaire": {
        "reference": "urn:uuid:baade3c3-bbfa-438f-a42d-55f3c17619c7"
      },
      "status": "completed",
      "subject": {
        "reference": "urn:uuid:9622cce4-7ac8-47fe-8c8a-2714d76a039d"
      },
      "context": {
        "reference": "urn:uuid:a115669f-05da-4efd-ae63-8259dc2dba0a"
      },
      "authored": "2021-08-03T13:07:14+00:00",
      "item": [ {
        "linkId": "Tx130011",
        "text": "What is the main problem?",
        "answer": [ {
          "valueString": "illness or other health problem (specify)"
        } ]
      } ]
    }
  }, {
    "fullUrl": "urn:uuid:baade3c3-bbfa-438f-a42d-55f3c17619c7",
    "resource": {
      "resourceType": "Questionnaire",
      "id": "baade3c3-bbfa-438f-a42d-55f3c17619c7",
      "identifier": [ {
        "value": "1766759"
      } ],
      "version": "2021-08-03T13:07:14.000Z",
      "status": "active",
      "experimental": false,
      "date": "2021-08-03T13:07:14+00:00",
      "publisher": "User ID: '922' User name: 'AndrewJ.Walford' User skill set: 'T4'",
      "lastReviewDate": "2021-08-03",
      "contact": [ {
        "telecom": [ {
          "system": "phone",
          "value": "07798501130"
        } ]
      } ],
      "subjectType": [ "Patient" ],
      "item": [ {
        "linkId": "1766759",
        "prefix": "3400",
        "text": "What is the main problem?",
        "type": "choice",
        "required": true,
        "repeats": false,
        "option": [ {
          "valueString": "the individual has been told to follow a particular course of action (specify), Selected: false"
        }, {
          "valueString": "the individual is an identified frequent caller, Selected: false"
        }, {
          "valueString": "injury (specify), Selected: false"
        }, {
          "valueString": "illness or other health problem (specify), Selected: true"
        }, {
          "valueString": "child protection/vulnerable adult concern, Selected: false"
        }, {
          "valueString": "social or domestic emergency, Selected: false"
        }, {
          "valueString": "the environment potentially poses an immediate threat to life (specify), Selected: false"
        } ]
      } ]
    }
  }, {
    "fullUrl": "urn:uuid:9cea0c26-3fbe-4c47-b0d3-1d12bd4050ae",
    "resource": {
      "resourceType": "QuestionnaireResponse",
      "id": "9cea0c26-3fbe-4c47-b0d3-1d12bd4050ae",
      "identifier": {
        "value": "1766759"
      },
      "questionnaire": {
        "reference": "urn:uuid:3c5e2152-1fac-4775-b1a8-eebb56fe7496"
      },
      "status": "completed",
      "subject": {
        "reference": "urn:uuid:9622cce4-7ac8-47fe-8c8a-2714d76a039d"
      },
      "context": {
        "reference": "urn:uuid:a115669f-05da-4efd-ae63-8259dc2dba0a"
      },
      "authored": "2021-08-03T13:07:14+00:00",
      "item": [ {
        "linkId": "Tx61025",
        "text": "Are you so breathless that speaking more than a few words is impossible?",
        "answer": [ {
          "valueString": "no"
        } ]
      } ]
    }
  }, {
    "fullUrl": "urn:uuid:3c5e2152-1fac-4775-b1a8-eebb56fe7496",
    "resource": {
      "resourceType": "Questionnaire",
      "id": "3c5e2152-1fac-4775-b1a8-eebb56fe7496",
      "identifier": [ {
        "value": "1766759"
      } ],
      "version": "2021-08-03T13:07:14.000Z",
      "status": "active",
      "experimental": false,
      "date": "2021-08-03T13:07:14+00:00",
      "publisher": "User ID: '922' User name: 'AndrewJ.Walford' User skill set: 'T4'",
      "lastReviewDate": "2021-08-03",
      "contact": [ {
        "telecom": [ {
          "system": "phone",
          "value": "07798501130"
        } ]
      } ],
      "subjectType": [ "Patient" ],
      "item": [ {
        "linkId": "1766759",
        "prefix": "0",
        "text": "Are you so breathless that speaking more than a few words is impossible?",
        "type": "choice",
        "required": true,
        "repeats": false,
        "option": [ {
          "valueString": "yes, Selected: false"
        }, {
          "valueString": "not sure, Selected: false"
        }, {
          "valueString": "no, Selected: true"
        } ]
      } ]
    }
  }, {
    "fullUrl": "urn:uuid:7e29a530-8f46-4212-b04b-1468cb0c00c4",
    "resource": {
      "resourceType": "QuestionnaireResponse",
      "id": "7e29a530-8f46-4212-b04b-1468cb0c00c4",
      "identifier": {
        "value": "1766759"
      },
      "questionnaire": {
        "reference": "urn:uuid:3f8985d2-496b-4b7f-a1eb-5a152a8aa0dd"
      },
      "status": "completed",
      "subject": {
        "reference": "urn:uuid:9622cce4-7ac8-47fe-8c8a-2714d76a039d"
      },
      "context": {
        "reference": "urn:uuid:a115669f-05da-4efd-ae63-8259dc2dba0a"
      },
      "authored": "2021-08-03T13:07:14+00:00",
      "item": [ {
        "linkId": "Tx220845",
        "text": "SYSTEM_FLUPANDEMIC",
        "answer": [ {
          "valueString": "*"
        } ]
      } ]
    }
  }, {
    "fullUrl": "urn:uuid:3f8985d2-496b-4b7f-a1eb-5a152a8aa0dd",
    "resource": {
      "resourceType": "Questionnaire",
      "id": "3f8985d2-496b-4b7f-a1eb-5a152a8aa0dd",
      "identifier": [ {
        "value": "1766759"
      } ],
      "version": "2021-08-03T13:07:14.000Z",
      "status": "active",
      "experimental": false,
      "date": "2021-08-03T13:07:14+00:00",
      "publisher": "User ID: '922' User name: 'AndrewJ.Walford' User skill set: 'T4'",
      "lastReviewDate": "2021-08-03",
      "contact": [ {
        "telecom": [ {
          "system": "phone",
          "value": "07798501130"
        } ]
      } ],
      "subjectType": [ "Patient" ],
      "item": [ {
        "linkId": "1766759",
        "prefix": "100",
        "text": "SYSTEM_FLUPANDEMIC",
        "type": "choice",
        "required": true,
        "repeats": false,
        "option": [ {
          "valueString": "==\"\"pandemic\"\", Selected: false"
        }, {
          "valueString": "*, Selected: true"
        } ]
      } ]
    }
  }, {
    "fullUrl": "urn:uuid:7538eb78-a229-49ea-9ad1-c494b0e21dc5",
    "resource": {
      "resourceType": "QuestionnaireResponse",
      "id": "7538eb78-a229-49ea-9ad1-c494b0e21dc5",
      "identifier": {
        "value": "1766759"
      },
      "questionnaire": {
        "reference": "urn:uuid:b7b8cdb2-dc47-4b8f-af95-ca769439e810"
      },
      "status": "completed",
      "subject": {
        "reference": "urn:uuid:9622cce4-7ac8-47fe-8c8a-2714d76a039d"
      },
      "context": {
        "reference": "urn:uuid:a115669f-05da-4efd-ae63-8259dc2dba0a"
      },
      "authored": "2021-08-03T13:07:14+00:00",
      "item": [ {
        "linkId": "Tx223440",
        "text": "WHAT IS SAID TO BE THE MAIN REASON FOR THIS CONTACT?",
        "answer": [ {
          "valueString": "more"
        } ]
      } ]
    }
  }, {
    "fullUrl": "urn:uuid:b7b8cdb2-dc47-4b8f-af95-ca769439e810",
    "resource": {
      "resourceType": "Questionnaire",
      "id": "b7b8cdb2-dc47-4b8f-af95-ca769439e810",
      "identifier": [ {
        "value": "1766759"
      } ],
      "version": "2021-08-03T13:07:14.000Z",
      "status": "active",
      "experimental": false,
      "date": "2021-08-03T13:07:14+00:00",
      "publisher": "User ID: '922' User name: 'AndrewJ.Walford' User skill set: 'T4'",
      "lastReviewDate": "2021-08-03",
      "contact": [ {
        "telecom": [ {
          "system": "phone",
          "value": "07798501130"
        } ]
      } ],
      "subjectType": [ "Patient" ],
      "item": [ {
        "linkId": "1766759",
        "prefix": "5000",
        "text": "WHAT IS SAID TO BE THE MAIN REASON FOR THIS CONTACT?",
        "type": "choice",
        "required": true,
        "repeats": false,
        "option": [ {
          "valueString": "a probable allergic reaction now, Selected: false"
        }, {
          "valueString": "a probable heart attack, Selected: false"
        }, {
          "valueString": "chest or upper back pain, Selected: false"
        }, {
          "valueString": "a probable stroke or mini-stroke, Selected: false"
        }, {
          "valueString": "a probable fit or seizure within the last 12 hours, Selected: false"
        }, {
          "valueString": "a suicide attempt, Selected: false"
        }, {
          "valueString": "more, Selected: true"
        } ]
      } ]
    }
  }, {
    "fullUrl": "urn:uuid:77f87fae-8d36-4898-b7b3-0f5040c4f618",
    "resource": {
      "resourceType": "QuestionnaireResponse",
      "id": "77f87fae-8d36-4898-b7b3-0f5040c4f618",
      "identifier": {
        "value": "1766759"
      },
      "questionnaire": {
        "reference": "urn:uuid:708592f9-8000-469a-b4d8-32ad5fc6bb24"
      },
      "status": "completed",
      "subject": {
        "reference": "urn:uuid:9622cce4-7ac8-47fe-8c8a-2714d76a039d"
      },
      "context": {
        "reference": "urn:uuid:a115669f-05da-4efd-ae63-8259dc2dba0a"
      },
      "authored": "2021-08-03T13:07:14+00:00",
      "item": [ {
        "linkId": "Tx220032",
        "text": "WHAT IS SAID TO BE THE MAIN REASON FOR THIS CONTACT?",
        "answer": [ {
          "valueString": "none of the above"
        } ]
      } ]
    }
  }, {
    "fullUrl": "urn:uuid:708592f9-8000-469a-b4d8-32ad5fc6bb24",
    "resource": {
      "resourceType": "Questionnaire",
      "id": "708592f9-8000-469a-b4d8-32ad5fc6bb24",
      "identifier": [ {
        "value": "1766759"
      } ],
      "version": "2021-08-03T13:07:14.000Z",
      "status": "active",
      "experimental": false,
      "date": "2021-08-03T13:07:14+00:00",
      "publisher": "User ID: '922' User name: 'AndrewJ.Walford' User skill set: 'T4'",
      "lastReviewDate": "2021-08-03",
      "contact": [ {
        "telecom": [ {
          "system": "phone",
          "value": "07798501130"
        } ]
      } ],
      "subjectType": [ "Patient" ],
      "item": [ {
        "linkId": "1766759",
        "prefix": "1900",
        "text": "WHAT IS SAID TO BE THE MAIN REASON FOR THIS CONTACT?",
        "type": "choice",
        "required": true,
        "repeats": false,
        "option": [ {
          "valueString": "new confusion now, Selected: false"
        }, {
          "valueString": "a diabetic hypo (low blood sugar) or a diabetic hyper (high blood sugar), Selected: false"
        }, {
          "valueString": "recovery from an ICD (implanted cardioverter defibrillator) shock, Selected: false"
        }, {
          "valueString": "none of the above, Selected: true"
        } ]
      } ]
    }
  }, {
    "fullUrl": "urn:uuid:840676b3-dd0f-4a6b-ae31-6f184c279b3e",
    "resource": {
      "resourceType": "QuestionnaireResponse",
      "id": "840676b3-dd0f-4a6b-ae31-6f184c279b3e",
      "identifier": {
        "value": "1766759"
      },
      "questionnaire": {
        "reference": "urn:uuid:5ef59079-4952-40ef-92a5-aa246d4a2a99"
      },
      "status": "completed",
      "subject": {
        "reference": "urn:uuid:9622cce4-7ac8-47fe-8c8a-2714d76a039d"
      },
      "context": {
        "reference": "urn:uuid:a115669f-05da-4efd-ae63-8259dc2dba0a"
      },
      "authored": "2021-08-03T13:07:14+00:00",
      "item": [ {
        "linkId": "Tx223142",
        "text": "Does the skin on the chest, back or abdomen feel a normal temperature?",
        "answer": [ {
          "valueString": "yes - normal, warm or hot"
        } ]
      } ]
    }
  }, {
    "fullUrl": "urn:uuid:5ef59079-4952-40ef-92a5-aa246d4a2a99",
    "resource": {
      "resourceType": "Questionnaire",
      "id": "5ef59079-4952-40ef-92a5-aa246d4a2a99",
      "identifier": [ {
        "value": "1766759"
      } ],
      "version": "2021-08-03T13:07:14.000Z",
      "status": "active",
      "experimental": false,
      "date": "2021-08-03T13:07:14+00:00",
      "publisher": "User ID: '922' User name: 'AndrewJ.Walford' User skill set: 'T4'",
      "lastReviewDate": "2021-08-03",
      "contact": [ {
        "telecom": [ {
          "system": "phone",
          "value": "07798501130"
        } ]
      } ],
      "subjectType": [ "Patient" ],
      "item": [ {
        "linkId": "1766759",
        "prefix": "4000",
        "text": "Does the skin on the chest, back or abdomen feel a normal temperature?",
        "type": "choice",
        "required": true,
        "repeats": false,
        "option": [ {
          "valueString": "yes - normal, warm or hot, Selected: true"
        }, {
          "valueString": "not sure, Selected: false"
        }, {
          "valueString": "no - cool OR cold, Selected: false"
        }, {
          "valueString": "not safe to touch, Selected: false"
        } ]
      } ]
    }
  }, {
    "fullUrl": "urn:uuid:7719d1dc-5131-4dd7-8c0f-79e73cab3f65",
    "resource": {
      "resourceType": "QuestionnaireResponse",
      "id": "7719d1dc-5131-4dd7-8c0f-79e73cab3f65",
      "identifier": {
        "value": "1766759"
      },
      "questionnaire": {
        "reference": "urn:uuid:f1b0971c-e01f-4b9d-a084-38c11e94f4ed"
      },
      "status": "completed",
      "subject": {
        "reference": "urn:uuid:9622cce4-7ac8-47fe-8c8a-2714d76a039d"
      },
      "context": {
        "reference": "urn:uuid:a115669f-05da-4efd-ae63-8259dc2dba0a"
      },
      "authored": "2021-08-03T13:07:14+00:00",
      "item": [ {
        "linkId": "Tx221724",
        "text": "STRING:ShockAsked",
        "answer": [ {
          "valueString": "\"\"present\"\""
        } ]
      } ]
    }
  }, {
    "fullUrl": "urn:uuid:f1b0971c-e01f-4b9d-a084-38c11e94f4ed",
    "resource": {
      "resourceType": "Questionnaire",
      "id": "f1b0971c-e01f-4b9d-a084-38c11e94f4ed",
      "identifier": [ {
        "value": "1766759"
      } ],
      "version": "2021-08-03T13:07:14.000Z",
      "status": "active",
      "experimental": false,
      "date": "2021-08-03T13:07:14+00:00",
      "publisher": "User ID: '922' User name: 'AndrewJ.Walford' User skill set: 'T4'",
      "lastReviewDate": "2021-08-03",
      "contact": [ {
        "telecom": [ {
          "system": "phone",
          "value": "07798501130"
        } ]
      } ],
      "subjectType": [ "Patient" ],
      "item": [ {
        "linkId": "1766759",
        "prefix": "3300",
        "text": "STRING:ShockAsked",
        "type": "choice",
        "required": true,
        "repeats": false,
        "option": [ {
          "valueString": "\"\"present\"\", Selected: true"
        } ]
      } ]
    }
  }, {
    "fullUrl": "urn:uuid:4e7386b5-8e2e-4f20-a921-afa04afbb1d6",
    "resource": {
      "resourceType": "QuestionnaireResponse",
      "id": "4e7386b5-8e2e-4f20-a921-afa04afbb1d6",
      "identifier": {
        "value": "1766759"
      },
      "questionnaire": {
        "reference": "urn:uuid:36033269-b598-42f5-b447-6ab23a323a04"
      },
      "status": "completed",
      "subject": {
        "reference": "urn:uuid:9622cce4-7ac8-47fe-8c8a-2714d76a039d"
      },
      "context": {
        "reference": "urn:uuid:a115669f-05da-4efd-ae63-8259dc2dba0a"
      },
      "authored": "2021-08-03T13:07:14+00:00"
    }
  }, {
    "fullUrl": "urn:uuid:36033269-b598-42f5-b447-6ab23a323a04",
    "resource": {
      "resourceType": "Questionnaire",
      "id": "36033269-b598-42f5-b447-6ab23a323a04",
      "identifier": [ {
        "value": "1766759"
      } ],
      "version": "2021-08-03T13:07:14.000Z",
      "status": "active",
      "experimental": false,
      "date": "2021-08-03T13:07:14+00:00",
      "publisher": "User ID: '922' User name: 'AndrewJ.Walford' User skill set: 'T4'",
      "lastReviewDate": "2021-08-03",
      "contact": [ {
        "telecom": [ {
          "system": "phone",
          "value": "07798501130"
        } ]
      } ],
      "subjectType": [ "Patient" ]
    }
  }, {
    "fullUrl": "urn:uuid:1a48a8c3-f57f-4ae9-8a84-cfc9a3a79b8b",
    "resource": {
      "resourceType": "QuestionnaireResponse",
      "id": "1a48a8c3-f57f-4ae9-8a84-cfc9a3a79b8b",
      "identifier": {
        "value": "1766759"
      },
      "questionnaire": {
        "reference": "urn:uuid:31489308-89d2-4003-b8ae-01281a18458b"
      },
      "status": "completed",
      "subject": {
        "reference": "urn:uuid:9622cce4-7ac8-47fe-8c8a-2714d76a039d"
      },
      "context": {
        "reference": "urn:uuid:a115669f-05da-4efd-ae63-8259dc2dba0a"
      },
      "authored": "2021-08-03T13:07:14+00:00",
      "item": [ {
        "linkId": "Tx222984",
        "text": "WHAT IS THE MAIN PROBLEM?",
        "answer": [ {
          "valueString": "more"
        } ]
      } ]
    }
  }, {
    "fullUrl": "urn:uuid:31489308-89d2-4003-b8ae-01281a18458b",
    "resource": {
      "resourceType": "Questionnaire",
      "id": "31489308-89d2-4003-b8ae-01281a18458b",
      "identifier": [ {
        "value": "1766759"
      } ],
      "version": "2021-08-03T13:07:14.000Z",
      "status": "active",
      "experimental": false,
      "date": "2021-08-03T13:07:14+00:00",
      "publisher": "User ID: '922' User name: 'AndrewJ.Walford' User skill set: 'T4'",
      "lastReviewDate": "2021-08-03",
      "contact": [ {
        "telecom": [ {
          "system": "phone",
          "value": "07798501130"
        } ]
      } ],
      "subjectType": [ "Patient" ],
      "item": [ {
        "linkId": "1766759",
        "prefix": "0",
        "text": "WHAT IS THE MAIN PROBLEM?",
        "type": "choice",
        "required": true,
        "repeats": false,
        "option": [ {
          "valueString": "a rash, Selected: false"
        }, {
          "valueString": "itch, Selected: false"
        }, {
          "valueString": "yellow skin, Selected: false"
        }, {
          "valueString": "skin lumps, Selected: false"
        }, {
          "valueString": "easy or unexplained bruising, Selected: false"
        }, {
          "valueString": "more, Selected: true"
        } ]
      } ]
    }
  }, {
    "fullUrl": "urn:uuid:bda18101-4faa-4151-b04e-b8cb8f98611b",
    "resource": {
      "resourceType": "QuestionnaireResponse",
      "id": "bda18101-4faa-4151-b04e-b8cb8f98611b",
      "identifier": {
        "value": "1766759"
      },
      "questionnaire": {
        "reference": "urn:uuid:85d5c83e-249e-4e51-864c-dc852fde6a1e"
      },
      "status": "completed",
      "subject": {
        "reference": "urn:uuid:9622cce4-7ac8-47fe-8c8a-2714d76a039d"
      },
      "context": {
        "reference": "urn:uuid:a115669f-05da-4efd-ae63-8259dc2dba0a"
      },
      "authored": "2021-08-03T13:07:14+00:00",
      "item": [ {
        "linkId": "Tx222985",
        "text": "WHAT IS THE MAIN PROBLEM?",
        "answer": [ {
          "valueString": "declared head lice"
        } ]
      } ]
    }
  }, {
    "fullUrl": "urn:uuid:85d5c83e-249e-4e51-864c-dc852fde6a1e",
    "resource": {
      "resourceType": "Questionnaire",
      "id": "85d5c83e-249e-4e51-864c-dc852fde6a1e",
      "identifier": [ {
        "value": "1766759"
      } ],
      "version": "2021-08-03T13:07:14.000Z",
      "status": "active",
      "experimental": false,
      "date": "2021-08-03T13:07:14+00:00",
      "publisher": "User ID: '922' User name: 'AndrewJ.Walford' User skill set: 'T4'",
      "lastReviewDate": "2021-08-03",
      "contact": [ {
        "telecom": [ {
          "system": "phone",
          "value": "07798501130"
        } ]
      } ],
      "subjectType": [ "Patient" ],
      "item": [ {
        "linkId": "1766759",
        "prefix": "700",
        "text": "WHAT IS THE MAIN PROBLEM?",
        "type": "choice",
        "required": true,
        "repeats": false,
        "option": [ {
          "valueString": "declared head lice, Selected: true"
        }, {
          "valueString": "declared pubic lice, Selected: false"
        }, {
          "valueString": "declared scabies, Selected: false"
        }, {
          "valueString": "declared athlete's foot, Selected: false"
        }, {
          "valueString": "acne, spots or pimples, Selected: false"
        }, {
          "valueString": "more, Selected: false"
        } ]
      } ]
    }
  }, {
    "fullUrl": "urn:uuid:608bc62a-b40c-4046-90be-9e66156c9dea",
    "resource": {
      "resourceType": "QuestionnaireResponse",
      "id": "608bc62a-b40c-4046-90be-9e66156c9dea",
      "identifier": {
        "value": "1766759"
      },
      "questionnaire": {
        "reference": "urn:uuid:650d1f8d-34bb-494b-8aa0-c2d15c30b86f"
      },
      "status": "completed",
      "subject": {
        "reference": "urn:uuid:9622cce4-7ac8-47fe-8c8a-2714d76a039d"
      },
      "context": {
        "reference": "urn:uuid:a115669f-05da-4efd-ae63-8259dc2dba0a"
      },
      "authored": "2021-08-03T13:07:14+00:00",
      "item": [ {
        "linkId": "Tx220667",
        "text": "Have you been in contact with somebody with head lice or nits?",
        "answer": [ {
          "valueString": "yes"
        } ]
      } ]
    }
  }, {
    "fullUrl": "urn:uuid:650d1f8d-34bb-494b-8aa0-c2d15c30b86f",
    "resource": {
      "resourceType": "Questionnaire",
      "id": "650d1f8d-34bb-494b-8aa0-c2d15c30b86f",
      "identifier": [ {
        "value": "1766759"
      } ],
      "version": "2021-08-03T13:07:14.000Z",
      "status": "active",
      "experimental": false,
      "date": "2021-08-03T13:07:14+00:00",
      "publisher": "User ID: '922' User name: 'AndrewJ.Walford' User skill set: 'T4'",
      "lastReviewDate": "2021-08-03",
      "contact": [ {
        "telecom": [ {
          "system": "phone",
          "value": "07798501130"
        } ]
      } ],
      "subjectType": [ "Patient" ],
      "item": [ {
        "linkId": "1766759",
        "prefix": "0",
        "text": "Have you been in contact with somebody with head lice or nits?",
        "type": "choice",
        "required": true,
        "repeats": false,
        "option": [ {
          "valueString": "yes, Selected: true"
        }, {
          "valueString": "not sure, Selected: false"
        }, {
          "valueString": "no, Selected: false"
        } ]
      } ]
    }
  }, {
    "fullUrl": "urn:uuid:a095f3d1-23c8-4ded-a811-511ec8b18848",
    "resource": {
      "resourceType": "QuestionnaireResponse",
      "id": "a095f3d1-23c8-4ded-a811-511ec8b18848",
      "identifier": {
        "value": "1766759"
      },
      "questionnaire": {
        "reference": "urn:uuid:a77fffdb-a188-40be-a0e5-fe09c6d7f3f5"
      },
      "status": "completed",
      "subject": {
        "reference": "urn:uuid:9622cce4-7ac8-47fe-8c8a-2714d76a039d"
      },
      "context": {
        "reference": "urn:uuid:a115669f-05da-4efd-ae63-8259dc2dba0a"
      },
      "authored": "2021-08-03T13:07:14+00:00",
      "item": [ {
        "linkId": "Tx220664",
        "text": "Have you lost patches or clumps of hair OVER THE LAST FEW WEEKS?",
        "answer": [ {
          "valueString": "yes"
        } ]
      } ]
    }
  }, {
    "fullUrl": "urn:uuid:a77fffdb-a188-40be-a0e5-fe09c6d7f3f5",
    "resource": {
      "resourceType": "Questionnaire",
      "id": "a77fffdb-a188-40be-a0e5-fe09c6d7f3f5",
      "identifier": [ {
        "value": "1766759"
      } ],
      "version": "2021-08-03T13:07:14.000Z",
      "status": "active",
      "experimental": false,
      "date": "2021-08-03T13:07:14+00:00",
      "publisher": "User ID: '922' User name: 'AndrewJ.Walford' User skill set: 'T4'",
      "lastReviewDate": "2021-08-03",
      "contact": [ {
        "telecom": [ {
          "system": "phone",
          "value": "07798501130"
        } ]
      } ],
      "subjectType": [ "Patient" ],
      "item": [ {
        "linkId": "1766759",
        "prefix": "300",
        "text": "Have you lost patches or clumps of hair OVER THE LAST FEW WEEKS?",
        "type": "choice",
        "required": true,
        "repeats": false,
        "option": [ {
          "valueString": "yes, Selected: true"
        }, {
          "valueString": "not sure, Selected: false"
        }, {
          "valueString": "no, Selected: false"
        } ]
      } ]
    }
  }, {
    "fullUrl": "urn:uuid:a6ec9950-049d-4a7c-bbe8-599d16d94d15",
    "resource": {
      "resourceType": "QuestionnaireResponse",
      "id": "a6ec9950-049d-4a7c-bbe8-599d16d94d15",
      "identifier": {
        "value": "1766759"
      },
      "questionnaire": {
        "reference": "urn:uuid:11f1c3e8-1254-4d60-bc36-8180dd0f711d"
      },
      "status": "completed",
      "subject": {
        "reference": "urn:uuid:9622cce4-7ac8-47fe-8c8a-2714d76a039d"
      },
      "context": {
        "reference": "urn:uuid:a115669f-05da-4efd-ae63-8259dc2dba0a"
      },
      "authored": "2021-08-03T13:07:14+00:00",
      "item": [ {
        "linkId": "Tx221449",
        "text": "STRING:SDPCFullPrimaryCareassessmentandprescribingcapability",
        "answer": [ {
          "valueString": "\"\"PC full Primary Care assessment and prescribing capability\"\""
        } ]
      } ]
    }
  }, {
    "fullUrl": "urn:uuid:11f1c3e8-1254-4d60-bc36-8180dd0f711d",
    "resource": {
      "resourceType": "Questionnaire",
      "id": "11f1c3e8-1254-4d60-bc36-8180dd0f711d",
      "identifier": [ {
        "value": "1766759"
      } ],
      "version": "2021-08-03T13:07:14.000Z",
      "status": "active",
      "experimental": false,
      "date": "2021-08-03T13:07:14+00:00",
      "publisher": "User ID: '922' User name: 'AndrewJ.Walford' User skill set: 'T4'",
      "lastReviewDate": "2021-08-03",
      "contact": [ {
        "telecom": [ {
          "system": "phone",
          "value": "07798501130"
        } ]
      } ],
      "subjectType": [ "Patient" ],
      "item": [ {
        "linkId": "1766759",
        "prefix": "500",
        "text": "STRING:SDPCFullPrimaryCareassessmentandprescribingcapability",
        "type": "choice",
        "required": true,
        "repeats": false,
        "option": [ {
          "valueString": "\"\"PC full Primary Care assessment and prescribing capability\"\", Selected: true"
        } ]
      } ]
    }
  }, {
    "fullUrl": "urn:uuid:05cfed3e-4610-4e3b-a9c1-745dcdf59573",
    "resource": {
      "resourceType": "QuestionnaireResponse",
      "id": "05cfed3e-4610-4e3b-a9c1-745dcdf59573",
      "identifier": {
        "value": "1766759"
      },
      "questionnaire": {
        "reference": "urn:uuid:6b6c4df6-9d3b-4d3c-8a22-14f2401710d5"
      },
      "status": "completed",
      "subject": {
        "reference": "urn:uuid:9622cce4-7ac8-47fe-8c8a-2714d76a039d"
      },
      "context": {
        "reference": "urn:uuid:a115669f-05da-4efd-ae63-8259dc2dba0a"
      },
      "authored": "2021-08-03T13:07:14+00:00"
    }
  }, {
    "fullUrl": "urn:uuid:6b6c4df6-9d3b-4d3c-8a22-14f2401710d5",
    "resource": {
      "resourceType": "Questionnaire",
      "id": "6b6c4df6-9d3b-4d3c-8a22-14f2401710d5",
      "identifier": [ {
        "value": "1766759"
      } ],
      "version": "2021-08-03T13:07:14.000Z",
      "status": "active",
      "experimental": false,
      "date": "2021-08-03T13:07:14+00:00",
      "publisher": "User ID: '922' User name: 'AndrewJ.Walford' User skill set: 'T4'",
      "lastReviewDate": "2021-08-03",
      "contact": [ {
        "telecom": [ {
          "system": "phone",
          "value": "07798501130"
        } ]
      } ],
      "subjectType": [ "Patient" ]
    }
  }, {
    "fullUrl": "urn:uuid:7016292b-9172-46e4-b3d9-54f797ef46d8",
    "resource": {
      "resourceType": "QuestionnaireResponse",
      "id": "7016292b-9172-46e4-b3d9-54f797ef46d8",
      "identifier": {
        "value": "1766759"
      },
      "questionnaire": {
        "reference": "urn:uuid:cb332592-6150-4601-b8af-0dd7806e3cea"
      },
      "status": "completed",
      "subject": {
        "reference": "urn:uuid:9622cce4-7ac8-47fe-8c8a-2714d76a039d"
      },
      "context": {
        "reference": "urn:uuid:a115669f-05da-4efd-ae63-8259dc2dba0a"
      },
      "authored": "2021-08-03T13:07:14+00:00",
      "item": [ {
        "linkId": "N/A"
      } ]
    }
  }, {
    "fullUrl": "urn:uuid:cb332592-6150-4601-b8af-0dd7806e3cea",
    "resource": {
      "resourceType": "Questionnaire",
      "id": "cb332592-6150-4601-b8af-0dd7806e3cea",
      "identifier": [ {
        "value": "1766759"
      } ],
      "version": "2021-08-03T13:07:14.000Z",
      "status": "active",
      "experimental": false,
      "date": "2021-08-03T13:07:14+00:00",
      "publisher": "User ID: '922' User name: 'AndrewJ.Walford' User skill set: 'T4'",
      "lastReviewDate": "2021-08-03",
      "contact": [ {
        "telecom": [ {
          "system": "phone",
          "value": "07798501130"
        } ]
      } ],
      "subjectType": [ "Patient" ],
      "item": [ {
        "linkId": "1766759",
        "type": "choice",
        "required": true,
        "repeats": false,
        "option": [ {
          "valueString": ", Selected: false"
        } ]
      } ]
    }
  }, {
    "fullUrl": "urn:uuid:72296ce6-3a58-4efe-859d-1dea6b7727bd",
    "resource": {
      "resourceType": "QuestionnaireResponse",
      "id": "72296ce6-3a58-4efe-859d-1dea6b7727bd",
      "identifier": {
        "value": "1766759"
      },
      "questionnaire": {
        "reference": "urn:uuid:2be2f2ca-b434-4759-912a-c459bedde8a1"
      },
      "status": "completed",
      "subject": {
        "reference": "urn:uuid:9622cce4-7ac8-47fe-8c8a-2714d76a039d"
      },
      "context": {
        "reference": "urn:uuid:a115669f-05da-4efd-ae63-8259dc2dba0a"
      },
      "authored": "2021-08-03T13:07:14+00:00"
    }
  }, {
    "fullUrl": "urn:uuid:2be2f2ca-b434-4759-912a-c459bedde8a1",
    "resource": {
      "resourceType": "Questionnaire",
      "id": "2be2f2ca-b434-4759-912a-c459bedde8a1",
      "identifier": [ {
        "value": "1766759"
      } ],
      "version": "2021-08-03T13:07:14.000Z",
      "status": "active",
      "experimental": false,
      "date": "2021-08-03T13:07:14+00:00",
      "publisher": "User ID: '922' User name: 'AndrewJ.Walford' User skill set: 'T4'",
      "lastReviewDate": "2021-08-03",
      "contact": [ {
        "telecom": [ {
          "system": "phone",
          "value": "07798501130"
        } ]
      } ],
      "subjectType": [ "Patient" ]
    }
  }, {
    "fullUrl": "urn:uuid:7f951b8e-8da9-4f3c-af53-0cfea15357e3",
    "resource": {
      "resourceType": "Observation",
      "id": "7f951b8e-8da9-4f3c-af53-0cfea15357e3",
      "status": "final",
      "code": {
        "coding": [ {
          "system": "http://snomed.info/sct",
          "code": "33962009",
          "display": "Presenting complaint"
        } ]
      },
      "subject": {
        "reference": "urn:uuid:9622cce4-7ac8-47fe-8c8a-2714d76a039d"
      },
      "context": {
        "reference": "urn:uuid:a115669f-05da-4efd-ae63-8259dc2dba0a"
      }
    }
  }, {
    "fullUrl": "urn:uuid:00ae5245-86e2-4969-9206-07a3981ccb41",
    "resource": {
      "resourceType": "PractitionerRole",
      "id": "00ae5245-86e2-4969-9206-07a3981ccb41",
      "practitioner": {
        "reference": "urn:uuid:9efb11c5-ac15-4a68-acdf-00a2a91bf0cc"
      },
      "organization": {
        "reference": "urn:uuid:0ded5473-1fac-403b-be2e-30092d31a30d"
      },
      "code": [ {
        "coding": [ {
          "system": "2.16.840.1.113883.2.1.3.2.4.17.339",
          "code": "NP",
          "display": "Nurse Practitioner"
        } ]
      } ]
    }
  }, {
    "fullUrl": "urn:uuid:0ded5473-1fac-403b-be2e-30092d31a30d",
    "resource": {
      "resourceType": "Organization",
      "id": "0ded5473-1fac-403b-be2e-30092d31a30d",
      "identifier": [ {
        "value": "RX7"
      } ],
      "name": "NWAS 111"
    }
  }, {
    "fullUrl": "urn:uuid:aece949b-2937-416e-9f57-2a72179eca2e",
    "resource": {
      "resourceType": "RelatedPerson",
      "id": "aece949b-2937-416e-9f57-2a72179eca2e",
      "patient": {
        "reference": "urn:uuid:9622cce4-7ac8-47fe-8c8a-2714d76a039d"
      },
      "relationship": {
        "coding": [ {
          "system": "http://hl7.org/fhir/v2/0131",
          "code": "C",
          "display": "Emergency Contact"
        } ]
      },
      "telecom": [ {
        "system": "phone",
        "value": "tel:07798501130"
      } ]
    }
  }, {
    "fullUrl": "urn:uuid:ec9f6bfc-9958-4768-935c-ef635213e58e",
    "resource": {
      "resourceType": "Device",
      "id": "ec9f6bfc-9958-4768-935c-ef635213e58e",
      "model": "111 Adaptor",
      "version": "1.0.1"
    }
  }, {
    "fullUrl": "urn:uuid:61dc01e4-d23b-4bb8-9cf3-81bb89793ad2",
    "resource": {
      "resourceType": "List",
      "id": "61dc01e4-d23b-4bb8-9cf3-81bb89793ad2",
      "status": "current",
      "mode": "working",
      "title": "111 Report List",
      "code": {
        "coding": [ {
          "system": "http://snomed.info/sct",
          "code": "225390008",
          "display": "Triage"
        } ]
      },
      "subject": {
        "reference": "urn:uuid:9622cce4-7ac8-47fe-8c8a-2714d76a039d"
      },
      "encounter": {
        "reference": "urn:uuid:a115669f-05da-4efd-ae63-8259dc2dba0a"
      },
      "date": "2021-08-03T13:07:14+00:00",
      "source": {
        "reference": "urn:uuid:ec9f6bfc-9958-4768-935c-ef635213e58e"
      },
      "orderedBy": {
        "coding": [ {
          "system": "http://hl7.org/fhir/list-order",
          "code": "event-date",
          "display": "Sorted by Event Date"
        } ]
      },
      "entry": [ {
        "item": {
          "reference": "urn:uuid:8f3a4168-5c60-49eb-9bae-d2ec092a89a3"
        }
      }, {
        "item": {
          "reference": "urn:uuid:0ded5473-1fac-403b-be2e-30092d31a30d"
        }
      }, {
        "item": {
          "reference": "urn:uuid:aece949b-2937-416e-9f57-2a72179eca2e"
        }
      }, {
        "item": {
          "reference": "urn:uuid:d8dc20b8-9495-41a7-8e4d-87f29613187f"
        }
      }, {
        "item": {
          "reference": "urn:uuid:cde68ee4-da1c-4d03-89ab-d67d8e89d563"
        }
      }, {
        "item": {
          "reference": "urn:uuid:9efb11c5-ac15-4a68-acdf-00a2a91bf0cc"
        }
      }, {
        "item": {
          "reference": "urn:uuid:1947021c-7360-481f-9a70-6840a843ca8d"
        }
      }, {
        "item": {
          "reference": "urn:uuid:7f951b8e-8da9-4f3c-af53-0cfea15357e3"
        }
      }, {
        "item": {
          "reference": "urn:uuid:a98f00a5-cb89-46e1-a19e-e5be37a8ee86"
        }
      }, {
        "item": {
          "reference": "urn:uuid:abfe2e21-80d6-43a1-83ea-8a8d5eba676f"
        }
      }, {
        "item": {
          "reference": "urn:uuid:cb332592-6150-4601-b8af-0dd7806e3cea"
        }
      }, {
        "item": {
          "reference": "urn:uuid:1a48a8c3-f57f-4ae9-8a84-cfc9a3a79b8b"
        }
      }, {
        "item": {
          "reference": "urn:uuid:7538eb78-a229-49ea-9ad1-c494b0e21dc5"
        }
      }, {
        "item": {
          "reference": "urn:uuid:608bc62a-b40c-4046-90be-9e66156c9dea"
        }
      }, {
        "item": {
          "reference": "urn:uuid:7e29a530-8f46-4212-b04b-1468cb0c00c4"
        }
      }, {
        "item": {
          "reference": "urn:uuid:85d5c83e-249e-4e51-864c-dc852fde6a1e"
        }
      }, {
        "item": {
          "reference": "urn:uuid:840676b3-dd0f-4a6b-ae31-6f184c279b3e"
        }
      }, {
        "item": {
          "reference": "urn:uuid:9fc298f7-e0bb-43ca-8fde-da6202c1e5b6"
        }
      }, {
        "item": {
          "reference": "urn:uuid:650d1f8d-34bb-494b-8aa0-c2d15c30b86f"
        }
      }, {
        "item": {
          "reference": "urn:uuid:fed60296-d445-4865-9892-cfbbc4f46aeb"
        }
      }, {
        "item": {
          "reference": "urn:uuid:708592f9-8000-469a-b4d8-32ad5fc6bb24"
        }
      }, {
        "item": {
          "reference": "urn:uuid:77f87fae-8d36-4898-b7b3-0f5040c4f618"
        }
      }, {
        "item": {
          "reference": "urn:uuid:495d217c-a8a7-41f3-bd34-4a3f642aee45"
        }
      }, {
        "item": {
          "reference": "urn:uuid:308cf89e-26bc-4d97-9bfe-a39f0f8e4614"
        }
      }, {
        "item": {
          "reference": "urn:uuid:9cea0c26-3fbe-4c47-b0d3-1d12bd4050ae"
        }
      }, {
        "item": {
          "reference": "urn:uuid:b7b8cdb2-dc47-4b8f-af95-ca769439e810"
        }
      }, {
        "item": {
          "reference": "urn:uuid:7719d1dc-5131-4dd7-8c0f-79e73cab3f65"
        }
      }, {
        "item": {
          "reference": "urn:uuid:3c5e2152-1fac-4775-b1a8-eebb56fe7496"
        }
      }, {
        "item": {
          "reference": "urn:uuid:31489308-89d2-4003-b8ae-01281a18458b"
        }
      }, {
        "item": {
          "reference": "urn:uuid:bda18101-4faa-4151-b04e-b8cb8f98611b"
        }
      }, {
        "item": {
          "reference": "urn:uuid:ae53dedf-54c2-4f32-8602-e6cd3ec91708"
        }
      }, {
        "item": {
          "reference": "urn:uuid:ed57afee-33a5-4e10-8a66-55188f31c1df"
        }
      }, {
        "item": {
          "reference": "urn:uuid:05cfed3e-4610-4e3b-a9c1-745dcdf59573"
        }
      }, {
        "item": {
          "reference": "urn:uuid:a77fffdb-a188-40be-a0e5-fe09c6d7f3f5"
        }
      }, {
        "item": {
          "reference": "urn:uuid:72296ce6-3a58-4efe-859d-1dea6b7727bd"
        }
      }, {
        "item": {
          "reference": "urn:uuid:36033269-b598-42f5-b447-6ab23a323a04"
        }
      }, {
        "item": {
          "reference": "urn:uuid:5b41f258-9920-4c17-9d43-da0071178b58"
        }
      }, {
        "item": {
          "reference": "urn:uuid:4e7386b5-8e2e-4f20-a921-afa04afbb1d6"
        }
      }, {
        "item": {
          "reference": "urn:uuid:2be2f2ca-b434-4759-912a-c459bedde8a1"
        }
      }, {
        "item": {
          "reference": "urn:uuid:baade3c3-bbfa-438f-a42d-55f3c17619c7"
        }
      }, {
        "item": {
          "reference": "urn:uuid:721f224f-69e4-45d4-8549-d2976802458b"
        }
      }, {
        "item": {
          "reference": "urn:uuid:7016292b-9172-46e4-b3d9-54f797ef46d8"
        }
      }, {
        "item": {
          "reference": "urn:uuid:e70eb967-db61-4fde-bc13-13acc7d50341"
        }
      }, {
        "item": {
          "reference": "urn:uuid:11f1c3e8-1254-4d60-bc36-8180dd0f711d"
        }
      }, {
        "item": {
          "reference": "urn:uuid:3f8985d2-496b-4b7f-a1eb-5a152a8aa0dd"
        }
      }, {
        "item": {
          "reference": "urn:uuid:bdb364d1-bc61-48c1-9f39-90cc0b4263bc"
        }
      }, {
        "item": {
          "reference": "urn:uuid:54bb8b69-208f-429e-aea6-bb409083b390"
        }
      }, {
        "item": {
          "reference": "urn:uuid:a6ec9950-049d-4a7c-bbe8-599d16d94d15"
        }
      }, {
        "item": {
          "reference": "urn:uuid:5ef59079-4952-40ef-92a5-aa246d4a2a99"
        }
      }, {
        "item": {
          "reference": "urn:uuid:f1b0971c-e01f-4b9d-a084-38c11e94f4ed"
        }
      }, {
        "item": {
          "reference": "urn:uuid:6b6c4df6-9d3b-4d3c-8a22-14f2401710d5"
        }
      }, {
        "item": {
          "reference": "urn:uuid:a095f3d1-23c8-4ded-a811-511ec8b18848"
        }
      }, {
        "item": {
          "reference": "urn:uuid:2539e4af-c24f-43d4-898b-96a45599b617"
        }
      } ]
    }
  } ]
}