{
  "resourceType": "Bundle",
  "identifier": {
    "type": {
      "text": "ClinicalDocument VersionNumber"
    },
    "value": "1"
  },
  "type": "message",
  "entry": [ {
    "fullUrl": "urn:uuid:C34D38AA-2A35-4E0C-AAB2-BCC8D397736A",
    "resource": {
      "resourceType": "MessageHeader",
      "id": "C34D38AA-2A35-4E0C-AAB2-BCC8D397736A",
      "event": {
        "system": "https://fhir.nhs.uk/STU3/CodeSystem/EventType-1",
        "code": "referral-1",
        "display": "Referral"
      },
      "destination": [ {
        "endpoint": "urn:nhs-uk:addressing:ods:A82018:DOSServiceID:136753"
      } ],
      "timestamp": "2021-08-03T13:07:14.000+00:00",
      "source": {
        "name": "NHS 111 Adaptor",
        "endpoint": "http://localhost:8080/report"
      },
      "reason": {
        "coding": [ {
          "system": "urn:nhs-itk:ns:201005:interaction",
          "code": "urn:nhs-itk:interaction:primaryGeneralPractitionerRecipientNHS111CDADocument-v2-0"
        } ]
      }
    }
  }, {
    "fullUrl": "urn:uuid:6f9c41a7-4cf8-40a0-b162-efb1a0649f2c",
    "resource": {
      "resourceType": "Encounter",
      "id": "6f9c41a7-4cf8-40a0-b162-efb1a0649f2c",
      "identifier": [ {
        "system": "2.16.840.1.113883.2.1.3.2.4.18.49",
        "value": "6C072313-DFFB-4D60-9416-43B044FDBA9F"
      }, {
        "system": "2.16.840.1.113883.2.1.3.2.4.18.34",
        "value": "1766759"
      }, {
        "system": "2.16.840.1.113883.2.1.3.2.4.18.35",
        "value": "1766759"
      } ],
      "status": "finished",
      "type": [ {
        "text": "111 Encounter Referral"
      } ],
      "subject": {
        "reference": "urn:uuid:73fe09ef-fc53-4e2e-b2bf-5ce5f82bb3df"
      },
      "participant": [ {
        "type": [ {
          "coding": [ {
            "system": "http://hl7.org/fhir/ValueSet/encounter-participant-type",
            "code": "PPRF",
            "display": "Author"
          } ]
        } ],
        "individual": {
          "reference": "urn:uuid:69cf17d2-9358-42ae-a53a-f81067c90d75"
        }
      } ],
      "period": {
        "start": "2021-08-03T13:07:14+00:00"
      },
      "location": [ {
        "location": {
          "reference": "urn:uuid:ceeb966c-d38c-4ef9-9f42-aa5cebc3227b"
        },
        "status": "active"
      }, {
        "location": {
          "reference": "urn:uuid:5295a8c8-6f7d-4f64-a3fd-86485e126ff6"
        },
        "status": "completed"
      } ],
      "serviceProvider": {
        "reference": "urn:uuid:121e5aad-a3c1-4227-aa68-8d397f693a90"
      }
    }
  }, {
    "fullUrl": "urn:uuid:121e5aad-a3c1-4227-aa68-8d397f693a90",
    "resource": {
      "resourceType": "Organization",
      "id": "121e5aad-a3c1-4227-aa68-8d397f693a90",
      "active": true,
      "type": [ {
        "text": "CST"
      } ],
      "name": "NWAS 111"
    }
  }, {
    "fullUrl": "urn:uuid:69cf17d2-9358-42ae-a53a-f81067c90d75",
    "resource": {
      "resourceType": "Practitioner",
      "id": "69cf17d2-9358-42ae-a53a-f81067c90d75",
      "active": true,
      "name": [ {
        "text": "AndrewJ.Walford"
      } ]
    }
  }, {
    "fullUrl": "urn:uuid:ceeb966c-d38c-4ef9-9f42-aa5cebc3227b",
    "resource": {
      "resourceType": "Location",
      "id": "ceeb966c-d38c-4ef9-9f42-aa5cebc3227b",
      "managingOrganization": {
        "reference": "urn:uuid:64597bb3-9852-4fbb-9b42-a653e7283f4c"
      }
    }
  }, {
    "fullUrl": "urn:uuid:64597bb3-9852-4fbb-9b42-a653e7283f4c",
    "resource": {
      "resourceType": "Organization",
      "id": "64597bb3-9852-4fbb-9b42-a653e7283f4c",
      "identifier": [ {
        "value": "A82018"
      } ],
      "type": [ {
        "text": "GP Practice"
      } ],
      "name": "Spencer St Surgery",
      "telecom": [ {
        "system": "phone",
        "value": "tel:01228529171",
        "use": "work"
      } ],
      "address": [ {
        "use": "work",
        "line": [ "Spencer Street Surgery", "10 Spencer Street", "Carlisle" ],
        "postalCode": "CA1 1BP"
      } ]
    }
  }, {
    "fullUrl": "urn:uuid:5295a8c8-6f7d-4f64-a3fd-86485e126ff6",
    "resource": {
      "resourceType": "Location",
      "id": "5295a8c8-6f7d-4f64-a3fd-86485e126ff6",
      "address": {
        "type": "physical",
        "line": [ "North West Ambulance Service Nhs Trust Salkeld Hall", "Infirmary Street", "Carlisle" ],
        "postalCode": "CA2 7AN"
      }
    }
  }, {
    "fullUrl": "urn:uuid:73fe09ef-fc53-4e2e-b2bf-5ce5f82bb3df",
    "resource": {
      "resourceType": "Patient",
      "id": "73fe09ef-fc53-4e2e-b2bf-5ce5f82bb3df",
      "active": true,
      "name": [ {
        "use": "official",
        "family": "Please Disregard",
        "given": [ "Dx09 Test" ]
      } ],
      "telecom": [ {
        "system": "phone",
        "value": "tel:07798501130",
        "use": "mobile"
      }, {
        "system": "phone",
        "value": "tel:07798501130"
      } ],
      "gender": "male",
      "birthDate": "1980-01-01",
      "address": [ {
        "use": "home",
        "line": [ "North West Ambulance Service Nhs Trust Salkeld Hall", "Infirmary Street", "Carlisle" ],
        "postalCode": "CA2 7AN"
      }, {
        "type": "physical",
        "line": [ "North West Ambulance Service Nhs Trust Salkeld Hall", "Infirmary Street", "Carlisle" ],
        "postalCode": "CA2 7AN"
      } ],
      "generalPractitioner": [ {
        "reference": "urn:uuid:1a1b0734-32cc-43ca-8c21-a5f7e975058f"
      } ]
    }
  }, {
    "fullUrl": "urn:uuid:1a1b0734-32cc-43ca-8c21-a5f7e975058f",
    "resource": {
      "resourceType": "Organization",
      "id": "1a1b0734-32cc-43ca-8c21-a5f7e975058f",
      "identifier": [ {
        "value": "A82018"
      } ],
      "type": [ {
        "text": "GP Practice"
      } ],
      "name": "Spencer St Surgery",
      "telecom": [ {
        "system": "phone",
        "value": "tel:01228529171",
        "use": "work"
      } ],
      "address": [ {
        "use": "work",
        "line": [ "Spencer Street Surgery", "10 Spencer Street", "Carlisle" ],
        "postalCode": "CA1 1BP"
      } ]
    }
  }, {
    "fullUrl": "urn:uuid:9f5a67a0-73f1-46de-b482-fd51a7212429",
    "resource": {
      "resourceType": "HealthcareService",
      "id": "9f5a67a0-73f1-46de-b482-fd51a7212429",
      "active": true,
      "providedBy": {
        "reference": "urn:uuid:d38af34a-a012-4033-83f3-7666e47b227a"
      },
      "location": [ {
        "reference": "urn:uuid:00221a55-8840-4b11-973b-4021a60c51d2"
      } ],
      "name": "Spencer St Surgery",
      "telecom": [ {
        "system": "phone",
        "value": "tel:01228529171",
        "use": "work"
      } ]
    }
  }, {
    "fullUrl": "urn:uuid:00221a55-8840-4b11-973b-4021a60c51d2",
    "resource": {
      "resourceType": "Location",
      "id": "00221a55-8840-4b11-973b-4021a60c51d2",
      "telecom": [ {
        "system": "phone",
        "value": "tel:01228529171",
        "use": "work"
      } ],
      "address": {
        "use": "work",
        "line": [ "Spencer Street Surgery", "10 Spencer Street", "Carlisle" ],
        "postalCode": "CA1 1BP"
      },
      "managingOrganization": {
        "reference": "urn:uuid:d38af34a-a012-4033-83f3-7666e47b227a"
      }
    }
  }, {
    "fullUrl": "urn:uuid:d38af34a-a012-4033-83f3-7666e47b227a",
    "resource": {
      "resourceType": "Organization",
      "id": "d38af34a-a012-4033-83f3-7666e47b227a",
      "identifier": [ {
        "value": "A82018"
      } ],
      "type": [ {
        "coding": [ {
          "code": "PRCP",
          "display": "Spencer St Surgery"
        } ]
      } ],
      "name": "Spencer St Surgery"
    }
  }, {
    "fullUrl": "urn:uuid:29bdfc7b-02f3-4c71-886d-2aa5633cf312",
    "resource": {
      "resourceType": "ReferralRequest",
      "id": "29bdfc7b-02f3-4c71-886d-2aa5633cf312",
      "status": "active",
      "intent": "plan",
      "priority": "routine",
      "subject": {
        "reference": "urn:uuid:73fe09ef-fc53-4e2e-b2bf-5ce5f82bb3df"
      },
      "context": {
        "reference": "urn:uuid:6f9c41a7-4cf8-40a0-b162-efb1a0649f2c"
      },
      "occurrencePeriod": {
        "start": "2022-05-05T07:31:36+00:00",
        "end": "2022-05-05T08:31:36+00:00"
      },
      "authoredOn": "2021-08-03T12:36:56+00:00",
      "requester": {
        "agent": {
          "reference": "urn:uuid:cce6b682-0053-420f-8f3e-084cee4c309d"
        },
        "onBehalfOf": {
          "reference": "urn:uuid:121e5aad-a3c1-4227-aa68-8d397f693a90"
        }
      },
      "recipient": [ {
        "reference": "urn:uuid:6230dd66-2aa2-4ff2-8d9b-9f48155736f4"
      }, {
        "reference": "urn:uuid:9f5a67a0-73f1-46de-b482-fd51a7212429"
      } ],
      "reasonReference": [ {
        "reference": "urn:uuid:c1db47f7-79e2-468b-81e7-d97c33a48693"
      } ],
      "supportingInfo": [ {
        "reference": "urn:uuid:8f9313c3-2fc1-47c2-9cb3-4d55f8c4a44a"
      } ]
    }
  }, {
    "fullUrl": "urn:uuid:8f9313c3-2fc1-47c2-9cb3-4d55f8c4a44a",
    "resource": {
      "resourceType": "ProcedureRequest",
      "id": "8f9313c3-2fc1-47c2-9cb3-4d55f8c4a44a",
      "status": "active",
      "intent": "plan",
      "priority": "routine",
      "doNotPerform": false,
      "code": {
        "coding": [ {
          "system": "2.16.840.1.113883.2.1.3.2.4.17.325",
          "code": "Dx09",
          "display": "For Persistent Or Recurrent Symptoms: Get In Touch With A Local Service For A Non-urgent Appointment"
        } ]
      },
      "subject": {
        "reference": "urn:uuid:73fe09ef-fc53-4e2e-b2bf-5ce5f82bb3df"
      },
      "occurrencePeriod": {
        "start": "2022-05-05T07:31:36+00:00",
        "end": "2022-05-05T08:31:36+00:00"
      },
      "reasonReference": [ {
        "reference": "urn:uuid:c1db47f7-79e2-468b-81e7-d97c33a48693"
      } ]
    }
  }, {
    "fullUrl": "urn:uuid:6230dd66-2aa2-4ff2-8d9b-9f48155736f4",
    "resource": {
      "resourceType": "Practitioner",
      "id": "6230dd66-2aa2-4ff2-8d9b-9f48155736f4",
      "active": true,
      "address": [ {
        "type": "physical",
        "line": [ "Spencer Street Surgery", "Spencer Street", "Carlisle" ],
        "postalCode": "CA1 1BP"
      } ]
    }
  }, {
    "fullUrl": "urn:uuid:3be79bef-af9a-49b2-a1a3-56d3982c1857",
    "resource": {
      "resourceType": "Composition",
      "id": "3be79bef-af9a-49b2-a1a3-56d3982c1857",
      "identifier": {
        "use": "usual",
        "value": "B5A4AC85-5A10-4D08-B956-83421A24BB81"
      },
      "status": "final",
      "type": {
        "coding": [ {
          "system": "http://snomed.info/sct",
          "code": "371531000",
          "display": "Report of clinical encounter (record artifact)"
        } ]
      },
      "subject": {
        "reference": "urn:uuid:73fe09ef-fc53-4e2e-b2bf-5ce5f82bb3df"
      },
      "encounter": {
        "reference": "urn:uuid:6f9c41a7-4cf8-40a0-b162-efb1a0649f2c"
      },
      "date": "2021-08-03T13:07:14+00:00",
      "author": [ {
        "reference": "urn:uuid:69cf17d2-9358-42ae-a53a-f81067c90d75"
      } ],
      "title": "111 Report",
      "confidentiality": "N",
      "section": [ {
        "section": [ {
          "title": "Patient's Reported Condition",
          "text": {
            "status": "generated",
            "div": "<div xmlns=\"http://www.w3.org/1999/xhtml\">**test From Nwas111 - No Action Required - Please Disregard Test</div>"
          }
        }, {
          "title": "Case Summary",
          "text": {
            "status": "generated",
            "div": "<div xmlns=\"http://www.w3.org/1999/xhtml\">&lt;content styleCode=&quot;bold&quot;&gt;Pathways Disposition: Dx09&lt;/content&gt;\n                                                    &lt;br/&gt;\n                                                    &lt;content&gt;For Persistent Or Recurrent Symptoms: Get In Touch With A Local Service For A Non-urgent Appointment&lt;/content&gt;\n                                                    &lt;br/&gt;\n                                                    &lt;br/&gt;\n                                                    &lt;content styleCode=&quot;bold&quot;&gt;Consultation Summary:&lt;/content&gt;\n                                                    &lt;br/&gt;\n                                                    &lt;content&gt;Illness - '**Test From NWAS111 - No Action required - Please Disregard Test case**'&lt;/content&gt;\n                                                    &lt;br/&gt;\n                                                    &lt;content&gt;Warm to touch&lt;/content&gt;\n                                                    &lt;br/&gt;\n                                                    &lt;content&gt;Head lice&lt;/content&gt;\n                                                    &lt;br/&gt;\n                                                    &lt;content&gt;Head lice contact&lt;/content&gt;\n                                                    &lt;br/&gt;\n                                                    &lt;content&gt;Recent sudden loss of clumps of hair&lt;/content&gt;\n                                                    &lt;br/&gt;\n                                                    &lt;br/&gt;\n                                                    &lt;content styleCode=&quot;bold&quot;&gt;Pathways Assessment:&lt;/content&gt;\n                                                    &lt;br/&gt;\n                                                    &lt;content&gt;An injury or health problem was the reason for the contact.&lt;/content&gt;\n                                                    &lt;br/&gt;\n                                                    &lt;content&gt;User comment - '**Test From NWAS111 - No Action required - Please Disregard Test case**'&lt;/content&gt;\n                                                    &lt;br/&gt;\n                                                    &lt;content&gt;Heavy bleeding had not occurred in the previous 2 hours.&lt;/content&gt;\n                                                    &lt;br/&gt;\n                                                    &lt;content&gt;An illness or health problem was the main problem.&lt;/content&gt;\n                                                    &lt;br/&gt;\n                                                    &lt;content&gt;User comment - '**Test From NWAS111 - No Action required - Please Disregard Test case**'&lt;/content&gt;\n                                                    &lt;br/&gt;\n                                                    &lt;content&gt;The individual was not fighting for breath.&lt;/content&gt;\n                                                    &lt;br/&gt;\n                                                    &lt;content&gt;The main reason for the assessment was not an allergic reaction, heart attack, chest/upper back pain, probable stroke, recent fit/seizure or suicide attempt.&lt;/content&gt;\n                                                    &lt;br/&gt;\n                                                    &lt;content&gt;The main reason for contact was not new confusion, declared diabetic hypo/hyperglycaemia, or ICD shock.&lt;/content&gt;\n                                                    &lt;br/&gt;\n                                                    &lt;content&gt;The skin on the torso felt normal, warm or hot.&lt;/content&gt;\n                                                    &lt;br/&gt;\n                                                    &lt;content&gt;Pathway selected - Skin Problems&lt;/content&gt;\n                                                    &lt;br/&gt;\n                                                    &lt;content&gt;The main problem was not a rash, itch, jaundice, skin lumps or abnormal bruising.&lt;/content&gt;\n                                                    &lt;br/&gt;\n                                                    &lt;content&gt;The main problem was head lice.&lt;/content&gt;\n                                                    &lt;br/&gt;\n                                                    &lt;content&gt;There had been contact with somebody with head lice.&lt;/content&gt;\n                                                    &lt;br/&gt;\n                                                    &lt;content&gt;There was recent patchy hair loss.&lt;/content&gt;\n                                                    &lt;br/&gt;\n                                                    &lt;content&gt;User comment - 'GP - Spencer Street Surgery - Cumbria (Home GP)'&lt;/content&gt;\n                                                    &lt;br/&gt;\n                                                    &lt;br/&gt;\n                                                    &lt;content styleCode=&quot;bold&quot;&gt;Advice Given:&lt;/content&gt;\n                                                    &lt;br/&gt;\n                                                    &lt;content&gt;Head lice is common. Speak to a pharmacist for advice on suitable treatments.&lt;/content&gt;\n                                                    &lt;br/&gt;\n                                                    &lt;br/&gt;</div>"
          }
        } ]
      }, {
        "title": "ReferralRequest",
        "entry": [ {
          "reference": "urn:uuid:29bdfc7b-02f3-4c71-886d-2aa5633cf312"
        } ]
      }, {
        "title": "QuestionnaireResponse",
        "entry": [ {
          "reference": "urn:uuid:09ddad4c-3334-476b-b7aa-0df9d460f924"
        } ]
      }, {
        "title": "QuestionnaireResponse",
        "entry": [ {
          "reference": "urn:uuid:99cf9155-fc58-4f2d-9f58-00609538c970"
        } ]
      }, {
        "title": "QuestionnaireResponse",
        "entry": [ {
          "reference": "urn:uuid:b1acd590-0fb5-443c-9145-cc6110ea02f6"
        } ]
      }, {
        "title": "QuestionnaireResponse",
        "entry": [ {
          "reference": "urn:uuid:4d477cc3-09d3-4fe5-9bf0-db2a9c37c4a3"
        } ]
      }, {
        "title": "QuestionnaireResponse",
        "entry": [ {
          "reference": "urn:uuid:4b2cae3d-9923-45a5-b9d3-d9caf9286883"
        } ]
      }, {
        "title": "QuestionnaireResponse",
        "entry": [ {
          "reference": "urn:uuid:ef063ef0-228d-439e-ada1-0789daacffe3"
        } ]
      }, {
        "title": "QuestionnaireResponse",
        "entry": [ {
          "reference": "urn:uuid:cd3f468b-0158-4c52-bf3a-a4cb3eab094b"
        } ]
      }, {
        "title": "QuestionnaireResponse",
        "entry": [ {
          "reference": "urn:uuid:b93113ac-ea62-4ce3-aaa2-2ec6f6757f5e"
        } ]
      }, {
        "title": "QuestionnaireResponse",
        "entry": [ {
          "reference": "urn:uuid:987358e2-67c6-47cb-90be-555d1acbee3b"
        } ]
      }, {
        "title": "QuestionnaireResponse",
        "entry": [ {
          "reference": "urn:uuid:42423c6c-8736-4548-b2aa-c14bed809236"
        } ]
      }, {
        "title": "QuestionnaireResponse",
        "entry": [ {
          "reference": "urn:uuid:fff0e811-96a8-4c25-807b-f123b27fd887"
        } ]
      }, {
        "title": "QuestionnaireResponse",
        "entry": [ {
          "reference": "urn:uuid:409abc32-b9e0-4b96-99d5-fd17d2e98f0e"
        } ]
      }, {
        "title": "QuestionnaireResponse",
        "entry": [ {
          "reference": "urn:uuid:78003835-c4c3-493e-b205-00dcc8c3ac2a"
        } ]
      }, {
        "title": "QuestionnaireResponse",
        "entry": [ {
          "reference": "urn:uuid:7218258c-e60b-48bb-8db1-cc7ad3e3e1a4"
        } ]
      }, {
        "title": "QuestionnaireResponse",
        "entry": [ {
          "reference": "urn:uuid:ca504bc5-076c-4c21-a43c-9fe0188c7963"
        } ]
      }, {
        "title": "QuestionnaireResponse",
        "entry": [ {
          "reference": "urn:uuid:748d76c6-cdfc-4b86-9753-084c7b5783eb"
        } ]
      }, {
        "title": "QuestionnaireResponse",
        "entry": [ {
          "reference": "urn:uuid:1ae606f0-abfd-436f-ae20-68fa968e286d"
        } ]
      }, {
        "title": "QuestionnaireResponse",
        "entry": [ {
          "reference": "urn:uuid:3bf43378-46ff-41e9-b77e-9ecddc4118a5"
        } ]
      }, {
        "title": "QuestionnaireResponse",
        "entry": [ {
          "reference": "urn:uuid:5f464c65-1548-4a44-80e9-4cb1b5b906f0"
        } ]
      }, {
        "title": "QuestionnaireResponse",
        "entry": [ {
          "reference": "urn:uuid:50685cb7-45ac-4960-9c56-723d61137ca2"
        } ]
      }, {
        "title": "QuestionnaireResponse",
        "entry": [ {
          "reference": "urn:uuid:db5e9f3e-292d-4a16-956a-d200d3577d39"
        } ]
      } ]
    }
  }, {
    "fullUrl": "urn:uuid:edc5995e-8592-4113-a3c2-2aac003aff52",
    "resource": {
      "resourceType": "Consent",
      "id": "edc5995e-8592-4113-a3c2-2aac003aff52",
      "identifier": {
        "use": "usual",
        "value": "B5A4AC85-5A10-4D08-B956-83421A24BB81"
      },
      "status": "active",
      "patient": {
        "reference": "urn:uuid:73fe09ef-fc53-4e2e-b2bf-5ce5f82bb3df"
      },
      "period": {
        "start": "2021-08-03T13:07:14+00:00"
      },
      "consentingParty": [ {
        "reference": "urn:uuid:73fe09ef-fc53-4e2e-b2bf-5ce5f82bb3df"
      } ],
      "action": [ {
        "coding": [ {
          "system": "http://snomed.info/sct",
          "code": "425691002",
          "display": "Consent given for electronic record sharing"
        } ],
        "text": "Consent given for electronic record sharing"
      } ],
      "organization": [ {
        "reference": "urn:uuid:121e5aad-a3c1-4227-aa68-8d397f693a90"
      } ],
      "policyRule": "http://hl7.org/fhir/ConsentPolicy/opt-out",
      "data": [ {
        "meaning": "related",
        "reference": {
          "reference": "urn:uuid:6f9c41a7-4cf8-40a0-b162-efb1a0649f2c"
        }
      } ]
    }
  }, {
    "fullUrl": "urn:uuid:c1db47f7-79e2-468b-81e7-d97c33a48693",
    "resource": {
      "resourceType": "Condition",
      "id": "c1db47f7-79e2-468b-81e7-d97c33a48693",
      "clinicalStatus": "active",
      "verificationStatus": "unknown",
      "subject": {
        "reference": "urn:uuid:73fe09ef-fc53-4e2e-b2bf-5ce5f82bb3df"
      },
      "context": {
        "reference": "urn:uuid:6f9c41a7-4cf8-40a0-b162-efb1a0649f2c"
      },
      "evidence": [ {
        "detail": [ {
          "reference": "urn:uuid:09ddad4c-3334-476b-b7aa-0df9d460f924"
        } ]
      }, {
        "detail": [ {
          "reference": "urn:uuid:99cf9155-fc58-4f2d-9f58-00609538c970"
        } ]
      }, {
        "detail": [ {
          "reference": "urn:uuid:b1acd590-0fb5-443c-9145-cc6110ea02f6"
        } ]
      }, {
        "detail": [ {
          "reference": "urn:uuid:4d477cc3-09d3-4fe5-9bf0-db2a9c37c4a3"
        } ]
      }, {
        "detail": [ {
          "reference": "urn:uuid:4b2cae3d-9923-45a5-b9d3-d9caf9286883"
        } ]
      }, {
        "detail": [ {
          "reference": "urn:uuid:ef063ef0-228d-439e-ada1-0789daacffe3"
        } ]
      }, {
        "detail": [ {
          "reference": "urn:uuid:cd3f468b-0158-4c52-bf3a-a4cb3eab094b"
        } ]
      }, {
        "detail": [ {
          "reference": "urn:uuid:b93113ac-ea62-4ce3-aaa2-2ec6f6757f5e"
        } ]
      }, {
        "detail": [ {
          "reference": "urn:uuid:987358e2-67c6-47cb-90be-555d1acbee3b"
        } ]
      }, {
        "detail": [ {
          "reference": "urn:uuid:42423c6c-8736-4548-b2aa-c14bed809236"
        } ]
      }, {
        "detail": [ {
          "reference": "urn:uuid:fff0e811-96a8-4c25-807b-f123b27fd887"
        } ]
      }, {
        "detail": [ {
          "reference": "urn:uuid:409abc32-b9e0-4b96-99d5-fd17d2e98f0e"
        } ]
      }, {
        "detail": [ {
          "reference": "urn:uuid:78003835-c4c3-493e-b205-00dcc8c3ac2a"
        } ]
      }, {
        "detail": [ {
          "reference": "urn:uuid:7218258c-e60b-48bb-8db1-cc7ad3e3e1a4"
        } ]
      }, {
        "detail": [ {
          "reference": "urn:uuid:ca504bc5-076c-4c21-a43c-9fe0188c7963"
        } ]
      }, {
        "detail": [ {
          "reference": "urn:uuid:748d76c6-cdfc-4b86-9753-084c7b5783eb"
        } ]
      }, {
        "detail": [ {
          "reference": "urn:uuid:1ae606f0-abfd-436f-ae20-68fa968e286d"
        } ]
      }, {
        "detail": [ {
          "reference": "urn:uuid:3bf43378-46ff-41e9-b77e-9ecddc4118a5"
        } ]
      }, {
        "detail": [ {
          "reference": "urn:uuid:5f464c65-1548-4a44-80e9-4cb1b5b906f0"
        } ]
      }, {
        "detail": [ {
          "reference": "urn:uuid:50685cb7-45ac-4960-9c56-723d61137ca2"
        } ]
      }, {
        "detail": [ {
          "reference": "urn:uuid:db5e9f3e-292d-4a16-956a-d200d3577d39"
        } ]
      } ]
    }
  }, {
    "fullUrl": "urn:uuid:09ddad4c-3334-476b-b7aa-0df9d460f924",
    "resource": {
      "resourceType": "QuestionnaireResponse",
      "id": "09ddad4c-3334-476b-b7aa-0df9d460f924",
      "identifier": {
        "value": "1766759"
      },
      "questionnaire": {
        "reference": "urn:uuid:8e5991eb-6822-46b7-9584-d35f1c8454dc"
      },
      "status": "completed",
      "subject": {
        "reference": "urn:uuid:73fe09ef-fc53-4e2e-b2bf-5ce5f82bb3df"
      },
      "context": {
        "reference": "urn:uuid:6f9c41a7-4cf8-40a0-b162-efb1a0649f2c"
      },
      "authored": "2021-08-03T13:07:14+00:00",
      "item": [ {
        "linkId": "Tx220109",
        "text": "What is the reason for the contact?",
        "answer": [ {
          "valueString": "an injury or other health problem"
        } ]
      } ]
    }
  }, {
    "fullUrl": "urn:uuid:8e5991eb-6822-46b7-9584-d35f1c8454dc",
    "resource": {
      "resourceType": "Questionnaire",
      "id": "8e5991eb-6822-46b7-9584-d35f1c8454dc",
      "identifier": [ {
        "value": "1766759"
      } ],
      "version": "2021-08-03T13:07:14.000Z",
      "status": "active",
      "experimental": false,
      "date": "2021-08-03T13:07:14+00:00",
      "publisher": "User ID: '922' User name: 'AndrewJ.Walford' User skill set: 'T4'",
      "lastReviewDate": "2021-08-03",
      "contact": [ {
        "telecom": [ {
          "system": "phone",
          "value": "07798501130"
        } ]
      } ],
      "subjectType": [ "Patient" ],
      "item": [ {
        "linkId": "1766759",
        "prefix": "5",
        "text": "What is the reason for the contact?",
        "type": "choice",
        "required": true,
        "repeats": false,
        "option": [ {
          "valueString": "an injury or other health problem, Selected: true"
        }, {
          "valueString": "a need to access another healthcare service, Selected: false"
        }, {
          "valueString": "a healthcare professional requesting contact with another clinician, Selected: false"
        }, {
          "valueString": "a report of results or tests, Selected: false"
        }, {
          "valueString": "more, Selected: false"
        } ]
      } ]
    }
  }, {
    "fullUrl": "urn:uuid:99cf9155-fc58-4f2d-9f58-00609538c970",
    "resource": {
      "resourceType": "QuestionnaireResponse",
      "id": "99cf9155-fc58-4f2d-9f58-00609538c970",
      "identifier": {
        "value": "1766759"
      },
      "questionnaire": {
        "reference": "urn:uuid:ef830d75-22f9-48e3-ae67-4a54e0d17645"
      },
      "status": "completed",
      "subject": {
        "reference": "urn:uuid:73fe09ef-fc53-4e2e-b2bf-5ce5f82bb3df"
      },
      "context": {
        "reference": "urn:uuid:6f9c41a7-4cf8-40a0-b162-efb1a0649f2c"
      },
      "authored": "2021-08-03T13:07:14+00:00",
      "item": [ {
        "linkId": "Tx221788",
        "text": "STRING:to'ImmediateThreatsToLife(SPA/OOHversion)'-'ABC'menu",
        "answer": [ {
          "valueString": "\"\"present\"\""
        } ]
      } ]
    }
  }, {
    "fullUrl": "urn:uuid:ef830d75-22f9-48e3-ae67-4a54e0d17645",
    "resource": {
      "resourceType": "Questionnaire",
      "id": "ef830d75-22f9-48e3-ae67-4a54e0d17645",
      "identifier": [ {
        "value": "1766759"
      } ],
      "version": "2021-08-03T13:07:14.000Z",
      "status": "active",
      "experimental": false,
      "date": "2021-08-03T13:07:14+00:00",
      "publisher": "User ID: '922' User name: 'AndrewJ.Walford' User skill set: 'T4'",
      "lastReviewDate": "2021-08-03",
      "contact": [ {
        "telecom": [ {
          "system": "phone",
          "value": "07798501130"
        } ]
      } ],
      "subjectType": [ "Patient" ],
      "item": [ {
        "linkId": "1766759",
        "prefix": "500",
        "text": "STRING:to'ImmediateThreatsToLife(SPA/OOHversion)'-'ABC'menu",
        "type": "choice",
        "required": true,
        "repeats": false,
        "option": [ {
          "valueString": "\"\"present\"\", Selected: true"
        } ]
      } ]
    }
  }, {
    "fullUrl": "urn:uuid:b1acd590-0fb5-443c-9145-cc6110ea02f6",
    "resource": {
      "resourceType": "QuestionnaireResponse",
      "id": "b1acd590-0fb5-443c-9145-cc6110ea02f6",
      "identifier": {
        "value": "1766759"
      },
      "questionnaire": {
        "reference": "urn:uuid:3b1ba0b9-1b52-464d-b525-2c3a3190e36c"
      },
      "status": "completed",
      "subject": {
        "reference": "urn:uuid:73fe09ef-fc53-4e2e-b2bf-5ce5f82bb3df"
      },
      "context": {
        "reference": "urn:uuid:6f9c41a7-4cf8-40a0-b162-efb1a0649f2c"
      },
      "authored": "2021-08-03T13:07:14+00:00",
      "item": [ {
        "linkId": "Tx221814",
        "text": "STRING:aninjuryorotherhealthproblemestablishedinEntryFlow",
        "answer": [ {
          "valueString": "\"\"present\"\""
        } ]
      } ]
    }
  }, {
    "fullUrl": "urn:uuid:3b1ba0b9-1b52-464d-b525-2c3a3190e36c",
    "resource": {
      "resourceType": "Questionnaire",
      "id": "3b1ba0b9-1b52-464d-b525-2c3a3190e36c",
      "identifier": [ {
        "value": "1766759"
      } ],
      "version": "2021-08-03T13:07:14.000Z",
      "status": "active",
      "experimental": false,
      "date": "2021-08-03T13:07:14+00:00",
      "publisher": "User ID: '922' User name: 'AndrewJ.Walford' User skill set: 'T4'",
      "lastReviewDate": "2021-08-03",
      "contact": [ {
        "telecom": [ {
          "system": "phone",
          "value": "07798501130"
        } ]
      } ],
      "subjectType": [ "Patient" ],
      "item": [ {
        "linkId": "1766759",
        "prefix": "0",
        "text": "STRING:aninjuryorotherhealthproblemestablishedinEntryFlow",
        "type": "choice",
        "required": true,
        "repeats": false,
        "option": [ {
          "valueString": "\"\"present\"\", Selected: true"
        } ]
      } ]
    }
  }, {
    "fullUrl": "urn:uuid:4d477cc3-09d3-4fe5-9bf0-db2a9c37c4a3",
    "resource": {
      "resourceType": "QuestionnaireResponse",
      "id": "4d477cc3-09d3-4fe5-9bf0-db2a9c37c4a3",
      "identifier": {
        "value": "1766759"
      },
      "questionnaire": {
        "reference": "urn:uuid:ede67392-5f89-49e7-a088-95ff1d72656c"
      },
      "status": "completed",
      "subject": {
        "reference": "urn:uuid:73fe09ef-fc53-4e2e-b2bf-5ce5f82bb3df"
      },
      "context": {
        "reference": "urn:uuid:6f9c41a7-4cf8-40a0-b162-efb1a0649f2c"
      },
      "authored": "2021-08-03T13:07:14+00:00",
      "item": [ {
        "linkId": "Tx224120",
        "text": "Have you been bleeding RED BLOOD very heavily IN THE LAST 2 HOURS?",
        "answer": [ {
          "valueString": "no"
        } ]
      } ]
    }
  }, {
    "fullUrl": "urn:uuid:ede67392-5f89-49e7-a088-95ff1d72656c",
    "resource": {
      "resourceType": "Questionnaire",
      "id": "ede67392-5f89-49e7-a088-95ff1d72656c",
      "identifier": [ {
        "value": "1766759"
      } ],
      "version": "2021-08-03T13:07:14.000Z",
      "status": "active",
      "experimental": false,
      "date": "2021-08-03T13:07:14+00:00",
      "publisher": "User ID: '922' User name: 'AndrewJ.Walford' User skill set: 'T4'",
      "lastReviewDate": "2021-08-03",
      "contact": [ {
        "telecom": [ {
          "system": "phone",
          "value": "07798501130"
        } ]
      } ],
      "subjectType": [ "Patient" ],
      "item": [ {
        "linkId": "1766759",
        "prefix": "7000",
        "text": "Have you been bleeding RED BLOOD very heavily IN THE LAST 2 HOURS?",
        "type": "choice",
        "required": true,
        "repeats": false,
        "option": [ {
          "valueString": "yes, Selected: false"
        }, {
          "valueString": "not sure, Selected: false"
        }, {
          "valueString": "no, Selected: true"
        } ]
      } ]
    }
  }, {
    "fullUrl": "urn:uuid:4b2cae3d-9923-45a5-b9d3-d9caf9286883",
    "resource": {
      "resourceType": "QuestionnaireResponse",
      "id": "4b2cae3d-9923-45a5-b9d3-d9caf9286883",
      "identifier": {
        "value": "1766759"
      },
      "questionnaire": {
        "reference": "urn:uuid:e0b67681-3d76-467a-97a8-5550e28cc05c"
      },
      "status": "completed",
      "subject": {
        "reference": "urn:uuid:73fe09ef-fc53-4e2e-b2bf-5ce5f82bb3df"
      },
      "context": {
        "reference": "urn:uuid:6f9c41a7-4cf8-40a0-b162-efb1a0649f2c"
      },
      "authored": "2021-08-03T13:07:14+00:00",
      "item": [ {
        "linkId": "Tx221343",
        "text": "SocialConcernsExcluded",
        "answer": [ {
          "valueString": "*"
        } ]
      } ]
    }
  }, {
    "fullUrl": "urn:uuid:e0b67681-3d76-467a-97a8-5550e28cc05c",
    "resource": {
      "resourceType": "Questionnaire",
      "id": "e0b67681-3d76-467a-97a8-5550e28cc05c",
      "identifier": [ {
        "value": "1766759"
      } ],
      "version": "2021-08-03T13:07:14.000Z",
      "status": "active",
      "experimental": false,
      "date": "2021-08-03T13:07:14+00:00",
      "publisher": "User ID: '922' User name: 'AndrewJ.Walford' User skill set: 'T4'",
      "lastReviewDate": "2021-08-03",
      "contact": [ {
        "telecom": [ {
          "system": "phone",
          "value": "07798501130"
        } ]
      } ],
      "subjectType": [ "Patient" ],
      "item": [ {
        "linkId": "1766759",
        "prefix": "2700",
        "text": "SocialConcernsExcluded",
        "type": "choice",
        "required": true,
        "repeats": false,
        "option": [ {
          "valueString": "==\"\"present\"\", Selected: false"
        }, {
          "valueString": "*, Selected: true"
        } ]
      } ]
    }
  }, {
    "fullUrl": "urn:uuid:ef063ef0-228d-439e-ada1-0789daacffe3",
    "resource": {
      "resourceType": "QuestionnaireResponse",
      "id": "ef063ef0-228d-439e-ada1-0789daacffe3",
      "identifier": {
        "value": "1766759"
      },
      "questionnaire": {
        "reference": "urn:uuid:de1bf39d-a667-4024-801d-0e698719f132"
      },
      "status": "completed",
      "subject": {
        "reference": "urn:uuid:73fe09ef-fc53-4e2e-b2bf-5ce5f82bb3df"
      },
      "context": {
        "reference": "urn:uuid:6f9c41a7-4cf8-40a0-b162-efb1a0649f2c"
      },
      "authored": "2021-08-03T13:07:14+00:00",
      "item": [ {
        "linkId": "Tx130011",
        "text": "What is the main problem?",
        "answer": [ {
          "valueString": "illness or other health problem (specify)"
        } ]
      } ]
    }
  }, {
    "fullUrl": "urn:uuid:de1bf39d-a667-4024-801d-0e698719f132",
    "resource": {
      "resourceType": "Questionnaire",
      "id": "de1bf39d-a667-4024-801d-0e698719f132",
      "identifier": [ {
        "value": "1766759"
      } ],
      "version": "2021-08-03T13:07:14.000Z",
      "status": "active",
      "experimental": false,
      "date": "2021-08-03T13:07:14+00:00",
      "publisher": "User ID: '922' User name: 'AndrewJ.Walford' User skill set: 'T4'",
      "lastReviewDate": "2021-08-03",
      "contact": [ {
        "telecom": [ {
          "system": "phone",
          "value": "07798501130"
        } ]
      } ],
      "subjectType": [ "Patient" ],
      "item": [ {
        "linkId": "1766759",
        "prefix": "3400",
        "text": "What is the main problem?",
        "type": "choice",
        "required": true,
        "repeats": false,
        "option": [ {
          "valueString": "the individual has been told to follow a particular course of action (specify), Selected: false"
        }, {
          "valueString": "the individual is an identified frequent caller, Selected: false"
        }, {
          "valueString": "injury (specify), Selected: false"
        }, {
          "valueString": "illness or other health problem (specify), Selected: true"
        }, {
          "valueString": "child protection/vulnerable adult concern, Selected: false"
        }, {
          "valueString": "social or domestic emergency, Selected: false"
        }, {
          "valueString": "the environment potentially poses an immediate threat to life (specify), Selected: false"
        } ]
      } ]
    }
  }, {
    "fullUrl": "urn:uuid:cd3f468b-0158-4c52-bf3a-a4cb3eab094b",
    "resource": {
      "resourceType": "QuestionnaireResponse",
      "id": "cd3f468b-0158-4c52-bf3a-a4cb3eab094b",
      "identifier": {
        "value": "1766759"
      },
      "questionnaire": {
        "reference": "urn:uuid:716d69c1-9b99-4036-906b-aa0b49f7d27b"
      },
      "status": "completed",
      "subject": {
        "reference": "urn:uuid:73fe09ef-fc53-4e2e-b2bf-5ce5f82bb3df"
      },
      "context": {
        "reference": "urn:uuid:6f9c41a7-4cf8-40a0-b162-efb1a0649f2c"
      },
      "authored": "2021-08-03T13:07:14+00:00",
      "item": [ {
        "linkId": "Tx61025",
        "text": "Are you so breathless that speaking more than a few words is impossible?",
        "answer": [ {
          "valueString": "no"
        } ]
      } ]
    }
  }, {
    "fullUrl": "urn:uuid:716d69c1-9b99-4036-906b-aa0b49f7d27b",
    "resource": {
      "resourceType": "Questionnaire",
      "id": "716d69c1-9b99-4036-906b-aa0b49f7d27b",
      "identifier": [ {
        "value": "1766759"
      } ],
      "version": "2021-08-03T13:07:14.000Z",
      "status": "active",
      "experimental": false,
      "date": "2021-08-03T13:07:14+00:00",
      "publisher": "User ID: '922' User name: 'AndrewJ.Walford' User skill set: 'T4'",
      "lastReviewDate": "2021-08-03",
      "contact": [ {
        "telecom": [ {
          "system": "phone",
          "value": "07798501130"
        } ]
      } ],
      "subjectType": [ "Patient" ],
      "item": [ {
        "linkId": "1766759",
        "prefix": "0",
        "text": "Are you so breathless that speaking more than a few words is impossible?",
        "type": "choice",
        "required": true,
        "repeats": false,
        "option": [ {
          "valueString": "yes, Selected: false"
        }, {
          "valueString": "not sure, Selected: false"
        }, {
          "valueString": "no, Selected: true"
        } ]
      } ]
    }
  }, {
    "fullUrl": "urn:uuid:b93113ac-ea62-4ce3-aaa2-2ec6f6757f5e",
    "resource": {
      "resourceType": "QuestionnaireResponse",
      "id": "b93113ac-ea62-4ce3-aaa2-2ec6f6757f5e",
      "identifier": {
        "value": "1766759"
      },
      "questionnaire": {
        "reference": "urn:uuid:e44ddc46-9727-4d30-a42a-c72fb0a71a3b"
      },
      "status": "completed",
      "subject": {
        "reference": "urn:uuid:73fe09ef-fc53-4e2e-b2bf-5ce5f82bb3df"
      },
      "context": {
        "reference": "urn:uuid:6f9c41a7-4cf8-40a0-b162-efb1a0649f2c"
      },
      "authored": "2021-08-03T13:07:14+00:00",
      "item": [ {
        "linkId": "Tx220845",
        "text": "SYSTEM_FLUPANDEMIC",
        "answer": [ {
          "valueString": "*"
        } ]
      } ]
    }
  }, {
    "fullUrl": "urn:uuid:e44ddc46-9727-4d30-a42a-c72fb0a71a3b",
    "resource": {
      "resourceType": "Questionnaire",
      "id": "e44ddc46-9727-4d30-a42a-c72fb0a71a3b",
      "identifier": [ {
        "value": "1766759"
      } ],
      "version": "2021-08-03T13:07:14.000Z",
      "status": "active",
      "experimental": false,
      "date": "2021-08-03T13:07:14+00:00",
      "publisher": "User ID: '922' User name: 'AndrewJ.Walford' User skill set: 'T4'",
      "lastReviewDate": "2021-08-03",
      "contact": [ {
        "telecom": [ {
          "system": "phone",
          "value": "07798501130"
        } ]
      } ],
      "subjectType": [ "Patient" ],
      "item": [ {
        "linkId": "1766759",
        "prefix": "100",
        "text": "SYSTEM_FLUPANDEMIC",
        "type": "choice",
        "required": true,
        "repeats": false,
        "option": [ {
          "valueString": "==\"\"pandemic\"\", Selected: false"
        }, {
          "valueString": "*, Selected: true"
        } ]
      } ]
    }
  }, {
    "fullUrl": "urn:uuid:987358e2-67c6-47cb-90be-555d1acbee3b",
    "resource": {
      "resourceType": "QuestionnaireResponse",
      "id": "987358e2-67c6-47cb-90be-555d1acbee3b",
      "identifier": {
        "value": "1766759"
      },
      "questionnaire": {
        "reference": "urn:uuid:a348ee32-ef31-4668-9c7b-fb5c09392b17"
      },
      "status": "completed",
      "subject": {
        "reference": "urn:uuid:73fe09ef-fc53-4e2e-b2bf-5ce5f82bb3df"
      },
      "context": {
        "reference": "urn:uuid:6f9c41a7-4cf8-40a0-b162-efb1a0649f2c"
      },
      "authored": "2021-08-03T13:07:14+00:00",
      "item": [ {
        "linkId": "Tx223440",
        "text": "WHAT IS SAID TO BE THE MAIN REASON FOR THIS CONTACT?",
        "answer": [ {
          "valueString": "more"
        } ]
      } ]
    }
  }, {
    "fullUrl": "urn:uuid:a348ee32-ef31-4668-9c7b-fb5c09392b17",
    "resource": {
      "resourceType": "Questionnaire",
      "id": "a348ee32-ef31-4668-9c7b-fb5c09392b17",
      "identifier": [ {
        "value": "1766759"
      } ],
      "version": "2021-08-03T13:07:14.000Z",
      "status": "active",
      "experimental": false,
      "date": "2021-08-03T13:07:14+00:00",
      "publisher": "User ID: '922' User name: 'AndrewJ.Walford' User skill set: 'T4'",
      "lastReviewDate": "2021-08-03",
      "contact": [ {
        "telecom": [ {
          "system": "phone",
          "value": "07798501130"
        } ]
      } ],
      "subjectType": [ "Patient" ],
      "item": [ {
        "linkId": "1766759",
        "prefix": "5000",
        "text": "WHAT IS SAID TO BE THE MAIN REASON FOR THIS CONTACT?",
        "type": "choice",
        "required": true,
        "repeats": false,
        "option": [ {
          "valueString": "a probable allergic reaction now, Selected: false"
        }, {
          "valueString": "a probable heart attack, Selected: false"
        }, {
          "valueString": "chest or upper back pain, Selected: false"
        }, {
          "valueString": "a probable stroke or mini-stroke, Selected: false"
        }, {
          "valueString": "a probable fit or seizure within the last 12 hours, Selected: false"
        }, {
          "valueString": "a suicide attempt, Selected: false"
        }, {
          "valueString": "more, Selected: true"
        } ]
      } ]
    }
  }, {
    "fullUrl": "urn:uuid:42423c6c-8736-4548-b2aa-c14bed809236",
    "resource": {
      "resourceType": "QuestionnaireResponse",
      "id": "42423c6c-8736-4548-b2aa-c14bed809236",
      "identifier": {
        "value": "1766759"
      },
      "questionnaire": {
        "reference": "urn:uuid:641226c1-cd46-44fd-ac06-608f94ed131e"
      },
      "status": "completed",
      "subject": {
        "reference": "urn:uuid:73fe09ef-fc53-4e2e-b2bf-5ce5f82bb3df"
      },
      "context": {
        "reference": "urn:uuid:6f9c41a7-4cf8-40a0-b162-efb1a0649f2c"
      },
      "authored": "2021-08-03T13:07:14+00:00",
      "item": [ {
        "linkId": "Tx220032",
        "text": "WHAT IS SAID TO BE THE MAIN REASON FOR THIS CONTACT?",
        "answer": [ {
          "valueString": "none of the above"
        } ]
      } ]
    }
  }, {
    "fullUrl": "urn:uuid:641226c1-cd46-44fd-ac06-608f94ed131e",
    "resource": {
      "resourceType": "Questionnaire",
      "id": "641226c1-cd46-44fd-ac06-608f94ed131e",
      "identifier": [ {
        "value": "1766759"
      } ],
      "version": "2021-08-03T13:07:14.000Z",
      "status": "active",
      "experimental": false,
      "date": "2021-08-03T13:07:14+00:00",
      "publisher": "User ID: '922' User name: 'AndrewJ.Walford' User skill set: 'T4'",
      "lastReviewDate": "2021-08-03",
      "contact": [ {
        "telecom": [ {
          "system": "phone",
          "value": "07798501130"
        } ]
      } ],
      "subjectType": [ "Patient" ],
      "item": [ {
        "linkId": "1766759",
        "prefix": "1900",
        "text": "WHAT IS SAID TO BE THE MAIN REASON FOR THIS CONTACT?",
        "type": "choice",
        "required": true,
        "repeats": false,
        "option": [ {
          "valueString": "new confusion now, Selected: false"
        }, {
          "valueString": "a diabetic hypo (low blood sugar) or a diabetic hyper (high blood sugar), Selected: false"
        }, {
          "valueString": "recovery from an ICD (implanted cardioverter defibrillator) shock, Selected: false"
        }, {
          "valueString": "none of the above, Selected: true"
        } ]
      } ]
    }
  }, {
    "fullUrl": "urn:uuid:fff0e811-96a8-4c25-807b-f123b27fd887",
    "resource": {
      "resourceType": "QuestionnaireResponse",
      "id": "fff0e811-96a8-4c25-807b-f123b27fd887",
      "identifier": {
        "value": "1766759"
      },
      "questionnaire": {
        "reference": "urn:uuid:de77578e-2d30-42ea-83cb-ed36dbc24471"
      },
      "status": "completed",
      "subject": {
        "reference": "urn:uuid:73fe09ef-fc53-4e2e-b2bf-5ce5f82bb3df"
      },
      "context": {
        "reference": "urn:uuid:6f9c41a7-4cf8-40a0-b162-efb1a0649f2c"
      },
      "authored": "2021-08-03T13:07:14+00:00",
      "item": [ {
        "linkId": "Tx223142",
        "text": "Does the skin on the chest, back or abdomen feel a normal temperature?",
        "answer": [ {
          "valueString": "yes - normal, warm or hot"
        } ]
      } ]
    }
  }, {
    "fullUrl": "urn:uuid:de77578e-2d30-42ea-83cb-ed36dbc24471",
    "resource": {
      "resourceType": "Questionnaire",
      "id": "de77578e-2d30-42ea-83cb-ed36dbc24471",
      "identifier": [ {
        "value": "1766759"
      } ],
      "version": "2021-08-03T13:07:14.000Z",
      "status": "active",
      "experimental": false,
      "date": "2021-08-03T13:07:14+00:00",
      "publisher": "User ID: '922' User name: 'AndrewJ.Walford' User skill set: 'T4'",
      "lastReviewDate": "2021-08-03",
      "contact": [ {
        "telecom": [ {
          "system": "phone",
          "value": "07798501130"
        } ]
      } ],
      "subjectType": [ "Patient" ],
      "item": [ {
        "linkId": "1766759",
        "prefix": "4000",
        "text": "Does the skin on the chest, back or abdomen feel a normal temperature?",
        "type": "choice",
        "required": true,
        "repeats": false,
        "option": [ {
          "valueString": "yes - normal, warm or hot, Selected: true"
        }, {
          "valueString": "not sure, Selected: false"
        }, {
          "valueString": "no - cool OR cold, Selected: false"
        }, {
          "valueString": "not safe to touch, Selected: false"
        } ]
      } ]
    }
  }, {
    "fullUrl": "urn:uuid:409abc32-b9e0-4b96-99d5-fd17d2e98f0e",
    "resource": {
      "resourceType": "QuestionnaireResponse",
      "id": "409abc32-b9e0-4b96-99d5-fd17d2e98f0e",
      "identifier": {
        "value": "1766759"
      },
      "questionnaire": {
        "reference": "urn:uuid:abce7a6c-8748-4f9c-9c3b-fd6e971f4777"
      },
      "status": "completed",
      "subject": {
        "reference": "urn:uuid:73fe09ef-fc53-4e2e-b2bf-5ce5f82bb3df"
      },
      "context": {
        "reference": "urn:uuid:6f9c41a7-4cf8-40a0-b162-efb1a0649f2c"
      },
      "authored": "2021-08-03T13:07:14+00:00",
      "item": [ {
        "linkId": "Tx221724",
        "text": "STRING:ShockAsked",
        "answer": [ {
          "valueString": "\"\"present\"\""
        } ]
      } ]
    }
  }, {
    "fullUrl": "urn:uuid:abce7a6c-8748-4f9c-9c3b-fd6e971f4777",
    "resource": {
      "resourceType": "Questionnaire",
      "id": "abce7a6c-8748-4f9c-9c3b-fd6e971f4777",
      "identifier": [ {
        "value": "1766759"
      } ],
      "version": "2021-08-03T13:07:14.000Z",
      "status": "active",
      "experimental": false,
      "date": "2021-08-03T13:07:14+00:00",
      "publisher": "User ID: '922' User name: 'AndrewJ.Walford' User skill set: 'T4'",
      "lastReviewDate": "2021-08-03",
      "contact": [ {
        "telecom": [ {
          "system": "phone",
          "value": "07798501130"
        } ]
      } ],
      "subjectType": [ "Patient" ],
      "item": [ {
        "linkId": "1766759",
        "prefix": "3300",
        "text": "STRING:ShockAsked",
        "type": "choice",
        "required": true,
        "repeats": false,
        "option": [ {
          "valueString": "\"\"present\"\", Selected: true"
        } ]
      } ]
    }
  }, {
    "fullUrl": "urn:uuid:78003835-c4c3-493e-b205-00dcc8c3ac2a",
    "resource": {
      "resourceType": "QuestionnaireResponse",
      "id": "78003835-c4c3-493e-b205-00dcc8c3ac2a",
      "identifier": {
        "value": "1766759"
      },
      "questionnaire": {
        "reference": "urn:uuid:86089cf6-0e0b-4dbf-9b5b-7b5f310a0519"
      },
      "status": "completed",
      "subject": {
        "reference": "urn:uuid:73fe09ef-fc53-4e2e-b2bf-5ce5f82bb3df"
      },
      "context": {
        "reference": "urn:uuid:6f9c41a7-4cf8-40a0-b162-efb1a0649f2c"
      },
      "authored": "2021-08-03T13:07:14+00:00"
    }
  }, {
    "fullUrl": "urn:uuid:86089cf6-0e0b-4dbf-9b5b-7b5f310a0519",
    "resource": {
      "resourceType": "Questionnaire",
      "id": "86089cf6-0e0b-4dbf-9b5b-7b5f310a0519",
      "identifier": [ {
        "value": "1766759"
      } ],
      "version": "2021-08-03T13:07:14.000Z",
      "status": "active",
      "experimental": false,
      "date": "2021-08-03T13:07:14+00:00",
      "publisher": "User ID: '922' User name: 'AndrewJ.Walford' User skill set: 'T4'",
      "lastReviewDate": "2021-08-03",
      "contact": [ {
        "telecom": [ {
          "system": "phone",
          "value": "07798501130"
        } ]
      } ],
      "subjectType": [ "Patient" ]
    }
  }, {
    "fullUrl": "urn:uuid:7218258c-e60b-48bb-8db1-cc7ad3e3e1a4",
    "resource": {
      "resourceType": "QuestionnaireResponse",
      "id": "7218258c-e60b-48bb-8db1-cc7ad3e3e1a4",
      "identifier": {
        "value": "1766759"
      },
      "questionnaire": {
        "reference": "urn:uuid:d24b29e1-4762-4936-984b-16261d8a98bc"
      },
      "status": "completed",
      "subject": {
        "reference": "urn:uuid:73fe09ef-fc53-4e2e-b2bf-5ce5f82bb3df"
      },
      "context": {
        "reference": "urn:uuid:6f9c41a7-4cf8-40a0-b162-efb1a0649f2c"
      },
      "authored": "2021-08-03T13:07:14+00:00",
      "item": [ {
        "linkId": "Tx222984",
        "text": "WHAT IS THE MAIN PROBLEM?",
        "answer": [ {
          "valueString": "more"
        } ]
      } ]
    }
  }, {
    "fullUrl": "urn:uuid:d24b29e1-4762-4936-984b-16261d8a98bc",
    "resource": {
      "resourceType": "Questionnaire",
      "id": "d24b29e1-4762-4936-984b-16261d8a98bc",
      "identifier": [ {
        "value": "1766759"
      } ],
      "version": "2021-08-03T13:07:14.000Z",
      "status": "active",
      "experimental": false,
      "date": "2021-08-03T13:07:14+00:00",
      "publisher": "User ID: '922' User name: 'AndrewJ.Walford' User skill set: 'T4'",
      "lastReviewDate": "2021-08-03",
      "contact": [ {
        "telecom": [ {
          "system": "phone",
          "value": "07798501130"
        } ]
      } ],
      "subjectType": [ "Patient" ],
      "item": [ {
        "linkId": "1766759",
        "prefix": "0",
        "text": "WHAT IS THE MAIN PROBLEM?",
        "type": "choice",
        "required": true,
        "repeats": false,
        "option": [ {
          "valueString": "a rash, Selected: false"
        }, {
          "valueString": "itch, Selected: false"
        }, {
          "valueString": "yellow skin, Selected: false"
        }, {
          "valueString": "skin lumps, Selected: false"
        }, {
          "valueString": "easy or unexplained bruising, Selected: false"
        }, {
          "valueString": "more, Selected: true"
        } ]
      } ]
    }
  }, {
    "fullUrl": "urn:uuid:ca504bc5-076c-4c21-a43c-9fe0188c7963",
    "resource": {
      "resourceType": "QuestionnaireResponse",
      "id": "ca504bc5-076c-4c21-a43c-9fe0188c7963",
      "identifier": {
        "value": "1766759"
      },
      "questionnaire": {
        "reference": "urn:uuid:b934af91-f369-4e71-b1ee-a1e8a614dfed"
      },
      "status": "completed",
      "subject": {
        "reference": "urn:uuid:73fe09ef-fc53-4e2e-b2bf-5ce5f82bb3df"
      },
      "context": {
        "reference": "urn:uuid:6f9c41a7-4cf8-40a0-b162-efb1a0649f2c"
      },
      "authored": "2021-08-03T13:07:14+00:00",
      "item": [ {
        "linkId": "Tx222985",
        "text": "WHAT IS THE MAIN PROBLEM?",
        "answer": [ {
          "valueString": "declared head lice"
        } ]
      } ]
    }
  }, {
    "fullUrl": "urn:uuid:b934af91-f369-4e71-b1ee-a1e8a614dfed",
    "resource": {
      "resourceType": "Questionnaire",
      "id": "b934af91-f369-4e71-b1ee-a1e8a614dfed",
      "identifier": [ {
        "value": "1766759"
      } ],
      "version": "2021-08-03T13:07:14.000Z",
      "status": "active",
      "experimental": false,
      "date": "2021-08-03T13:07:14+00:00",
      "publisher": "User ID: '922' User name: 'AndrewJ.Walford' User skill set: 'T4'",
      "lastReviewDate": "2021-08-03",
      "contact": [ {
        "telecom": [ {
          "system": "phone",
          "value": "07798501130"
        } ]
      } ],
      "subjectType": [ "Patient" ],
      "item": [ {
        "linkId": "1766759",
        "prefix": "700",
        "text": "WHAT IS THE MAIN PROBLEM?",
        "type": "choice",
        "required": true,
        "repeats": false,
        "option": [ {
          "valueString": "declared head lice, Selected: true"
        }, {
          "valueString": "declared pubic lice, Selected: false"
        }, {
          "valueString": "declared scabies, Selected: false"
        }, {
          "valueString": "declared athlete's foot, Selected: false"
        }, {
          "valueString": "acne, spots or pimples, Selected: false"
        }, {
          "valueString": "more, Selected: false"
        } ]
      } ]
    }
  }, {
    "fullUrl": "urn:uuid:748d76c6-cdfc-4b86-9753-084c7b5783eb",
    "resource": {
      "resourceType": "QuestionnaireResponse",
      "id": "748d76c6-cdfc-4b86-9753-084c7b5783eb",
      "identifier": {
        "value": "1766759"
      },
      "questionnaire": {
        "reference": "urn:uuid:060995ae-12bf-46e6-aee6-b0afef0051c2"
      },
      "status": "completed",
      "subject": {
        "reference": "urn:uuid:73fe09ef-fc53-4e2e-b2bf-5ce5f82bb3df"
      },
      "context": {
        "reference": "urn:uuid:6f9c41a7-4cf8-40a0-b162-efb1a0649f2c"
      },
      "authored": "2021-08-03T13:07:14+00:00",
      "item": [ {
        "linkId": "Tx220667",
        "text": "Have you been in contact with somebody with head lice or nits?",
        "answer": [ {
          "valueString": "yes"
        } ]
      } ]
    }
  }, {
    "fullUrl": "urn:uuid:060995ae-12bf-46e6-aee6-b0afef0051c2",
    "resource": {
      "resourceType": "Questionnaire",
      "id": "060995ae-12bf-46e6-aee6-b0afef0051c2",
      "identifier": [ {
        "value": "1766759"
      } ],
      "version": "2021-08-03T13:07:14.000Z",
      "status": "active",
      "experimental": false,
      "date": "2021-08-03T13:07:14+00:00",
      "publisher": "User ID: '922' User name: 'AndrewJ.Walford' User skill set: 'T4'",
      "lastReviewDate": "2021-08-03",
      "contact": [ {
        "telecom": [ {
          "system": "phone",
          "value": "07798501130"
        } ]
      } ],
      "subjectType": [ "Patient" ],
      "item": [ {
        "linkId": "1766759",
        "prefix": "0",
        "text": "Have you been in contact with somebody with head lice or nits?",
        "type": "choice",
        "required": true,
        "repeats": false,
        "option": [ {
          "valueString": "yes, Selected: true"
        }, {
          "valueString": "not sure, Selected: false"
        }, {
          "valueString": "no, Selected: false"
        } ]
      } ]
    }
  }, {
    "fullUrl": "urn:uuid:1ae606f0-abfd-436f-ae20-68fa968e286d",
    "resource": {
      "resourceType": "QuestionnaireResponse",
      "id": "1ae606f0-abfd-436f-ae20-68fa968e286d",
      "identifier": {
        "value": "1766759"
      },
      "questionnaire": {
        "reference": "urn:uuid:61b022d2-11cf-400c-b130-b1fe98ef7295"
      },
      "status": "completed",
      "subject": {
        "reference": "urn:uuid:73fe09ef-fc53-4e2e-b2bf-5ce5f82bb3df"
      },
      "context": {
        "reference": "urn:uuid:6f9c41a7-4cf8-40a0-b162-efb1a0649f2c"
      },
      "authored": "2021-08-03T13:07:14+00:00",
      "item": [ {
        "linkId": "Tx220664",
        "text": "Have you lost patches or clumps of hair OVER THE LAST FEW WEEKS?",
        "answer": [ {
          "valueString": "yes"
        } ]
      } ]
    }
  }, {
    "fullUrl": "urn:uuid:61b022d2-11cf-400c-b130-b1fe98ef7295",
    "resource": {
      "resourceType": "Questionnaire",
      "id": "61b022d2-11cf-400c-b130-b1fe98ef7295",
      "identifier": [ {
        "value": "1766759"
      } ],
      "version": "2021-08-03T13:07:14.000Z",
      "status": "active",
      "experimental": false,
      "date": "2021-08-03T13:07:14+00:00",
      "publisher": "User ID: '922' User name: 'AndrewJ.Walford' User skill set: 'T4'",
      "lastReviewDate": "2021-08-03",
      "contact": [ {
        "telecom": [ {
          "system": "phone",
          "value": "07798501130"
        } ]
      } ],
      "subjectType": [ "Patient" ],
      "item": [ {
        "linkId": "1766759",
        "prefix": "300",
        "text": "Have you lost patches or clumps of hair OVER THE LAST FEW WEEKS?",
        "type": "choice",
        "required": true,
        "repeats": false,
        "option": [ {
          "valueString": "yes, Selected: true"
        }, {
          "valueString": "not sure, Selected: false"
        }, {
          "valueString": "no, Selected: false"
        } ]
      } ]
    }
  }, {
    "fullUrl": "urn:uuid:3bf43378-46ff-41e9-b77e-9ecddc4118a5",
    "resource": {
      "resourceType": "QuestionnaireResponse",
      "id": "3bf43378-46ff-41e9-b77e-9ecddc4118a5",
      "identifier": {
        "value": "1766759"
      },
      "questionnaire": {
        "reference": "urn:uuid:444e7646-3d57-490a-bed4-5c4a05d803be"
      },
      "status": "completed",
      "subject": {
        "reference": "urn:uuid:73fe09ef-fc53-4e2e-b2bf-5ce5f82bb3df"
      },
      "context": {
        "reference": "urn:uuid:6f9c41a7-4cf8-40a0-b162-efb1a0649f2c"
      },
      "authored": "2021-08-03T13:07:14+00:00",
      "item": [ {
        "linkId": "Tx221449",
        "text": "STRING:SDPCFullPrimaryCareassessmentandprescribingcapability",
        "answer": [ {
          "valueString": "\"\"PC full Primary Care assessment and prescribing capability\"\""
        } ]
      } ]
    }
  }, {
    "fullUrl": "urn:uuid:444e7646-3d57-490a-bed4-5c4a05d803be",
    "resource": {
      "resourceType": "Questionnaire",
      "id": "444e7646-3d57-490a-bed4-5c4a05d803be",
      "identifier": [ {
        "value": "1766759"
      } ],
      "version": "2021-08-03T13:07:14.000Z",
      "status": "active",
      "experimental": false,
      "date": "2021-08-03T13:07:14+00:00",
      "publisher": "User ID: '922' User name: 'AndrewJ.Walford' User skill set: 'T4'",
      "lastReviewDate": "2021-08-03",
      "contact": [ {
        "telecom": [ {
          "system": "phone",
          "value": "07798501130"
        } ]
      } ],
      "subjectType": [ "Patient" ],
      "item": [ {
        "linkId": "1766759",
        "prefix": "500",
        "text": "STRING:SDPCFullPrimaryCareassessmentandprescribingcapability",
        "type": "choice",
        "required": true,
        "repeats": false,
        "option": [ {
          "valueString": "\"\"PC full Primary Care assessment and prescribing capability\"\", Selected: true"
        } ]
      } ]
    }
  }, {
    "fullUrl": "urn:uuid:5f464c65-1548-4a44-80e9-4cb1b5b906f0",
    "resource": {
      "resourceType": "QuestionnaireResponse",
      "id": "5f464c65-1548-4a44-80e9-4cb1b5b906f0",
      "identifier": {
        "value": "1766759"
      },
      "questionnaire": {
        "reference": "urn:uuid:021cc368-990d-489b-b178-5ea837beafc7"
      },
      "status": "completed",
      "subject": {
        "reference": "urn:uuid:73fe09ef-fc53-4e2e-b2bf-5ce5f82bb3df"
      },
      "context": {
        "reference": "urn:uuid:6f9c41a7-4cf8-40a0-b162-efb1a0649f2c"
      },
      "authored": "2021-08-03T13:07:14+00:00"
    }
  }, {
    "fullUrl": "urn:uuid:021cc368-990d-489b-b178-5ea837beafc7",
    "resource": {
      "resourceType": "Questionnaire",
      "id": "021cc368-990d-489b-b178-5ea837beafc7",
      "identifier": [ {
        "value": "1766759"
      } ],
      "version": "2021-08-03T13:07:14.000Z",
      "status": "active",
      "experimental": false,
      "date": "2021-08-03T13:07:14+00:00",
      "publisher": "User ID: '922' User name: 'AndrewJ.Walford' User skill set: 'T4'",
      "lastReviewDate": "2021-08-03",
      "contact": [ {
        "telecom": [ {
          "system": "phone",
          "value": "07798501130"
        } ]
      } ],
      "subjectType": [ "Patient" ]
    }
  }, {
    "fullUrl": "urn:uuid:50685cb7-45ac-4960-9c56-723d61137ca2",
    "resource": {
      "resourceType": "QuestionnaireResponse",
      "id": "50685cb7-45ac-4960-9c56-723d61137ca2",
      "identifier": {
        "value": "1766759"
      },
      "questionnaire": {
        "reference": "urn:uuid:53b2b1f7-0660-4dda-a0ae-c21240adcda8"
      },
      "status": "completed",
      "subject": {
        "reference": "urn:uuid:73fe09ef-fc53-4e2e-b2bf-5ce5f82bb3df"
      },
      "context": {
        "reference": "urn:uuid:6f9c41a7-4cf8-40a0-b162-efb1a0649f2c"
      },
      "authored": "2021-08-03T13:07:14+00:00",
      "item": [ {
        "linkId": "N/A"
      } ]
    }
  }, {
    "fullUrl": "urn:uuid:53b2b1f7-0660-4dda-a0ae-c21240adcda8",
    "resource": {
      "resourceType": "Questionnaire",
      "id": "53b2b1f7-0660-4dda-a0ae-c21240adcda8",
      "identifier": [ {
        "value": "1766759"
      } ],
      "version": "2021-08-03T13:07:14.000Z",
      "status": "active",
      "experimental": false,
      "date": "2021-08-03T13:07:14+00:00",
      "publisher": "User ID: '922' User name: 'AndrewJ.Walford' User skill set: 'T4'",
      "lastReviewDate": "2021-08-03",
      "contact": [ {
        "telecom": [ {
          "system": "phone",
          "value": "07798501130"
        } ]
      } ],
      "subjectType": [ "Patient" ],
      "item": [ {
        "linkId": "1766759",
        "type": "choice",
        "required": true,
        "repeats": false,
        "option": [ {
          "valueString": ", Selected: false"
        } ]
      } ]
    }
  }, {
    "fullUrl": "urn:uuid:db5e9f3e-292d-4a16-956a-d200d3577d39",
    "resource": {
      "resourceType": "QuestionnaireResponse",
      "id": "db5e9f3e-292d-4a16-956a-d200d3577d39",
      "identifier": {
        "value": "1766759"
      },
      "questionnaire": {
        "reference": "urn:uuid:d5fcea63-9902-401b-b46a-b6ecc60c07b8"
      },
      "status": "completed",
      "subject": {
        "reference": "urn:uuid:73fe09ef-fc53-4e2e-b2bf-5ce5f82bb3df"
      },
      "context": {
        "reference": "urn:uuid:6f9c41a7-4cf8-40a0-b162-efb1a0649f2c"
      },
      "authored": "2021-08-03T13:07:14+00:00"
    }
  }, {
    "fullUrl": "urn:uuid:d5fcea63-9902-401b-b46a-b6ecc60c07b8",
    "resource": {
      "resourceType": "Questionnaire",
      "id": "d5fcea63-9902-401b-b46a-b6ecc60c07b8",
      "identifier": [ {
        "value": "1766759"
      } ],
      "version": "2021-08-03T13:07:14.000Z",
      "status": "active",
      "experimental": false,
      "date": "2021-08-03T13:07:14+00:00",
      "publisher": "User ID: '922' User name: 'AndrewJ.Walford' User skill set: 'T4'",
      "lastReviewDate": "2021-08-03",
      "contact": [ {
        "telecom": [ {
          "system": "phone",
          "value": "07798501130"
        } ]
      } ],
      "subjectType": [ "Patient" ]
    }
  }, {
    "fullUrl": "urn:uuid:f63faba2-4e3c-4b79-b787-c40ac3e456da",
    "resource": {
      "resourceType": "Observation",
      "id": "f63faba2-4e3c-4b79-b787-c40ac3e456da",
      "status": "final",
      "code": {
        "coding": [ {
          "system": "http://snomed.info/sct",
          "code": "33962009",
          "display": "Presenting complaint"
        } ]
      },
      "subject": {
        "reference": "urn:uuid:73fe09ef-fc53-4e2e-b2bf-5ce5f82bb3df"
      },
      "context": {
        "reference": "urn:uuid:6f9c41a7-4cf8-40a0-b162-efb1a0649f2c"
      }
    }
  }, {
    "fullUrl": "urn:uuid:6bc7bf6f-fe51-4e0a-a0f6-a13a9a1ab8d7",
    "resource": {
      "resourceType": "PractitionerRole",
      "id": "6bc7bf6f-fe51-4e0a-a0f6-a13a9a1ab8d7",
      "practitioner": {
        "reference": "urn:uuid:69cf17d2-9358-42ae-a53a-f81067c90d75"
      },
      "organization": {
        "reference": "urn:uuid:c5cce197-8f0f-4a10-9b36-ced288cbab4f"
      },
      "code": [ {
        "coding": [ {
          "system": "2.16.840.1.113883.2.1.3.2.4.17.339",
          "code": "NP",
          "display": "Nurse Practitioner"
        } ]
      } ]
    }
  }, {
    "fullUrl": "urn:uuid:c5cce197-8f0f-4a10-9b36-ced288cbab4f",
    "resource": {
      "resourceType": "Organization",
      "id": "c5cce197-8f0f-4a10-9b36-ced288cbab4f",
      "identifier": [ {
        "value": "RX7"
      } ],
      "name": "NWAS 111"
    }
  }, {
    "fullUrl": "urn:uuid:d3ab96bb-0ed6-4c6f-aa71-6851574fff6f",
    "resource": {
      "resourceType": "RelatedPerson",
      "id": "d3ab96bb-0ed6-4c6f-aa71-6851574fff6f",
      "patient": {
        "reference": "urn:uuid:73fe09ef-fc53-4e2e-b2bf-5ce5f82bb3df"
      },
      "relationship": {
        "coding": [ {
          "system": "http://hl7.org/fhir/v2/0131",
          "code": "C",
          "display": "Emergency Contact"
        } ]
      },
      "telecom": [ {
        "system": "phone",
        "value": "tel:07798501130"
      } ]
    }
  }, {
    "fullUrl": "urn:uuid:cce6b682-0053-420f-8f3e-084cee4c309d",
    "resource": {
      "resourceType": "Device",
      "id": "cce6b682-0053-420f-8f3e-084cee4c309d",
      "model": "111 Adaptor",
      "version": "1.0.1"
    }
  }, {
    "fullUrl": "urn:uuid:cdb740b0-d62f-4ce2-a3a4-c87d9eec9241",
    "resource": {
      "resourceType": "List",
      "id": "cdb740b0-d62f-4ce2-a3a4-c87d9eec9241",
      "status": "current",
      "mode": "working",
      "title": "111 Report List",
      "code": {
        "coding": [ {
          "system": "http://snomed.info/sct",
          "code": "225390008",
          "display": "Triage"
        } ]
      },
      "subject": {
        "reference": "urn:uuid:73fe09ef-fc53-4e2e-b2bf-5ce5f82bb3df"
      },
      "encounter": {
        "reference": "urn:uuid:6f9c41a7-4cf8-40a0-b162-efb1a0649f2c"
      },
      "date": "2021-08-03T13:07:14+00:00",
      "source": {
        "reference": "urn:uuid:cce6b682-0053-420f-8f3e-084cee4c309d"
      },
      "orderedBy": {
        "coding": [ {
          "system": "http://hl7.org/fhir/list-order",
          "code": "event-date",
          "display": "Sorted by Event Date"
        } ]
      },
      "entry": [ {
        "item": {
          "reference": "urn:uuid:d38af34a-a012-4033-83f3-7666e47b227a"
        }
      }, {
        "item": {
          "reference": "urn:uuid:69cf17d2-9358-42ae-a53a-f81067c90d75"
        }
      }, {
        "item": {
          "reference": "urn:uuid:c5cce197-8f0f-4a10-9b36-ced288cbab4f"
        }
      }, {
        "item": {
          "reference": "urn:uuid:1a1b0734-32cc-43ca-8c21-a5f7e975058f"
        }
      }, {
        "item": {
          "reference": "urn:uuid:d3ab96bb-0ed6-4c6f-aa71-6851574fff6f"
        }
      }, {
        "item": {
          "reference": "urn:uuid:121e5aad-a3c1-4227-aa68-8d397f693a90"
        }
      }, {
        "item": {
          "reference": "urn:uuid:64597bb3-9852-4fbb-9b42-a653e7283f4c"
        }
      }, {
        "item": {
          "reference": "urn:uuid:f63faba2-4e3c-4b79-b787-c40ac3e456da"
        }
      }, {
        "item": {
          "reference": "urn:uuid:c1db47f7-79e2-468b-81e7-d97c33a48693"
        }
      }, {
        "item": {
          "reference": "urn:uuid:6230dd66-2aa2-4ff2-8d9b-9f48155736f4"
        }
      }, {
        "item": {
          "reference": "urn:uuid:4d477cc3-09d3-4fe5-9bf0-db2a9c37c4a3"
        }
      }, {
        "item": {
          "reference": "urn:uuid:d24b29e1-4762-4936-984b-16261d8a98bc"
        }
      }, {
        "item": {
          "reference": "urn:uuid:060995ae-12bf-46e6-aee6-b0afef0051c2"
        }
      }, {
        "item": {
          "reference": "urn:uuid:b93113ac-ea62-4ce3-aaa2-2ec6f6757f5e"
        }
      }, {
        "item": {
          "reference": "urn:uuid:e44ddc46-9727-4d30-a42a-c72fb0a71a3b"
        }
      }, {
        "item": {
          "reference": "urn:uuid:409abc32-b9e0-4b96-99d5-fd17d2e98f0e"
        }
      }, {
        "item": {
          "reference": "urn:uuid:42423c6c-8736-4548-b2aa-c14bed809236"
        }
      }, {
        "item": {
          "reference": "urn:uuid:5f464c65-1548-4a44-80e9-4cb1b5b906f0"
        }
      }, {
        "item": {
          "reference": "urn:uuid:78003835-c4c3-493e-b205-00dcc8c3ac2a"
        }
      }, {
        "item": {
          "reference": "urn:uuid:716d69c1-9b99-4036-906b-aa0b49f7d27b"
        }
      }, {
        "item": {
          "reference": "urn:uuid:ede67392-5f89-49e7-a088-95ff1d72656c"
        }
      }, {
        "item": {
          "reference": "urn:uuid:021cc368-990d-489b-b178-5ea837beafc7"
        }
      }, {
        "item": {
          "reference": "urn:uuid:e0b67681-3d76-467a-97a8-5550e28cc05c"
        }
      }, {
        "item": {
          "reference": "urn:uuid:09ddad4c-3334-476b-b7aa-0df9d460f924"
        }
      }, {
        "item": {
          "reference": "urn:uuid:de1bf39d-a667-4024-801d-0e698719f132"
        }
      }, {
        "item": {
          "reference": "urn:uuid:cd3f468b-0158-4c52-bf3a-a4cb3eab094b"
        }
      }, {
        "item": {
          "reference": "urn:uuid:748d76c6-cdfc-4b86-9753-084c7b5783eb"
        }
      }, {
        "item": {
          "reference": "urn:uuid:1ae606f0-abfd-436f-ae20-68fa968e286d"
        }
      }, {
        "item": {
          "reference": "urn:uuid:ef063ef0-228d-439e-ada1-0789daacffe3"
        }
      }, {
        "item": {
          "reference": "urn:uuid:99cf9155-fc58-4f2d-9f58-00609538c970"
        }
      }, {
        "item": {
          "reference": "urn:uuid:3b1ba0b9-1b52-464d-b525-2c3a3190e36c"
        }
      }, {
        "item": {
          "reference": "urn:uuid:fff0e811-96a8-4c25-807b-f123b27fd887"
        }
      }, {
        "item": {
          "reference": "urn:uuid:444e7646-3d57-490a-bed4-5c4a05d803be"
        }
      }, {
        "item": {
          "reference": "urn:uuid:db5e9f3e-292d-4a16-956a-d200d3577d39"
        }
      }, {
        "item": {
          "reference": "urn:uuid:ca504bc5-076c-4c21-a43c-9fe0188c7963"
        }
      }, {
        "item": {
          "reference": "urn:uuid:53b2b1f7-0660-4dda-a0ae-c21240adcda8"
        }
      }, {
        "item": {
          "reference": "urn:uuid:50685cb7-45ac-4960-9c56-723d61137ca2"
        }
      }, {
        "item": {
          "reference": "urn:uuid:b1acd590-0fb5-443c-9145-cc6110ea02f6"
        }
      }, {
        "item": {
          "reference": "urn:uuid:987358e2-67c6-47cb-90be-555d1acbee3b"
        }
      }, {
        "item": {
          "reference": "urn:uuid:61b022d2-11cf-400c-b130-b1fe98ef7295"
        }
      }, {
        "item": {
          "reference": "urn:uuid:b934af91-f369-4e71-b1ee-a1e8a614dfed"
        }
      }, {
        "item": {
          "reference": "urn:uuid:8e5991eb-6822-46b7-9584-d35f1c8454dc"
        }
      }, {
        "item": {
          "reference": "urn:uuid:abce7a6c-8748-4f9c-9c3b-fd6e971f4777"
        }
      }, {
        "item": {
          "reference": "urn:uuid:d5fcea63-9902-401b-b46a-b6ecc60c07b8"
        }
      }, {
        "item": {
          "reference": "urn:uuid:86089cf6-0e0b-4dbf-9b5b-7b5f310a0519"
        }
      }, {
        "item": {
          "reference": "urn:uuid:641226c1-cd46-44fd-ac06-608f94ed131e"
        }
      }, {
        "item": {
          "reference": "urn:uuid:a348ee32-ef31-4668-9c7b-fb5c09392b17"
        }
      }, {
        "item": {
          "reference": "urn:uuid:4b2cae3d-9923-45a5-b9d3-d9caf9286883"
        }
      }, {
        "item": {
          "reference": "urn:uuid:ef830d75-22f9-48e3-ae67-4a54e0d17645"
        }
      }, {
        "item": {
          "reference": "urn:uuid:7218258c-e60b-48bb-8db1-cc7ad3e3e1a4"
        }
      }, {
        "item": {
          "reference": "urn:uuid:de77578e-2d30-42ea-83cb-ed36dbc24471"
        }
      }, {
        "item": {
          "reference": "urn:uuid:3bf43378-46ff-41e9-b77e-9ecddc4118a5"
        }
      }, {
        "item": {
          "reference": "urn:uuid:29bdfc7b-02f3-4c71-886d-2aa5633cf312"
        }
      } ]
    }
  } ]
}