{
  "resourceType": "Bundle",
  "identifier": {
    "type": {
      "text": "ClinicalDocument VersionNumber"
    },
    "value": "1"
  },
  "type": "message",
  "entry": [ {
    "fullUrl": "urn:uuid:05040617-33BA-4344-AA59-281CF2FE63CA",
    "resource": {
      "resourceType": "MessageHeader",
      "id": "05040617-33BA-4344-AA59-281CF2FE63CA",
      "event": {
        "system": "https://fhir.nhs.uk/STU3/CodeSystem/EventType-1",
        "code": "referral-1",
        "display": "Referral"
      },
      "destination": [ {
        "endpoint": "urn:nhs-uk:addressing:ods:FHR04RPX:DOSServiceID:2000038667"
      } ],
      "timestamp": "2021-04-06T15:19:34.000+00:00",
      "source": {
        "name": "NHS 111 Adaptor",
        "endpoint": "http://localhost:8080/report"
      },
      "reason": {
        "coding": [ {
          "system": "urn:nhs-itk:ns:201005:interaction",
          "code": "urn:nhs-itk:interaction:primaryOutofHourRecipientNHS111CDADocument-v2-0"
        } ]
      }
    },
    "response": {
      "status": "success",
      "lastModified": "2022-05-05T12:27:58.742+00:00"
    }
  }, {
    "fullUrl": "urn:uuid:397fc31d-cd28-4b36-bc58-1152898d7543",
    "resource": {
      "resourceType": "Encounter",
      "id": "397fc31d-cd28-4b36-bc58-1152898d7543",
      "identifier": [ {
        "system": "2.16.840.1.113883.2.1.3.2.4.18.34",
        "value": "AdastraCaseGUID34"
      }, {
        "system": "2.16.840.1.113883.2.1.3.2.4.18.35",
        "value": "AdastraCaseID35"
      }, {
        "system": "2.16.840.1.113883.2.1.3.2.4.18.49",
        "value": "AdastraCaseGUID49"
      } ],
      "status": "finished",
      "type": [ {
        "text": "111 Encounter Referral"
      } ],
      "subject": {
        "reference": "urn:uuid:da24f7bc-7eb6-412c-a5d7-82b9202f95e6"
      },
      "participant": [ {
        "type": [ {
          "coding": [ {
            "system": "http://hl7.org/fhir/ValueSet/encounter-participant-type",
            "code": "PPRF",
            "display": "Author"
          } ]
        } ],
        "individual": {
          "reference": "urn:uuid:c7d7bfbb-a31a-41a3-867b-c4760366f819"
        }
      }, {
        "type": [ {
          "text": "Informant"
        } ],
        "individual": {
          "reference": "urn:uuid:77768da4-7c86-4564-a086-a8da2858c2b3"
        }
      }, {
        "type": [ {
          "coding": [ {
            "system": "http://hl7.org/fhir/ValueSet/encounter-participant-type",
            "code": "ATND",
            "display": "Responsible Party"
          } ]
        } ],
        "individual": {
          "reference": "urn:uuid:0ec81b60-44e0-4061-8e92-4b4e9b8210b0"
        }
      } ],
      "period": {
        "start": "2021-04-06T15:13:33+00:00",
        "end": "2021-04-06T15:19:29+00:00"
      },
      "location": [ {
        "location": {
          "reference": "urn:uuid:f3fe0c84-27d7-4dcd-a05f-4bdedde062af"
        },
        "status": "completed"
      } ],
      "serviceProvider": {
        "reference": "urn:uuid:91487ffe-9ad7-40eb-a0f7-74d7474350d5"
      }
    }
  }, {
    "fullUrl": "urn:uuid:91487ffe-9ad7-40eb-a0f7-74d7474350d5",
    "resource": {
      "resourceType": "Organization",
      "id": "91487ffe-9ad7-40eb-a0f7-74d7474350d5",
      "active": true,
      "type": [ {
        "text": "CST"
      } ],
      "name": "CustodianName"
    }
  }, {
    "fullUrl": "urn:uuid:c7d7bfbb-a31a-41a3-867b-c4760366f819",
    "resource": {
      "resourceType": "Practitioner",
      "id": "c7d7bfbb-a31a-41a3-867b-c4760366f819",
      "active": true,
      "name": [ {
        "use": "official",
        "family": "AuthorAssignedPerson FamilyName",
        "given": [ "AuthorAssignedPerson GivenName" ]
      } ]
    }
  }, {
    "fullUrl": "urn:uuid:77768da4-7c86-4564-a086-a8da2858c2b3",
    "resource": {
      "resourceType": "RelatedPerson",
      "id": "77768da4-7c86-4564-a086-a8da2858c2b3",
      "active": true,
      "patient": {
        "reference": "urn:uuid:da24f7bc-7eb6-412c-a5d7-82b9202f95e6"
      },
      "relationship": {
        "coding": [ {
          "system": "2.16.840.1.113883.2.1.3.2.4.16.45",
          "code": "16",
          "display": "Relative"
        } ]
      },
      "name": [ {
        "text": "RelatedPerson Name"
      } ],
      "telecom": [ {
        "system": "phone",
        "value": "tel:01111111111",
        "use": "home"
      } ],
      "gender": "unknown"
    }
  }, {
    "fullUrl": "urn:uuid:0ec81b60-44e0-4061-8e92-4b4e9b8210b0",
    "resource": {
      "resourceType": "Practitioner",
      "id": "0ec81b60-44e0-4061-8e92-4b4e9b8210b0",
      "active": true,
      "name": [ {
        "use": "official",
        "family": "ResponsablePartyMD FamilyName",
        "given": [ "ResponsablePartyMD GivenName" ]
      } ]
    }
  }, {
    "fullUrl": "urn:uuid:f3fe0c84-27d7-4dcd-a05f-4bdedde062af",
    "resource": {
      "resourceType": "Location",
      "id": "f3fe0c84-27d7-4dcd-a05f-4bdedde062af",
      "name": "Incident Location",
      "address": {
        "type": "physical",
        "line": [ "HealthCareFacility AddressLine1", "HealthCareFacility AddressLine2", "HealthCareFacility AddressLine3", "HealthCareFacility AddressLine4", "HealthCareFacility AddressLine5" ],
        "postalCode": "LOH25 4NS"
      }
    }
  }, {
    "fullUrl": "urn:uuid:da24f7bc-7eb6-412c-a5d7-82b9202f95e6",
    "resource": {
      "resourceType": "Patient",
      "id": "da24f7bc-7eb6-412c-a5d7-82b9202f95e6",
      "active": true,
      "name": [ {
        "use": "official",
        "family": "Patient Family Name",
        "given": [ "Patient Given Name" ]
      } ],
      "telecom": [ {
        "system": "phone",
        "value": "tel:000000000000",
        "use": "home"
      }, {
        "system": "phone",
        "value": "tel:000000000000"
      } ],
      "gender": "other",
      "birthDate": "1990-02-02",
      "address": [ {
        "use": "home",
        "line": [ "Home Address Line 1", "Home Address Line 2", "Home Address Line 3", "Home Address Line 4", "Home Address Line 5" ],
        "postalCode": "HA25 4NS"
      }, {
        "type": "physical",
        "line": [ "Home Address Line 1", "Home Address Line 2", "Home Address Line 3", "Home Address Line 4", "Home Address Line 5" ],
        "postalCode": "PH25 4NS"
      } ]
    }
  }, {
    "fullUrl": "urn:uuid:ec974447-e47c-46a4-8072-d493469055a9",
    "resource": {
      "resourceType": "HealthcareService",
      "id": "ec974447-e47c-46a4-8072-d493469055a9",
      "active": true,
      "providedBy": {
        "reference": "urn:uuid:f1c788a9-0d42-4306-91e4-7c89deef2362"
      },
      "location": [ {
        "reference": "urn:uuid:75cbf124-a9a0-4819-a5be-8608b7e07dda"
      } ],
      "name": "InformationRecipient IntendedRecipient Name FHR0"
    }
  }, {
    "fullUrl": "urn:uuid:75cbf124-a9a0-4819-a5be-8608b7e07dda",
    "resource": {
      "resourceType": "Location",
      "id": "75cbf124-a9a0-4819-a5be-8608b7e07dda",
      "managingOrganization": {
        "reference": "urn:uuid:f1c788a9-0d42-4306-91e4-7c89deef2362"
      }
    }
  }, {
    "fullUrl": "urn:uuid:f1c788a9-0d42-4306-91e4-7c89deef2362",
    "resource": {
      "resourceType": "Organization",
      "id": "f1c788a9-0d42-4306-91e4-7c89deef2362",
      "identifier": [ {
        "value": "FHR04RPX"
      } ],
      "type": [ {
        "coding": [ {
          "code": "PRCP",
          "display": "InformationRecipient IntendedRecipient Name FHR0"
        } ]
      } ],
      "name": "InformationRecipient IntendedRecipient Name FHR0"
    }
  }, {
    "fullUrl": "urn:uuid:bd9e4e61-c9dd-440f-849b-51e9f610d539",
    "resource": {
      "resourceType": "ReferralRequest",
      "id": "bd9e4e61-c9dd-440f-849b-51e9f610d539",
      "status": "active",
      "intent": "plan",
      "priority": "routine",
      "subject": {
        "reference": "urn:uuid:da24f7bc-7eb6-412c-a5d7-82b9202f95e6"
      },
      "context": {
        "reference": "urn:uuid:397fc31d-cd28-4b36-bc58-1152898d7543"
      },
      "occurrencePeriod": {
        "start": "2021-04-06T15:19:34+00:00"
      },
      "authoredOn": "2021-04-06T15:19:29+00:00",
      "requester": {
        "agent": {
          "reference": "urn:uuid:9d0ea9eb-4f82-41d2-840e-8d65efc370f2"
        },
        "onBehalfOf": {
          "reference": "urn:uuid:91487ffe-9ad7-40eb-a0f7-74d7474350d5"
        }
      },
      "recipient": [ {
        "reference": "urn:uuid:ec974447-e47c-46a4-8072-d493469055a9"
      } ],
      "reasonReference": [ {
        "reference": "urn:uuid:6b4141bf-c101-401d-9eb6-57b97dceee94"
      } ],
      "supportingInfo": [ {
        "reference": "urn:uuid:4503648c-8831-432d-99e4-6c737cd08e5e"
      } ]
    }
  }, {
    "fullUrl": "urn:uuid:4503648c-8831-432d-99e4-6c737cd08e5e",
    "resource": {
      "resourceType": "ProcedureRequest",
      "id": "4503648c-8831-432d-99e4-6c737cd08e5e",
      "status": "active",
      "intent": "plan",
      "priority": "routine",
      "doNotPerform": false,
      "code": {
        "coding": [ {
          "system": "2.16.840.1.113883.2.1.3.2.4.17.325",
          "code": "DispoCodeDx87",
          "display": "DispoName - Repeat Prescription required within 24 hours"
        } ]
      },
      "subject": {
        "reference": "urn:uuid:da24f7bc-7eb6-412c-a5d7-82b9202f95e6"
      },
      "occurrencePeriod": {
        "start": "2021-04-06T15:19:34+00:00"
      },
      "reasonReference": [ {
        "reference": "urn:uuid:6b4141bf-c101-401d-9eb6-57b97dceee94"
      } ]
    }
  }, {
    "fullUrl": "urn:uuid:9e27340d-a38a-4993-95ff-8c6bfdc9f5e1",
    "resource": {
      "resourceType": "Composition",
      "id": "9e27340d-a38a-4993-95ff-8c6bfdc9f5e1",
      "identifier": {
        "use": "usual",
        "value": "E2DF04F7-95CA-40AD-808D-797C0A89E39C"
      },
      "status": "final",
      "type": {
        "coding": [ {
          "system": "http://snomed.info/sct",
          "code": "371531000",
          "display": "Report of clinical encounter (record artifact)"
        } ]
      },
      "subject": {
        "reference": "urn:uuid:da24f7bc-7eb6-412c-a5d7-82b9202f95e6"
      },
      "encounter": {
        "reference": "urn:uuid:397fc31d-cd28-4b36-bc58-1152898d7543"
      },
      "date": "2021-04-06T15:19:34+00:00",
      "author": [ {
        "reference": "urn:uuid:c7d7bfbb-a31a-41a3-867b-c4760366f819"
      } ],
      "title": "111 Report",
      "confidentiality": "N",
      "section": [ {
        "section": [ {
          "title": "ComponentTitle - Patient's Reported Condition",
          "text": {
            "status": "generated",
            "div": "<div xmlns=\"http://www.w3.org/1999/xhtml\">&lt;content&gt;ComponentText - Pharmacy ITK Testing&lt;/content&gt;\n                                                    &lt;br/&gt;</div>"
          }
        }, {
          "title": "ComponentTitle - Pathways Disposition",
          "text": {
            "status": "generated",
            "div": "<div xmlns=\"http://www.w3.org/1999/xhtml\">ComponentText - Repeat Prescription required within 24 hours (Dx87)                                         &lt;br/&gt;\n                                                    &lt;br/&gt;                                         Selected service: Springvale, Fraser Road, Kings Worthy, Winchester&lt;br/&gt;</div>"
          }
        }, {
          "title": "ComponentTitle - Consultation Summary",
          "text": {
            "status": "generated",
            "div": "<div xmlns=\"http://www.w3.org/1999/xhtml\">ComponentText - Prescription request&lt;br/&gt;Not enough medication until surgery opens&lt;br/&gt;No medication available&lt;br/&gt;Next dose due in over 12 hours time&lt;br/&gt;</div>"
          }
        }, {
          "title": "ComponentTitle - Pathways Assessment",
          "text": {
            "status": "generated",
            "div": "<div xmlns=\"http://www.w3.org/1999/xhtml\">ComponentText - Reason for call menu - continued to next list.&lt;br/&gt;A prescription request was the main reason for the contact.&lt;br/&gt;The main reason for the contact was not a new or worsening illness.&lt;br/&gt;The individual did not have enough medication to last until the surgery next opened.&lt;br/&gt;The medication was suitable for repeat prescribing without further consultation.&lt;br/&gt;The individual had no medication available.&lt;br/&gt;The next dose was due in over 12 hours time.&lt;br/&gt;Instructions given were: The individual needs a repeat prescription.&lt;br/&gt;Directory of Services referral: Springvale, Fraser Road, Kings Worthy, Winchester&lt;br/&gt;</div>"
          }
        }, {
          "title": "ComponentTitle - Advice Given",
          "text": {
            "status": "generated",
            "div": "<div xmlns=\"http://www.w3.org/1999/xhtml\">ComponentText - I will arrange for a clinician or pharmacist to speak to the individual.&lt;br/&gt;IF THE RECOMMENDED TIMEFRAME FALLS OUTSIDE OPENING HOURS: I will arrange for a clinician to speak to the individual.&lt;br/&gt;\n                                                    &lt;br/&gt;</div>"
          }
        }, {
          "title": "ComponentTitle - Information And Advice Given"
        }, {
          "title": "ComponentTitle - Disposition",
          "text": {
            "status": "generated",
            "div": "<div xmlns=\"http://www.w3.org/1999/xhtml\">&lt;content&gt;ComponentText - Repeat Prescription required within 24 hours&lt;br/&gt;\n                                                    &lt;/content&gt;\n                                                    &lt;br/&gt;\n                                                    &lt;br/&gt;</div>"
          }
        } ]
      }, {
        "title": "CarePlan",
        "entry": [ {
          "reference": "urn:uuid:4c777510-f0db-4036-afdd-400986eab8af"
        } ]
      }, {
        "title": "ReferralRequest",
        "entry": [ {
          "reference": "urn:uuid:bd9e4e61-c9dd-440f-849b-51e9f610d539"
        } ]
      }, {
        "title": "QuestionnaireResponse",
        "entry": [ {
          "reference": "urn:uuid:05d46e38-d7b8-4e1e-ab80-99dc1a102e1c"
        } ]
      }, {
        "title": "QuestionnaireResponse",
        "entry": [ {
          "reference": "urn:uuid:1a2547a6-9e18-4dd7-9071-ba3eb1a7f12a"
        } ]
      }, {
        "title": "QuestionnaireResponse",
        "entry": [ {
          "reference": "urn:uuid:804fa176-ef14-416e-b635-f8ffbcd592f1"
        } ]
      }, {
        "title": "QuestionnaireResponse",
        "entry": [ {
          "reference": "urn:uuid:b56b27e5-f183-4768-a9ae-53a74961e6e2"
        } ]
      }, {
        "title": "QuestionnaireResponse",
        "entry": [ {
          "reference": "urn:uuid:ab578022-1087-4f73-9919-b82d45acbd45"
        } ]
      }, {
        "title": "QuestionnaireResponse",
        "entry": [ {
          "reference": "urn:uuid:d3117e75-6116-4220-9f79-eb95dc19f4c5"
        } ]
      }, {
        "title": "QuestionnaireResponse",
        "entry": [ {
          "reference": "urn:uuid:cc7ae160-91f7-4aa4-ba94-9b52d3be437a"
        } ]
      }, {
        "title": "QuestionnaireResponse",
        "entry": [ {
          "reference": "urn:uuid:2722ad9c-aa9d-47e4-86a9-1b7ba157a12c"
        } ]
      }, {
        "title": "QuestionnaireResponse",
        "entry": [ {
          "reference": "urn:uuid:3c7d2cee-d187-488d-bfbf-83335aee8555"
        } ]
      }, {
        "title": "QuestionnaireResponse",
        "entry": [ {
          "reference": "urn:uuid:64e9c540-f5f5-4911-a527-dc6520b8bb87"
        } ]
      }, {
        "title": "QuestionnaireResponse",
        "entry": [ {
          "reference": "urn:uuid:098a5e9b-b361-47c0-9cae-a369a46c8281"
        } ]
      }, {
        "title": "QuestionnaireResponse",
        "entry": [ {
          "reference": "urn:uuid:24168a13-d05f-44e8-9317-08b4b2311179"
        } ]
      }, {
        "title": "QuestionnaireResponse",
        "entry": [ {
          "reference": "urn:uuid:324ba7bd-7f64-4e8b-a7de-06721d817a2a"
        } ]
      }, {
        "title": "QuestionnaireResponse",
        "entry": [ {
          "reference": "urn:uuid:1e2c273a-0aae-4f16-b1d9-9a2937d12649"
        } ]
      }, {
        "title": "QuestionnaireResponse",
        "entry": [ {
          "reference": "urn:uuid:3affcb41-684b-4ebe-a7b0-fdd899440d14"
        } ]
      } ]
    }
  }, {
    "fullUrl": "urn:uuid:4c777510-f0db-4036-afdd-400986eab8af",
    "resource": {
      "resourceType": "CarePlan",
      "id": "4c777510-f0db-4036-afdd-400986eab8af",
      "status": "completed",
      "intent": "plan",
      "title": "ComponentTitle - Information And Advice Given",
      "subject": {
        "reference": "urn:uuid:da24f7bc-7eb6-412c-a5d7-82b9202f95e6"
      },
      "context": {
        "reference": "urn:uuid:397fc31d-cd28-4b36-bc58-1152898d7543"
      },
      "period": {
        "start": "2021-04-06T15:13:33+00:00",
        "end": "2021-04-06T15:19:29+00:00"
      },
      "addresses": [ {
        "reference": "urn:uuid:6b4141bf-c101-401d-9eb6-57b97dceee94"
      } ]
    }
  }, {
    "fullUrl": "urn:uuid:2d3b86cb-bae6-4d75-a125-4b4b05ebdd81",
    "resource": {
      "resourceType": "Consent",
      "id": "2d3b86cb-bae6-4d75-a125-4b4b05ebdd81",
      "identifier": {
        "use": "usual",
        "value": "E2DF04F7-95CA-40AD-808D-797C0A89E39C"
      },
      "status": "active",
      "patient": {
        "reference": "urn:uuid:da24f7bc-7eb6-412c-a5d7-82b9202f95e6"
      },
      "period": {
        "start": "2021-04-06T15:13:33+00:00",
        "end": "2021-04-06T15:19:29+00:00"
      },
      "consentingParty": [ {
        "reference": "urn:uuid:da24f7bc-7eb6-412c-a5d7-82b9202f95e6"
      } ],
      "action": [ {
        "coding": [ {
          "system": "http://snomed.info/sct",
          "code": "425691002",
          "display": "Consent given for electronic record sharing"
        } ],
        "text": "Consent given for electronic record sharing"
      } ],
      "organization": [ {
        "reference": "urn:uuid:91487ffe-9ad7-40eb-a0f7-74d7474350d5"
      } ],
      "policyRule": "http://hl7.org/fhir/ConsentPolicy/opt-out",
      "data": [ {
        "meaning": "related",
        "reference": {
          "reference": "urn:uuid:397fc31d-cd28-4b36-bc58-1152898d7543"
        }
      } ]
    }
  }, {
    "fullUrl": "urn:uuid:6b4141bf-c101-401d-9eb6-57b97dceee94",
    "resource": {
      "resourceType": "Condition",
      "id": "6b4141bf-c101-401d-9eb6-57b97dceee94",
      "clinicalStatus": "active",
      "verificationStatus": "unknown",
      "subject": {
        "reference": "urn:uuid:da24f7bc-7eb6-412c-a5d7-82b9202f95e6"
      },
      "context": {
        "reference": "urn:uuid:397fc31d-cd28-4b36-bc58-1152898d7543"
      },
      "evidence": [ {
        "detail": [ {
          "reference": "urn:uuid:05d46e38-d7b8-4e1e-ab80-99dc1a102e1c"
        } ]
      }, {
        "detail": [ {
          "reference": "urn:uuid:1a2547a6-9e18-4dd7-9071-ba3eb1a7f12a"
        } ]
      }, {
        "detail": [ {
          "reference": "urn:uuid:804fa176-ef14-416e-b635-f8ffbcd592f1"
        } ]
      }, {
        "detail": [ {
          "reference": "urn:uuid:b56b27e5-f183-4768-a9ae-53a74961e6e2"
        } ]
      }, {
        "detail": [ {
          "reference": "urn:uuid:ab578022-1087-4f73-9919-b82d45acbd45"
        } ]
      }, {
        "detail": [ {
          "reference": "urn:uuid:d3117e75-6116-4220-9f79-eb95dc19f4c5"
        } ]
      }, {
        "detail": [ {
          "reference": "urn:uuid:cc7ae160-91f7-4aa4-ba94-9b52d3be437a"
        } ]
      }, {
        "detail": [ {
          "reference": "urn:uuid:2722ad9c-aa9d-47e4-86a9-1b7ba157a12c"
        } ]
      }, {
        "detail": [ {
          "reference": "urn:uuid:3c7d2cee-d187-488d-bfbf-83335aee8555"
        } ]
      }, {
        "detail": [ {
          "reference": "urn:uuid:64e9c540-f5f5-4911-a527-dc6520b8bb87"
        } ]
      }, {
        "detail": [ {
          "reference": "urn:uuid:098a5e9b-b361-47c0-9cae-a369a46c8281"
        } ]
      }, {
        "detail": [ {
          "reference": "urn:uuid:24168a13-d05f-44e8-9317-08b4b2311179"
        } ]
      }, {
        "detail": [ {
          "reference": "urn:uuid:324ba7bd-7f64-4e8b-a7de-06721d817a2a"
        } ]
      }, {
        "detail": [ {
          "reference": "urn:uuid:1e2c273a-0aae-4f16-b1d9-9a2937d12649"
        } ]
      }, {
        "detail": [ {
          "reference": "urn:uuid:3affcb41-684b-4ebe-a7b0-fdd899440d14"
        } ]
      } ]
    }
  }, {
    "fullUrl": "urn:uuid:05d46e38-d7b8-4e1e-ab80-99dc1a102e1c",
    "resource": {
      "resourceType": "QuestionnaireResponse",
      "id": "05d46e38-d7b8-4e1e-ab80-99dc1a102e1c",
      "identifier": {
        "value": "60319"
      },
      "questionnaire": {
        "reference": "urn:uuid:b22ddaa3-a131-477f-98f0-07bfa040b00f"
      },
      "status": "completed",
      "subject": {
        "reference": "urn:uuid:da24f7bc-7eb6-412c-a5d7-82b9202f95e6"
      },
      "context": {
        "reference": "urn:uuid:397fc31d-cd28-4b36-bc58-1152898d7543"
      },
      "authored": "2021-04-06T15:19:34+00:00",
      "item": [ {
        "linkId": "Tx220109",
        "text": "What is the reason for the contact?",
        "answer": [ {
          "valueString": "more"
        } ]
      } ]
    }
  }, {
    "fullUrl": "urn:uuid:b22ddaa3-a131-477f-98f0-07bfa040b00f",
    "resource": {
      "resourceType": "Questionnaire",
      "id": "b22ddaa3-a131-477f-98f0-07bfa040b00f",
      "identifier": [ {
        "value": "60319"
      } ],
      "version": "2021-04-06T15:19:34.083Z",
      "status": "active",
      "experimental": false,
      "date": "2021-04-06T15:19:34+00:00",
      "publisher": "User ID: 'HADFIELDR' User name: 'Ryan Hadfield' User skill set: 'T3'",
      "lastReviewDate": "2021-04-06",
      "contact": [ {
        "telecom": [ {
          "system": "phone",
          "value": "0111 111 1111"
        } ]
      } ],
      "subjectType": [ "Patient" ],
      "item": [ {
        "linkId": "60319",
        "prefix": "5",
        "text": "What is the reason for the contact?",
        "type": "choice",
        "required": true,
        "repeats": false,
        "option": [ {
          "valueString": "an injury or other health problem, Selected: false"
        }, {
          "valueString": "a need to access another healthcare service, Selected: false"
        }, {
          "valueString": "a healthcare professional requesting contact with another clinician, Selected: false"
        }, {
          "valueString": "a report of results or tests, Selected: false"
        }, {
          "valueString": "more, Selected: true"
        } ]
      } ]
    }
  }, {
    "fullUrl": "urn:uuid:1a2547a6-9e18-4dd7-9071-ba3eb1a7f12a",
    "resource": {
      "resourceType": "QuestionnaireResponse",
      "id": "1a2547a6-9e18-4dd7-9071-ba3eb1a7f12a",
      "identifier": {
        "value": "60319"
      },
      "questionnaire": {
        "reference": "urn:uuid:4d6a500e-6286-4a73-a614-85eb0abf2b7c"
      },
      "status": "completed",
      "subject": {
        "reference": "urn:uuid:da24f7bc-7eb6-412c-a5d7-82b9202f95e6"
      },
      "context": {
        "reference": "urn:uuid:397fc31d-cd28-4b36-bc58-1152898d7543"
      },
      "authored": "2021-04-06T15:19:34+00:00",
      "item": [ {
        "linkId": "Tx221793",
        "text": "STRING:to'Social&information'-further'Callreason'menu",
        "answer": [ {
          "valueString": "\"present\""
        } ]
      } ]
    }
  }, {
    "fullUrl": "urn:uuid:4d6a500e-6286-4a73-a614-85eb0abf2b7c",
    "resource": {
      "resourceType": "Questionnaire",
      "id": "4d6a500e-6286-4a73-a614-85eb0abf2b7c",
      "identifier": [ {
        "value": "60319"
      } ],
      "version": "2021-04-06T15:19:34.083Z",
      "status": "active",
      "experimental": false,
      "date": "2021-04-06T15:19:34+00:00",
      "publisher": "User ID: 'HADFIELDR' User name: 'Ryan Hadfield' User skill set: 'T3'",
      "lastReviewDate": "2021-04-06",
      "contact": [ {
        "telecom": [ {
          "system": "phone",
          "value": "0111 111 1111"
        } ]
      } ],
      "subjectType": [ "Patient" ],
      "item": [ {
        "linkId": "60319",
        "prefix": "600",
        "text": "STRING:to'Social&information'-further'Callreason'menu",
        "type": "choice",
        "required": true,
        "repeats": false,
        "option": [ {
          "valueString": "\"present\", Selected: true"
        } ]
      } ]
    }
  }, {
    "fullUrl": "urn:uuid:804fa176-ef14-416e-b635-f8ffbcd592f1",
    "resource": {
      "resourceType": "QuestionnaireResponse",
      "id": "804fa176-ef14-416e-b635-f8ffbcd592f1",
      "identifier": {
        "value": "60319"
      },
      "questionnaire": {
        "reference": "urn:uuid:9ad34154-fa89-4f92-9e50-1cf8522907c7"
      },
      "status": "completed",
      "subject": {
        "reference": "urn:uuid:da24f7bc-7eb6-412c-a5d7-82b9202f95e6"
      },
      "context": {
        "reference": "urn:uuid:397fc31d-cd28-4b36-bc58-1152898d7543"
      },
      "authored": "2021-04-06T15:19:34+00:00"
    }
  }, {
    "fullUrl": "urn:uuid:9ad34154-fa89-4f92-9e50-1cf8522907c7",
    "resource": {
      "resourceType": "Questionnaire",
      "id": "9ad34154-fa89-4f92-9e50-1cf8522907c7",
      "identifier": [ {
        "value": "60319"
      } ],
      "version": "2021-04-06T15:19:34.083Z",
      "status": "active",
      "experimental": false,
      "date": "2021-04-06T15:19:34+00:00",
      "publisher": "User ID: 'HADFIELDR' User name: 'Ryan Hadfield' User skill set: 'T3'",
      "lastReviewDate": "2021-04-06",
      "contact": [ {
        "telecom": [ {
          "system": "phone",
          "value": "0111 111 1111"
        } ]
      } ],
      "subjectType": [ "Patient" ]
    }
  }, {
    "fullUrl": "urn:uuid:b56b27e5-f183-4768-a9ae-53a74961e6e2",
    "resource": {
      "resourceType": "QuestionnaireResponse",
      "id": "b56b27e5-f183-4768-a9ae-53a74961e6e2",
      "identifier": {
        "value": "60319"
      },
      "questionnaire": {
        "reference": "urn:uuid:d2b428d4-b032-4bea-b1cf-f5ed6f2e2f2a"
      },
      "status": "completed",
      "subject": {
        "reference": "urn:uuid:da24f7bc-7eb6-412c-a5d7-82b9202f95e6"
      },
      "context": {
        "reference": "urn:uuid:397fc31d-cd28-4b36-bc58-1152898d7543"
      },
      "authored": "2021-04-06T15:19:34+00:00",
      "item": [ {
        "linkId": "Tx221804",
        "text": "STRING:transfertofurthermenuquestionestablishedinEntryFlow",
        "answer": [ {
          "valueString": "\"present\""
        } ]
      } ]
    }
  }, {
    "fullUrl": "urn:uuid:d2b428d4-b032-4bea-b1cf-f5ed6f2e2f2a",
    "resource": {
      "resourceType": "Questionnaire",
      "id": "d2b428d4-b032-4bea-b1cf-f5ed6f2e2f2a",
      "identifier": [ {
        "value": "60319"
      } ],
      "version": "2021-04-06T15:19:34.083Z",
      "status": "active",
      "experimental": false,
      "date": "2021-04-06T15:19:34+00:00",
      "publisher": "User ID: 'HADFIELDR' User name: 'Ryan Hadfield' User skill set: 'T3'",
      "lastReviewDate": "2021-04-06",
      "contact": [ {
        "telecom": [ {
          "system": "phone",
          "value": "0111 111 1111"
        } ]
      } ],
      "subjectType": [ "Patient" ],
      "item": [ {
        "linkId": "60319",
        "prefix": "41",
        "text": "STRING:transfertofurthermenuquestionestablishedinEntryFlow",
        "type": "choice",
        "required": true,
        "repeats": false,
        "option": [ {
          "valueString": "\"present\", Selected: true"
        } ]
      } ]
    }
  }, {
    "fullUrl": "urn:uuid:ab578022-1087-4f73-9919-b82d45acbd45",
    "resource": {
      "resourceType": "QuestionnaireResponse",
      "id": "ab578022-1087-4f73-9919-b82d45acbd45",
      "identifier": {
        "value": "60319"
      },
      "questionnaire": {
        "reference": "urn:uuid:4c44ce57-4a0b-410c-a88d-cfe31d4f4999"
      },
      "status": "completed",
      "subject": {
        "reference": "urn:uuid:da24f7bc-7eb6-412c-a5d7-82b9202f95e6"
      },
      "context": {
        "reference": "urn:uuid:397fc31d-cd28-4b36-bc58-1152898d7543"
      },
      "authored": "2021-04-06T15:19:34+00:00",
      "item": [ {
        "linkId": "Tx224998",
        "text": "SYSTEM_COVIDLEVEL2",
        "answer": [ {
          "valueString": "==\"covidlevel2\""
        } ]
      } ]
    }
  }, {
    "fullUrl": "urn:uuid:4c44ce57-4a0b-410c-a88d-cfe31d4f4999",
    "resource": {
      "resourceType": "Questionnaire",
      "id": "4c44ce57-4a0b-410c-a88d-cfe31d4f4999",
      "identifier": [ {
        "value": "60319"
      } ],
      "version": "2021-04-06T15:19:34.083Z",
      "status": "active",
      "experimental": false,
      "date": "2021-04-06T15:19:34+00:00",
      "publisher": "User ID: 'HADFIELDR' User name: 'Ryan Hadfield' User skill set: 'T3'",
      "lastReviewDate": "2021-04-06",
      "contact": [ {
        "telecom": [ {
          "system": "phone",
          "value": "0111 111 1111"
        } ]
      } ],
      "subjectType": [ "Patient" ],
      "item": [ {
        "linkId": "60319",
        "prefix": "5900",
        "text": "SYSTEM_COVIDLEVEL2",
        "type": "choice",
        "required": true,
        "repeats": false,
        "option": [ {
          "valueString": "==\"covidlevel2\", Selected: true"
        }, {
          "valueString": "*, Selected: false"
        } ]
      } ]
    }
  }, {
    "fullUrl": "urn:uuid:d3117e75-6116-4220-9f79-eb95dc19f4c5",
    "resource": {
      "resourceType": "QuestionnaireResponse",
      "id": "d3117e75-6116-4220-9f79-eb95dc19f4c5",
      "identifier": {
        "value": "60319"
      },
      "questionnaire": {
        "reference": "urn:uuid:cad2b53a-e58a-4881-bac8-e8a6232eff94"
      },
      "status": "completed",
      "subject": {
        "reference": "urn:uuid:da24f7bc-7eb6-412c-a5d7-82b9202f95e6"
      },
      "context": {
        "reference": "urn:uuid:397fc31d-cd28-4b36-bc58-1152898d7543"
      },
      "authored": "2021-04-06T15:19:34+00:00",
      "item": [ {
        "linkId": "Tx225069",
        "text": "What is the reason for the contact?",
        "answer": [ {
          "valueString": "a prescription request"
        } ]
      } ]
    }
  }, {
    "fullUrl": "urn:uuid:cad2b53a-e58a-4881-bac8-e8a6232eff94",
    "resource": {
      "resourceType": "Questionnaire",
      "id": "cad2b53a-e58a-4881-bac8-e8a6232eff94",
      "identifier": [ {
        "value": "60319"
      } ],
      "version": "2021-04-06T15:19:34.083Z",
      "status": "active",
      "experimental": false,
      "date": "2021-04-06T15:19:34+00:00",
      "publisher": "User ID: 'HADFIELDR' User name: 'Ryan Hadfield' User skill set: 'T3'",
      "lastReviewDate": "2021-04-06",
      "contact": [ {
        "telecom": [ {
          "system": "phone",
          "value": "0111 111 1111"
        } ]
      } ],
      "subjectType": [ "Patient" ],
      "item": [ {
        "linkId": "60319",
        "prefix": "6000",
        "text": "What is the reason for the contact?",
        "type": "choice",
        "required": true,
        "repeats": false,
        "option": [ {
          "valueString": "a child protection/vulnerable adult concern (specify), Selected: false"
        }, {
          "valueString": "a social or domestic emergency, Selected: false"
        }, {
          "valueString": "a prescription request, Selected: true"
        }, {
          "valueString": "an appointment request, Selected: false"
        }, {
          "valueString": "a request for health or medication information, Selected: false"
        }, {
          "valueString": "public health alert information, Selected: false"
        } ]
      } ]
    }
  }, {
    "fullUrl": "urn:uuid:cc7ae160-91f7-4aa4-ba94-9b52d3be437a",
    "resource": {
      "resourceType": "QuestionnaireResponse",
      "id": "cc7ae160-91f7-4aa4-ba94-9b52d3be437a",
      "identifier": {
        "value": "60319"
      },
      "questionnaire": {
        "reference": "urn:uuid:3bc61276-a6b1-4406-b822-5e6bcbc5ce85"
      },
      "status": "completed",
      "subject": {
        "reference": "urn:uuid:da24f7bc-7eb6-412c-a5d7-82b9202f95e6"
      },
      "context": {
        "reference": "urn:uuid:397fc31d-cd28-4b36-bc58-1152898d7543"
      },
      "authored": "2021-04-06T15:19:34+00:00",
      "item": [ {
        "linkId": "Tx220957",
        "text": "Is this contact about a new or worsening illness?",
        "answer": [ {
          "valueString": "no"
        } ]
      } ]
    }
  }, {
    "fullUrl": "urn:uuid:3bc61276-a6b1-4406-b822-5e6bcbc5ce85",
    "resource": {
      "resourceType": "Questionnaire",
      "id": "3bc61276-a6b1-4406-b822-5e6bcbc5ce85",
      "identifier": [ {
        "value": "60319"
      } ],
      "version": "2021-04-06T15:19:34.083Z",
      "status": "active",
      "experimental": false,
      "date": "2021-04-06T15:19:34+00:00",
      "publisher": "User ID: 'HADFIELDR' User name: 'Ryan Hadfield' User skill set: 'T3'",
      "lastReviewDate": "2021-04-06",
      "contact": [ {
        "telecom": [ {
          "system": "phone",
          "value": "0111 111 1111"
        } ]
      } ],
      "subjectType": [ "Patient" ],
      "item": [ {
        "linkId": "60319",
        "prefix": "1400",
        "text": "Is this contact about a new or worsening illness?",
        "type": "choice",
        "required": true,
        "repeats": false,
        "option": [ {
          "valueString": "yes, Selected: false"
        }, {
          "valueString": "not sure, Selected: false"
        }, {
          "valueString": "no, Selected: true"
        } ]
      } ]
    }
  }, {
    "fullUrl": "urn:uuid:2722ad9c-aa9d-47e4-86a9-1b7ba157a12c",
    "resource": {
      "resourceType": "QuestionnaireResponse",
      "id": "2722ad9c-aa9d-47e4-86a9-1b7ba157a12c",
      "identifier": {
        "value": "60319"
      },
      "questionnaire": {
        "reference": "urn:uuid:cc3bc741-2e8e-4584-90b7-8352821d1d8e"
      },
      "status": "completed",
      "subject": {
        "reference": "urn:uuid:da24f7bc-7eb6-412c-a5d7-82b9202f95e6"
      },
      "context": {
        "reference": "urn:uuid:397fc31d-cd28-4b36-bc58-1152898d7543"
      },
      "authored": "2021-04-06T15:19:34+00:00",
      "item": [ {
        "linkId": "Tx221352",
        "text": "Have you got enough medication to last until the surgery opens?",
        "answer": [ {
          "valueString": "no"
        } ]
      } ]
    }
  }, {
    "fullUrl": "urn:uuid:cc3bc741-2e8e-4584-90b7-8352821d1d8e",
    "resource": {
      "resourceType": "Questionnaire",
      "id": "cc3bc741-2e8e-4584-90b7-8352821d1d8e",
      "identifier": [ {
        "value": "60319"
      } ],
      "version": "2021-04-06T15:19:34.083Z",
      "status": "active",
      "experimental": false,
      "date": "2021-04-06T15:19:34+00:00",
      "publisher": "User ID: 'HADFIELDR' User name: 'Ryan Hadfield' User skill set: 'T3'",
      "lastReviewDate": "2021-04-06",
      "contact": [ {
        "telecom": [ {
          "system": "phone",
          "value": "0111 111 1111"
        } ]
      } ],
      "subjectType": [ "Patient" ],
      "item": [ {
        "linkId": "60319",
        "prefix": "1500",
        "text": "Have you got enough medication to last until the surgery opens?",
        "type": "choice",
        "required": true,
        "repeats": false,
        "option": [ {
          "valueString": "yes, Selected: false"
        }, {
          "valueString": "not sure, Selected: false"
        }, {
          "valueString": "no, Selected: true"
        } ]
      } ]
    }
  }, {
    "fullUrl": "urn:uuid:3c7d2cee-d187-488d-bfbf-83335aee8555",
    "resource": {
      "resourceType": "QuestionnaireResponse",
      "id": "3c7d2cee-d187-488d-bfbf-83335aee8555",
      "identifier": {
        "value": "60319"
      },
      "questionnaire": {
        "reference": "urn:uuid:a332c1d4-361b-4ac0-80cc-6f46ad0a01e6"
      },
      "status": "completed",
      "subject": {
        "reference": "urn:uuid:da24f7bc-7eb6-412c-a5d7-82b9202f95e6"
      },
      "context": {
        "reference": "urn:uuid:397fc31d-cd28-4b36-bc58-1152898d7543"
      },
      "authored": "2021-04-06T15:19:34+00:00"
    }
  }, {
    "fullUrl": "urn:uuid:a332c1d4-361b-4ac0-80cc-6f46ad0a01e6",
    "resource": {
      "resourceType": "Questionnaire",
      "id": "a332c1d4-361b-4ac0-80cc-6f46ad0a01e6",
      "identifier": [ {
        "value": "60319"
      } ],
      "version": "2021-04-06T15:19:34.083Z",
      "status": "active",
      "experimental": false,
      "date": "2021-04-06T15:19:34+00:00",
      "publisher": "User ID: 'HADFIELDR' User name: 'Ryan Hadfield' User skill set: 'T3'",
      "lastReviewDate": "2021-04-06",
      "contact": [ {
        "telecom": [ {
          "system": "phone",
          "value": "0111 111 1111"
        } ]
      } ],
      "subjectType": [ "Patient" ]
    }
  }, {
    "fullUrl": "urn:uuid:64e9c540-f5f5-4911-a527-dc6520b8bb87",
    "resource": {
      "resourceType": "QuestionnaireResponse",
      "id": "64e9c540-f5f5-4911-a527-dc6520b8bb87",
      "identifier": {
        "value": "60319"
      },
      "questionnaire": {
        "reference": "urn:uuid:f6ffa605-0f4a-44ff-93f5-af293e4eaf38"
      },
      "status": "completed",
      "subject": {
        "reference": "urn:uuid:da24f7bc-7eb6-412c-a5d7-82b9202f95e6"
      },
      "context": {
        "reference": "urn:uuid:397fc31d-cd28-4b36-bc58-1152898d7543"
      },
      "authored": "2021-04-06T15:19:34+00:00",
      "item": [ {
        "linkId": "Tx224231",
        "text": "FROM WHAT YOU HAVE HEARD IS A CONSULTATION WITH A PRESCRIBER NEEDED?",
        "answer": [ {
          "valueString": "no"
        } ]
      } ]
    }
  }, {
    "fullUrl": "urn:uuid:f6ffa605-0f4a-44ff-93f5-af293e4eaf38",
    "resource": {
      "resourceType": "Questionnaire",
      "id": "f6ffa605-0f4a-44ff-93f5-af293e4eaf38",
      "identifier": [ {
        "value": "60319"
      } ],
      "version": "2021-04-06T15:19:34.083Z",
      "status": "active",
      "experimental": false,
      "date": "2021-04-06T15:19:34+00:00",
      "publisher": "User ID: 'HADFIELDR' User name: 'Ryan Hadfield' User skill set: 'T3'",
      "lastReviewDate": "2021-04-06",
      "contact": [ {
        "telecom": [ {
          "system": "phone",
          "value": "0111 111 1111"
        } ]
      } ],
      "subjectType": [ "Patient" ],
      "item": [ {
        "linkId": "60319",
        "prefix": "0",
        "text": "FROM WHAT YOU HAVE HEARD IS A CONSULTATION WITH A PRESCRIBER NEEDED?",
        "type": "choice",
        "required": true,
        "repeats": false,
        "option": [ {
          "valueString": "yes, Selected: false"
        }, {
          "valueString": "not sure, Selected: false"
        }, {
          "valueString": "no, Selected: true"
        } ]
      } ]
    }
  }, {
    "fullUrl": "urn:uuid:098a5e9b-b361-47c0-9cae-a369a46c8281",
    "resource": {
      "resourceType": "QuestionnaireResponse",
      "id": "098a5e9b-b361-47c0-9cae-a369a46c8281",
      "identifier": {
        "value": "60319"
      },
      "questionnaire": {
        "reference": "urn:uuid:42f7840b-1b21-4ee9-9f8b-2d7c83113ba3"
      },
      "status": "completed",
      "subject": {
        "reference": "urn:uuid:da24f7bc-7eb6-412c-a5d7-82b9202f95e6"
      },
      "context": {
        "reference": "urn:uuid:397fc31d-cd28-4b36-bc58-1152898d7543"
      },
      "authored": "2021-04-06T15:19:34+00:00",
      "item": [ {
        "linkId": "Tx222687",
        "text": "Have you got any of the medication available at the moment?",
        "answer": [ {
          "valueString": "no"
        } ]
      } ]
    }
  }, {
    "fullUrl": "urn:uuid:42f7840b-1b21-4ee9-9f8b-2d7c83113ba3",
    "resource": {
      "resourceType": "Questionnaire",
      "id": "42f7840b-1b21-4ee9-9f8b-2d7c83113ba3",
      "identifier": [ {
        "value": "60319"
      } ],
      "version": "2021-04-06T15:19:34.083Z",
      "status": "active",
      "experimental": false,
      "date": "2021-04-06T15:19:34+00:00",
      "publisher": "User ID: 'HADFIELDR' User name: 'Ryan Hadfield' User skill set: 'T3'",
      "lastReviewDate": "2021-04-06",
      "contact": [ {
        "telecom": [ {
          "system": "phone",
          "value": "0111 111 1111"
        } ]
      } ],
      "subjectType": [ "Patient" ],
      "item": [ {
        "linkId": "60319",
        "prefix": "200",
        "text": "Have you got any of the medication available at the moment?",
        "type": "choice",
        "required": true,
        "repeats": false,
        "option": [ {
          "valueString": "yes, Selected: false"
        }, {
          "valueString": "not sure, Selected: false"
        }, {
          "valueString": "no, Selected: true"
        } ]
      } ]
    }
  }, {
    "fullUrl": "urn:uuid:24168a13-d05f-44e8-9317-08b4b2311179",
    "resource": {
      "resourceType": "QuestionnaireResponse",
      "id": "24168a13-d05f-44e8-9317-08b4b2311179",
      "identifier": {
        "value": "60319"
      },
      "questionnaire": {
        "reference": "urn:uuid:477df8e9-2d03-445a-bf87-c21ecb4729a6"
      },
      "status": "completed",
      "subject": {
        "reference": "urn:uuid:da24f7bc-7eb6-412c-a5d7-82b9202f95e6"
      },
      "context": {
        "reference": "urn:uuid:397fc31d-cd28-4b36-bc58-1152898d7543"
      },
      "authored": "2021-04-06T15:19:34+00:00",
      "item": [ {
        "linkId": "Tx221367",
        "text": "When is the next dose due?",
        "answer": [ {
          "valueString": "over 12 hours time"
        } ]
      } ]
    }
  }, {
    "fullUrl": "urn:uuid:477df8e9-2d03-445a-bf87-c21ecb4729a6",
    "resource": {
      "resourceType": "Questionnaire",
      "id": "477df8e9-2d03-445a-bf87-c21ecb4729a6",
      "identifier": [ {
        "value": "60319"
      } ],
      "version": "2021-04-06T15:19:34.083Z",
      "status": "active",
      "experimental": false,
      "date": "2021-04-06T15:19:34+00:00",
      "publisher": "User ID: 'HADFIELDR' User name: 'Ryan Hadfield' User skill set: 'T3'",
      "lastReviewDate": "2021-04-06",
      "contact": [ {
        "telecom": [ {
          "system": "phone",
          "value": "0111 111 1111"
        } ]
      } ],
      "subjectType": [ "Patient" ],
      "item": [ {
        "linkId": "60319",
        "prefix": "100",
        "text": "When is the next dose due?",
        "type": "choice",
        "required": true,
        "repeats": false,
        "option": [ {
          "valueString": "within the next 2 hours, Selected: false"
        }, {
          "valueString": "within the next 6 hours, Selected: false"
        }, {
          "valueString": "within the next 12 hours, Selected: false"
        }, {
          "valueString": "over 12 hours time, Selected: true"
        }, {
          "valueString": "not sure, Selected: false"
        } ]
      } ]
    }
  }, {
    "fullUrl": "urn:uuid:324ba7bd-7f64-4e8b-a7de-06721d817a2a",
    "resource": {
      "resourceType": "QuestionnaireResponse",
      "id": "324ba7bd-7f64-4e8b-a7de-06721d817a2a",
      "identifier": {
        "value": "60319"
      },
      "questionnaire": {
        "reference": "urn:uuid:bba77088-438e-477f-9fe2-31f85ab01132"
      },
      "status": "completed",
      "subject": {
        "reference": "urn:uuid:da24f7bc-7eb6-412c-a5d7-82b9202f95e6"
      },
      "context": {
        "reference": "urn:uuid:397fc31d-cd28-4b36-bc58-1152898d7543"
      },
      "authored": "2021-04-06T15:19:34+00:00",
      "item": [ {
        "linkId": "Tx223441",
        "text": "STRING:SDPCRepeatPrescription",
        "answer": [ {
          "valueString": "\"PC repeat prescription\""
        } ]
      } ]
    }
  }, {
    "fullUrl": "urn:uuid:bba77088-438e-477f-9fe2-31f85ab01132",
    "resource": {
      "resourceType": "Questionnaire",
      "id": "bba77088-438e-477f-9fe2-31f85ab01132",
      "identifier": [ {
        "value": "60319"
      } ],
      "version": "2021-04-06T15:19:34.083Z",
      "status": "active",
      "experimental": false,
      "date": "2021-04-06T15:19:34+00:00",
      "publisher": "User ID: 'HADFIELDR' User name: 'Ryan Hadfield' User skill set: 'T3'",
      "lastReviewDate": "2021-04-06",
      "contact": [ {
        "telecom": [ {
          "system": "phone",
          "value": "0111 111 1111"
        } ]
      } ],
      "subjectType": [ "Patient" ],
      "item": [ {
        "linkId": "60319",
        "prefix": "1100",
        "text": "STRING:SDPCRepeatPrescription",
        "type": "choice",
        "required": true,
        "repeats": false,
        "option": [ {
          "valueString": "\"PC repeat prescription\", Selected: true"
        } ]
      } ]
    }
  }, {
    "fullUrl": "urn:uuid:1e2c273a-0aae-4f16-b1d9-9a2937d12649",
    "resource": {
      "resourceType": "QuestionnaireResponse",
      "id": "1e2c273a-0aae-4f16-b1d9-9a2937d12649",
      "identifier": {
        "value": "60319"
      },
      "questionnaire": {
        "reference": "urn:uuid:0d325631-8a70-487b-a200-f0ad69a66456"
      },
      "status": "completed",
      "subject": {
        "reference": "urn:uuid:da24f7bc-7eb6-412c-a5d7-82b9202f95e6"
      },
      "context": {
        "reference": "urn:uuid:397fc31d-cd28-4b36-bc58-1152898d7543"
      },
      "authored": "2021-04-06T15:19:34+00:00"
    }
  }, {
    "fullUrl": "urn:uuid:0d325631-8a70-487b-a200-f0ad69a66456",
    "resource": {
      "resourceType": "Questionnaire",
      "id": "0d325631-8a70-487b-a200-f0ad69a66456",
      "identifier": [ {
        "value": "60319"
      } ],
      "version": "2021-04-06T15:19:34.083Z",
      "status": "active",
      "experimental": false,
      "date": "2021-04-06T15:19:34+00:00",
      "publisher": "User ID: 'HADFIELDR' User name: 'Ryan Hadfield' User skill set: 'T3'",
      "lastReviewDate": "2021-04-06",
      "contact": [ {
        "telecom": [ {
          "system": "phone",
          "value": "0111 111 1111"
        } ]
      } ],
      "subjectType": [ "Patient" ]
    }
  }, {
    "fullUrl": "urn:uuid:3affcb41-684b-4ebe-a7b0-fdd899440d14",
    "resource": {
      "resourceType": "QuestionnaireResponse",
      "id": "3affcb41-684b-4ebe-a7b0-fdd899440d14",
      "identifier": {
        "value": "60319"
      },
      "questionnaire": {
        "reference": "urn:uuid:b759d356-6720-44f2-a17b-7f625e621b5b"
      },
      "status": "completed",
      "subject": {
        "reference": "urn:uuid:da24f7bc-7eb6-412c-a5d7-82b9202f95e6"
      },
      "context": {
        "reference": "urn:uuid:397fc31d-cd28-4b36-bc58-1152898d7543"
      },
      "authored": "2021-04-06T15:19:34+00:00"
    }
  }, {
    "fullUrl": "urn:uuid:b759d356-6720-44f2-a17b-7f625e621b5b",
    "resource": {
      "resourceType": "Questionnaire",
      "id": "b759d356-6720-44f2-a17b-7f625e621b5b",
      "identifier": [ {
        "value": "60319"
      } ],
      "version": "2021-04-06T15:19:34.083Z",
      "status": "active",
      "experimental": false,
      "date": "2021-04-06T15:19:34+00:00",
      "publisher": "User ID: 'HADFIELDR' User name: 'Ryan Hadfield' User skill set: 'T3'",
      "lastReviewDate": "2021-04-06",
      "contact": [ {
        "telecom": [ {
          "system": "phone",
          "value": "0111 111 1111"
        } ]
      } ],
      "subjectType": [ "Patient" ]
    }
  }, {
    "fullUrl": "urn:uuid:36b9f796-fd95-4d64-af50-b6a502d00468",
    "resource": {
      "resourceType": "PractitionerRole",
      "id": "36b9f796-fd95-4d64-af50-b6a502d00468",
      "practitioner": {
        "reference": "urn:uuid:c7d7bfbb-a31a-41a3-867b-c4760366f819"
      },
      "organization": {
        "reference": "urn:uuid:9ab500f9-6f4e-434e-9f4c-da445210379f"
      },
      "code": [ {
        "coding": [ {
          "system": "2.16.840.1.113883.2.1.3.2.4.17.339",
          "code": "DOCTOR",
          "display": "Doctor"
        } ]
      } ]
    }
  }, {
    "fullUrl": "urn:uuid:9ab500f9-6f4e-434e-9f4c-da445210379f",
    "resource": {
      "resourceType": "Organization",
      "id": "9ab500f9-6f4e-434e-9f4c-da445210379f",
      "identifier": [ {
        "value": "RYE"
      } ],
      "name": "RepresentedOrg Name"
    }
  }, {
    "fullUrl": "urn:uuid:4b63fb20-c657-41a7-a652-21a8d1333a2c",
    "resource": {
      "resourceType": "PractitionerRole",
      "id": "4b63fb20-c657-41a7-a652-21a8d1333a2c",
      "practitioner": {
        "reference": "urn:uuid:0ec81b60-44e0-4061-8e92-4b4e9b8210b0"
      },
      "organization": {
        "reference": "urn:uuid:5f4132e0-6559-4d01-8121-92cca77d305e"
      },
      "code": [ {
        "coding": [ {
          "system": "2.16.840.1.113883.2.1.3.2.4.17.196",
          "code": "R0010",
          "display": "Medical Director"
        } ]
      } ]
    }
  }, {
    "fullUrl": "urn:uuid:5f4132e0-6559-4d01-8121-92cca77d305e",
    "resource": {
      "resourceType": "Organization",
      "id": "5f4132e0-6559-4d01-8121-92cca77d305e",
      "identifier": [ {
        "value": "RYE"
      } ],
      "name": "RepresentedOrgNameRYE"
    }
  }, {
    "fullUrl": "urn:uuid:c1e33007-6970-44e2-8324-59bf53163c6b",
    "resource": {
      "resourceType": "RelatedPerson",
      "id": "c1e33007-6970-44e2-8324-59bf53163c6b",
      "patient": {
        "reference": "urn:uuid:da24f7bc-7eb6-412c-a5d7-82b9202f95e6"
      },
      "relationship": {
        "coding": [ {
          "system": "http://hl7.org/fhir/v2/0131",
          "code": "C",
          "display": "Emergency Contact"
        } ]
      },
      "telecom": [ {
        "system": "phone",
        "value": "tel:000000000000"
      } ]
    }
  }, {
    "fullUrl": "urn:uuid:9d0ea9eb-4f82-41d2-840e-8d65efc370f2",
    "resource": {
      "resourceType": "Device",
      "id": "9d0ea9eb-4f82-41d2-840e-8d65efc370f2",
      "model": "111 Adaptor",
      "version": "1.0.1"
    }
  }, {
    "fullUrl": "urn:uuid:80b48b86-86d3-41f9-8c69-c753ff4080be",
    "resource": {
      "resourceType": "List",
      "id": "80b48b86-86d3-41f9-8c69-c753ff4080be",
      "status": "current",
      "mode": "working",
      "title": "111 Report List",
      "code": {
        "coding": [ {
          "system": "http://snomed.info/sct",
          "code": "225390008",
          "display": "Triage"
        } ]
      },
      "subject": {
        "reference": "urn:uuid:da24f7bc-7eb6-412c-a5d7-82b9202f95e6"
      },
      "encounter": {
        "reference": "urn:uuid:397fc31d-cd28-4b36-bc58-1152898d7543"
      },
      "date": "2021-04-06T15:19:34+00:00",
      "source": {
        "reference": "urn:uuid:9d0ea9eb-4f82-41d2-840e-8d65efc370f2"
      },
      "orderedBy": {
        "coding": [ {
          "system": "http://hl7.org/fhir/list-order",
          "code": "event-date",
          "display": "Sorted by Event Date"
        } ]
      },
      "entry": [ {
        "item": {
          "reference": "urn:uuid:91487ffe-9ad7-40eb-a0f7-74d7474350d5"
        }
      }, {
        "item": {
          "reference": "urn:uuid:f1c788a9-0d42-4306-91e4-7c89deef2362"
        }
      }, {
        "item": {
          "reference": "urn:uuid:5f4132e0-6559-4d01-8121-92cca77d305e"
        }
      }, {
        "item": {
          "reference": "urn:uuid:c7d7bfbb-a31a-41a3-867b-c4760366f819"
        }
      }, {
        "item": {
          "reference": "urn:uuid:9ab500f9-6f4e-434e-9f4c-da445210379f"
        }
      }, {
        "item": {
          "reference": "urn:uuid:6b4141bf-c101-401d-9eb6-57b97dceee94"
        }
      }, {
        "item": {
          "reference": "urn:uuid:77768da4-7c86-4564-a086-a8da2858c2b3"
        }
      }, {
        "item": {
          "reference": "urn:uuid:c1e33007-6970-44e2-8324-59bf53163c6b"
        }
      }, {
        "item": {
          "reference": "urn:uuid:0ec81b60-44e0-4061-8e92-4b4e9b8210b0"
        }
      }, {
        "item": {
          "reference": "urn:uuid:cc3bc741-2e8e-4584-90b7-8352821d1d8e"
        }
      }, {
        "item": {
          "reference": "urn:uuid:cad2b53a-e58a-4881-bac8-e8a6232eff94"
        }
      }, {
        "item": {
          "reference": "urn:uuid:64e9c540-f5f5-4911-a527-dc6520b8bb87"
        }
      }, {
        "item": {
          "reference": "urn:uuid:477df8e9-2d03-445a-bf87-c21ecb4729a6"
        }
      }, {
        "item": {
          "reference": "urn:uuid:d3117e75-6116-4220-9f79-eb95dc19f4c5"
        }
      }, {
        "item": {
          "reference": "urn:uuid:1a2547a6-9e18-4dd7-9071-ba3eb1a7f12a"
        }
      }, {
        "item": {
          "reference": "urn:uuid:d2b428d4-b032-4bea-b1cf-f5ed6f2e2f2a"
        }
      }, {
        "item": {
          "reference": "urn:uuid:a332c1d4-361b-4ac0-80cc-6f46ad0a01e6"
        }
      }, {
        "item": {
          "reference": "urn:uuid:b56b27e5-f183-4768-a9ae-53a74961e6e2"
        }
      }, {
        "item": {
          "reference": "urn:uuid:b759d356-6720-44f2-a17b-7f625e621b5b"
        }
      }, {
        "item": {
          "reference": "urn:uuid:3c7d2cee-d187-488d-bfbf-83335aee8555"
        }
      }, {
        "item": {
          "reference": "urn:uuid:3bc61276-a6b1-4406-b822-5e6bcbc5ce85"
        }
      }, {
        "item": {
          "reference": "urn:uuid:f6ffa605-0f4a-44ff-93f5-af293e4eaf38"
        }
      }, {
        "item": {
          "reference": "urn:uuid:804fa176-ef14-416e-b635-f8ffbcd592f1"
        }
      }, {
        "item": {
          "reference": "urn:uuid:1e2c273a-0aae-4f16-b1d9-9a2937d12649"
        }
      }, {
        "item": {
          "reference": "urn:uuid:05d46e38-d7b8-4e1e-ab80-99dc1a102e1c"
        }
      }, {
        "item": {
          "reference": "urn:uuid:9ad34154-fa89-4f92-9e50-1cf8522907c7"
        }
      }, {
        "item": {
          "reference": "urn:uuid:2722ad9c-aa9d-47e4-86a9-1b7ba157a12c"
        }
      }, {
        "item": {
          "reference": "urn:uuid:098a5e9b-b361-47c0-9cae-a369a46c8281"
        }
      }, {
        "item": {
          "reference": "urn:uuid:0d325631-8a70-487b-a200-f0ad69a66456"
        }
      }, {
        "item": {
          "reference": "urn:uuid:b22ddaa3-a131-477f-98f0-07bfa040b00f"
        }
      }, {
        "item": {
          "reference": "urn:uuid:324ba7bd-7f64-4e8b-a7de-06721d817a2a"
        }
      }, {
        "item": {
          "reference": "urn:uuid:4c44ce57-4a0b-410c-a88d-cfe31d4f4999"
        }
      }, {
        "item": {
          "reference": "urn:uuid:bba77088-438e-477f-9fe2-31f85ab01132"
        }
      }, {
        "item": {
          "reference": "urn:uuid:ab578022-1087-4f73-9919-b82d45acbd45"
        }
      }, {
        "item": {
          "reference": "urn:uuid:24168a13-d05f-44e8-9317-08b4b2311179"
        }
      }, {
        "item": {
          "reference": "urn:uuid:42f7840b-1b21-4ee9-9f8b-2d7c83113ba3"
        }
      }, {
        "item": {
          "reference": "urn:uuid:cc7ae160-91f7-4aa4-ba94-9b52d3be437a"
        }
      }, {
        "item": {
          "reference": "urn:uuid:4d6a500e-6286-4a73-a614-85eb0abf2b7c"
        }
      }, {
        "item": {
          "reference": "urn:uuid:3affcb41-684b-4ebe-a7b0-fdd899440d14"
        }
      }, {
        "item": {
          "reference": "urn:uuid:bd9e4e61-c9dd-440f-849b-51e9f610d539"
        }
      } ]
    }
  } ]
}