{
  "resourceType": "Bundle",
  "meta": {
    "lastUpdated": "2022-05-12T07:25:17.842+00:00"
  },
  "identifier": {
    "type": {
      "text": "ClinicalDocument VersionNumber"
    },
    "value": "1"
  },
  "type": "message",
  "entry": [ {
    "fullUrl": "urn:uuid:05040617-33BA-4344-AA59-281CF2FE63CA",
    "resource": {
      "resourceType": "MessageHeader",
      "id": "05040617-33BA-4344-AA59-281CF2FE63CA",
      "event": {
        "system": "https://fhir.nhs.uk/STU3/CodeSystem/EventType-1",
        "code": "referral-1",
        "display": "Referral"
      },
      "destination": [ {
        "endpoint": "urn:nhs-uk:addressing:ods:FHR04RPX:DOSServiceID:2000038667"
      } ],
      "timestamp": "2021-04-06T15:19:34.000+00:00",
      "source": {
        "name": "NHS 111 Adaptor",
        "endpoint": "http://localhost:8080/report"
      },
      "reason": {
        "coding": [ {
          "system": "urn:nhs-itk:ns:201005:interaction",
          "code": "urn:nhs-itk:interaction:primaryOutofHourRecipientNHS111CDADocument-v2-0"
        } ]
      }
    }
  }, {
    "fullUrl": "urn:uuid:2fe31c00-de4a-471d-842e-696b6f9efb37",
    "resource": {
      "resourceType": "Encounter",
      "id": "2fe31c00-de4a-471d-842e-696b6f9efb37",
      "identifier": [ {
        "system": "2.16.840.1.113883.2.1.3.2.4.18.34",
        "value": "AdastraCaseGUID34"
      }, {
        "system": "2.16.840.1.113883.2.1.3.2.4.18.35",
        "value": "AdastraCaseID35"
      }, {
        "system": "2.16.840.1.113883.2.1.3.2.4.18.49",
        "value": "AdastraCaseGUID49"
      } ],
      "status": "finished",
      "type": [ {
        "text": "111 Encounter Referral"
      } ],
      "subject": {
        "reference": "urn:uuid:a35ba9b9-f964-474a-94ef-411befc03ca4"
      },
      "participant": [ {
        "type": [ {
          "coding": [ {
            "system": "http://hl7.org/fhir/ValueSet/encounter-participant-type",
            "code": "PPRF",
            "display": "Author"
          } ]
        } ],
        "individual": {
          "reference": "urn:uuid:d4f3af15-5c45-4c32-bf81-aa03c8e6ef16"
        }
      }, {
        "type": [ {
          "text": "Informant"
        } ],
        "individual": {
          "reference": "urn:uuid:b4419eca-bac8-4053-8ba2-735801b3f711"
        }
      }, {
        "type": [ {
          "coding": [ {
            "system": "http://hl7.org/fhir/ValueSet/encounter-participant-type",
            "code": "ATND",
            "display": "Responsible Party"
          } ]
        } ],
        "individual": {
          "reference": "urn:uuid:cb4f16d2-3c0a-4f6d-b07a-845e74da601b"
        }
      } ],
      "period": {
        "start": "2021-04-06T15:13:33+00:00",
        "end": "2021-04-06T15:19:29+00:00"
      },
      "location": [ {
        "location": {
          "reference": "urn:uuid:f9fa35af-b659-49ea-bcf3-32c700936f14"
        },
        "status": "completed"
      } ],
      "serviceProvider": {
        "reference": "urn:uuid:e9bacb70-325c-47be-9ad9-2831f58421f3"
      }
    }
  }, {
    "fullUrl": "urn:uuid:e9bacb70-325c-47be-9ad9-2831f58421f3",
    "resource": {
      "resourceType": "Organization",
      "id": "e9bacb70-325c-47be-9ad9-2831f58421f3",
      "active": true,
      "type": [ {
        "text": "CST"
      } ],
      "name": "CustodianName"
    }
  }, {
    "fullUrl": "urn:uuid:d4f3af15-5c45-4c32-bf81-aa03c8e6ef16",
    "resource": {
      "resourceType": "Practitioner",
      "id": "d4f3af15-5c45-4c32-bf81-aa03c8e6ef16",
      "active": true,
      "name": [ {
        "use": "official",
        "family": "AuthorAssignedPerson FamilyName",
        "given": [ "AuthorAssignedPerson GivenName" ]
      } ]
    }
  }, {
    "fullUrl": "urn:uuid:b4419eca-bac8-4053-8ba2-735801b3f711",
    "resource": {
      "resourceType": "RelatedPerson",
      "id": "b4419eca-bac8-4053-8ba2-735801b3f711",
      "active": true,
      "patient": {
        "reference": "urn:uuid:a35ba9b9-f964-474a-94ef-411befc03ca4"
      },
      "relationship": {
        "coding": [ {
          "system": "2.16.840.1.113883.2.1.3.2.4.16.45",
          "code": "16",
          "display": "Relative"
        } ]
      },
      "name": [ {
        "text": "RelatedPerson Name"
      } ],
      "telecom": [ {
        "system": "phone",
        "value": "tel:01111111111",
        "use": "home"
      } ],
      "gender": "unknown"
    }
  }, {
    "fullUrl": "urn:uuid:cb4f16d2-3c0a-4f6d-b07a-845e74da601b",
    "resource": {
      "resourceType": "Practitioner",
      "id": "cb4f16d2-3c0a-4f6d-b07a-845e74da601b",
      "active": true,
      "name": [ {
        "use": "official",
        "family": "ResponsablePartyMD FamilyName",
        "given": [ "ResponsablePartyMD GivenName" ]
      } ]
    }
  }, {
    "fullUrl": "urn:uuid:f9fa35af-b659-49ea-bcf3-32c700936f14",
    "resource": {
      "resourceType": "Location",
      "id": "f9fa35af-b659-49ea-bcf3-32c700936f14",
      "name": "Incident Location",
      "address": {
        "type": "physical",
        "line": [ "HealthCareFacility AddressLine1", "HealthCareFacility AddressLine2", "HealthCareFacility AddressLine3", "HealthCareFacility AddressLine4", "HealthCareFacility AddressLine5" ],
        "postalCode": "LOH25 4NS"
      }
    }
  }, {
    "fullUrl": "urn:uuid:a35ba9b9-f964-474a-94ef-411befc03ca4",
    "resource": {
      "resourceType": "Patient",
      "id": "a35ba9b9-f964-474a-94ef-411befc03ca4",
      "active": true,
      "name": [ {
        "use": "official",
        "family": "Patient Family Name",
        "given": [ "Patient Given Name" ]
      } ],
      "telecom": [ {
        "system": "phone",
        "value": "tel:000000000000",
        "use": "home"
      }, {
        "system": "phone",
        "value": "tel:000000000000"
      } ],
      "gender": "other",
      "birthDate": "1990-02-02",
      "address": [ {
        "use": "home",
        "line": [ "Home Address Line 1", "Home Address Line 2", "Home Address Line 3", "Home Address Line 4", "Home Address Line 5" ],
        "postalCode": "HA25 4NS"
      }, {
        "type": "physical",
        "line": [ "Home Address Line 1", "Home Address Line 2", "Home Address Line 3", "Home Address Line 4", "Home Address Line 5" ],
        "postalCode": "PH25 4NS"
      } ]
    }
  }, {
    "fullUrl": "urn:uuid:9aeb6fa0-800e-4687-b95a-046269b46282",
    "resource": {
      "resourceType": "HealthcareService",
      "id": "9aeb6fa0-800e-4687-b95a-046269b46282",
      "active": true,
      "providedBy": {
        "reference": "urn:uuid:f6c76f14-4aa4-4acc-99a5-043a91dfdb04"
      },
      "location": [ {
        "reference": "urn:uuid:126ead7f-5a4a-45a6-9026-7ab3da84d388"
      } ],
      "name": "InformationRecipient IntendedRecipient Name FHR0"
    }
  }, {
    "fullUrl": "urn:uuid:126ead7f-5a4a-45a6-9026-7ab3da84d388",
    "resource": {
      "resourceType": "Location",
      "id": "126ead7f-5a4a-45a6-9026-7ab3da84d388",
      "managingOrganization": {
        "reference": "urn:uuid:f6c76f14-4aa4-4acc-99a5-043a91dfdb04"
      }
    }
  }, {
    "fullUrl": "urn:uuid:f6c76f14-4aa4-4acc-99a5-043a91dfdb04",
    "resource": {
      "resourceType": "Organization",
      "id": "f6c76f14-4aa4-4acc-99a5-043a91dfdb04",
      "identifier": [ {
        "value": "FHR04RPX"
      } ],
      "type": [ {
        "coding": [ {
          "code": "PRCP",
          "display": "InformationRecipient IntendedRecipient Name FHR0"
        } ]
      } ],
      "name": "InformationRecipient IntendedRecipient Name FHR0"
    }
  }, {
    "fullUrl": "urn:uuid:d1ff2ef5-c77e-4e43-97a2-640fafaf2d6f",
    "resource": {
      "resourceType": "ReferralRequest",
      "id": "d1ff2ef5-c77e-4e43-97a2-640fafaf2d6f",
      "status": "active",
      "intent": "plan",
      "priority": "routine",
      "subject": {
        "reference": "urn:uuid:a35ba9b9-f964-474a-94ef-411befc03ca4"
      },
      "context": {
        "reference": "urn:uuid:2fe31c00-de4a-471d-842e-696b6f9efb37"
      },
      "occurrencePeriod": {
        "start": "2021-04-06T15:19:34+00:00"
      },
      "authoredOn": "2021-04-06T15:19:29+00:00",
      "requester": {
        "agent": {
          "reference": "urn:uuid:f1ceb436-2cad-488a-8db9-a732681fcc76"
        },
        "onBehalfOf": {
          "reference": "urn:uuid:e9bacb70-325c-47be-9ad9-2831f58421f3"
        }
      },
      "recipient": [ {
        "reference": "urn:uuid:9aeb6fa0-800e-4687-b95a-046269b46282"
      } ],
      "reasonReference": [ {
        "reference": "urn:uuid:2ffa23fc-a5f0-4b1a-b0f2-251829d25ab1"
      } ],
      "supportingInfo": [ {
        "reference": "urn:uuid:df35bdcf-a20a-4c09-a45c-ac6f2fd576f1"
      } ]
    }
  }, {
    "fullUrl": "urn:uuid:df35bdcf-a20a-4c09-a45c-ac6f2fd576f1",
    "resource": {
      "resourceType": "ProcedureRequest",
      "id": "df35bdcf-a20a-4c09-a45c-ac6f2fd576f1",
      "status": "active",
      "intent": "plan",
      "priority": "routine",
      "doNotPerform": false,
      "code": {
        "coding": [ {
          "system": "2.16.840.1.113883.2.1.3.2.4.17.325",
          "code": "DispoCodeDx87",
          "display": "DispoName - Repeat Prescription required within 24 hours"
        } ]
      },
      "subject": {
        "reference": "urn:uuid:a35ba9b9-f964-474a-94ef-411befc03ca4"
      },
      "occurrencePeriod": {
        "start": "2021-04-06T15:19:34+00:00"
      },
      "reasonReference": [ {
        "reference": "urn:uuid:2ffa23fc-a5f0-4b1a-b0f2-251829d25ab1"
      } ]
    }
  }, {
    "fullUrl": "urn:uuid:db17708b-198e-48b7-8b74-21943ed0003c",
    "resource": {
      "resourceType": "Composition",
      "id": "db17708b-198e-48b7-8b74-21943ed0003c",
      "identifier": {
        "use": "usual",
        "value": "E2DF04F7-95CA-40AD-808D-797C0A89E39C"
      },
      "status": "final",
      "type": {
        "coding": [ {
          "system": "http://snomed.info/sct",
          "code": "371531000",
          "display": "Report of clinical encounter (record artifact)"
        } ]
      },
      "subject": {
        "reference": "urn:uuid:a35ba9b9-f964-474a-94ef-411befc03ca4"
      },
      "encounter": {
        "reference": "urn:uuid:2fe31c00-de4a-471d-842e-696b6f9efb37"
      },
      "date": "2021-04-06T15:19:34+00:00",
      "author": [ {
        "reference": "urn:uuid:d4f3af15-5c45-4c32-bf81-aa03c8e6ef16"
      } ],
      "title": "111 Report",
      "confidentiality": "N",
      "section": [ {
        "section": [ {
          "title": "ComponentTitle - Patient's Reported Condition",
          "text": {
            "status": "generated",
            "div": "<div xmlns=\"http://www.w3.org/1999/xhtml\">&lt;content&gt;ComponentText - Pharmacy ITK Testing&lt;/content&gt;\n                                                    &lt;br/&gt;</div>"
          }
        }, {
          "title": "ComponentTitle - Pathways Disposition",
          "text": {
            "status": "generated",
            "div": "<div xmlns=\"http://www.w3.org/1999/xhtml\">ComponentText - Repeat Prescription required within 24 hours (Dx87)                                         &lt;br/&gt;\n                                                    &lt;br/&gt;                                         Selected service: Springvale, Fraser Road, Kings Worthy, Winchester&lt;br/&gt;</div>"
          }
        }, {
          "title": "ComponentTitle - Consultation Summary",
          "text": {
            "status": "generated",
            "div": "<div xmlns=\"http://www.w3.org/1999/xhtml\">ComponentText - Prescription request&lt;br/&gt;Not enough medication until surgery opens&lt;br/&gt;No medication available&lt;br/&gt;Next dose due in over 12 hours time&lt;br/&gt;</div>"
          }
        }, {
          "title": "ComponentTitle - Pathways Assessment",
          "text": {
            "status": "generated",
            "div": "<div xmlns=\"http://www.w3.org/1999/xhtml\">ComponentText - Reason for call menu - continued to next list.&lt;br/&gt;A prescription request was the main reason for the contact.&lt;br/&gt;The main reason for the contact was not a new or worsening illness.&lt;br/&gt;The individual did not have enough medication to last until the surgery next opened.&lt;br/&gt;The medication was suitable for repeat prescribing without further consultation.&lt;br/&gt;The individual had no medication available.&lt;br/&gt;The next dose was due in over 12 hours time.&lt;br/&gt;Instructions given were: The individual needs a repeat prescription.&lt;br/&gt;Directory of Services referral: Springvale, Fraser Road, Kings Worthy, Winchester&lt;br/&gt;</div>"
          }
        }, {
          "title": "ComponentTitle - Advice Given",
          "text": {
            "status": "generated",
            "div": "<div xmlns=\"http://www.w3.org/1999/xhtml\">ComponentText - I will arrange for a clinician or pharmacist to speak to the individual.&lt;br/&gt;IF THE RECOMMENDED TIMEFRAME FALLS OUTSIDE OPENING HOURS: I will arrange for a clinician to speak to the individual.&lt;br/&gt;\n                                                    &lt;br/&gt;</div>"
          }
        }, {
          "title": "ComponentTitle - Information And Advice Given"
        }, {
          "title": "ComponentTitle - Disposition",
          "text": {
            "status": "generated",
            "div": "<div xmlns=\"http://www.w3.org/1999/xhtml\">&lt;content&gt;ComponentText - Repeat Prescription required within 24 hours&lt;br/&gt;\n                                                    &lt;/content&gt;\n                                                    &lt;br/&gt;\n                                                    &lt;br/&gt;</div>"
          }
        } ]
      }, {
        "title": "CarePlan",
        "entry": [ {
          "reference": "urn:uuid:c972cc65-4ac2-423e-a7b9-8482c3ef93de"
        } ]
      }, {
        "title": "ReferralRequest",
        "entry": [ {
          "reference": "urn:uuid:d1ff2ef5-c77e-4e43-97a2-640fafaf2d6f"
        } ]
      }, {
        "title": "QuestionnaireResponse",
        "entry": [ {
          "reference": "urn:uuid:58005ee3-fc6b-4d34-99f5-152b3804854b"
        } ]
      }, {
        "title": "QuestionnaireResponse",
        "entry": [ {
          "reference": "urn:uuid:c82d01fc-7b15-48f4-a1ea-18fda4cd6cc1"
        } ]
      }, {
        "title": "QuestionnaireResponse",
        "entry": [ {
          "reference": "urn:uuid:63ad8482-c4a6-4b0b-bbbc-4b5fcf542b57"
        } ]
      }, {
        "title": "QuestionnaireResponse",
        "entry": [ {
          "reference": "urn:uuid:dd237400-21ac-4781-b5cd-720261d08ede"
        } ]
      }, {
        "title": "QuestionnaireResponse",
        "entry": [ {
          "reference": "urn:uuid:669884d4-df36-4e6f-93ce-a92f4ada24a8"
        } ]
      }, {
        "title": "QuestionnaireResponse",
        "entry": [ {
          "reference": "urn:uuid:85a22454-0ee5-4b04-8f8c-697a26549d7c"
        } ]
      }, {
        "title": "QuestionnaireResponse",
        "entry": [ {
          "reference": "urn:uuid:af4ea69e-2a0f-49db-a6f4-249288418191"
        } ]
      }, {
        "title": "QuestionnaireResponse",
        "entry": [ {
          "reference": "urn:uuid:e5097925-b616-4a4b-8e18-ef4bff14e9bc"
        } ]
      }, {
        "title": "QuestionnaireResponse",
        "entry": [ {
          "reference": "urn:uuid:1ffa97dc-4ff2-4585-b08e-48ef1e313d51"
        } ]
      }, {
        "title": "QuestionnaireResponse",
        "entry": [ {
          "reference": "urn:uuid:b5103307-9c5a-4e1a-913d-4871d04d2d08"
        } ]
      }, {
        "title": "QuestionnaireResponse",
        "entry": [ {
          "reference": "urn:uuid:9387edd0-ca9a-45e3-bc91-de115c06e022"
        } ]
      }, {
        "title": "QuestionnaireResponse",
        "entry": [ {
          "reference": "urn:uuid:0a0d7cd8-7535-4e38-ab06-28da432dcce5"
        } ]
      }, {
        "title": "QuestionnaireResponse",
        "entry": [ {
          "reference": "urn:uuid:327188d4-e650-4a1e-9b75-209245a74c27"
        } ]
      }, {
        "title": "QuestionnaireResponse",
        "entry": [ {
          "reference": "urn:uuid:66270bbf-a4b9-4bb7-86a0-0eebb1ec7463"
        } ]
      }, {
        "title": "QuestionnaireResponse",
        "entry": [ {
          "reference": "urn:uuid:20e98e77-cdc9-44d3-9e75-f7914dddd56e"
        } ]
      } ]
    }
  }, {
    "fullUrl": "urn:uuid:c972cc65-4ac2-423e-a7b9-8482c3ef93de",
    "resource": {
      "resourceType": "CarePlan",
      "id": "c972cc65-4ac2-423e-a7b9-8482c3ef93de",
      "status": "completed",
      "intent": "plan",
      "title": "ComponentTitle - Information And Advice Given",
      "subject": {
        "reference": "urn:uuid:a35ba9b9-f964-474a-94ef-411befc03ca4"
      },
      "context": {
        "reference": "urn:uuid:2fe31c00-de4a-471d-842e-696b6f9efb37"
      },
      "period": {
        "start": "2021-04-06T15:13:33+00:00",
        "end": "2021-04-06T15:19:29+00:00"
      },
      "addresses": [ {
        "reference": "urn:uuid:2ffa23fc-a5f0-4b1a-b0f2-251829d25ab1"
      } ]
    }
  }, {
    "fullUrl": "urn:uuid:baca0072-b980-4e27-941e-f3e07f7463cc",
    "resource": {
      "resourceType": "Consent",
      "id": "baca0072-b980-4e27-941e-f3e07f7463cc",
      "identifier": {
        "use": "usual",
        "value": "E2DF04F7-95CA-40AD-808D-797C0A89E39C"
      },
      "status": "active",
      "patient": {
        "reference": "urn:uuid:a35ba9b9-f964-474a-94ef-411befc03ca4"
      },
      "period": {
        "start": "2021-04-06T15:13:33+00:00",
        "end": "2021-04-06T15:19:29+00:00"
      },
      "consentingParty": [ {
        "reference": "urn:uuid:a35ba9b9-f964-474a-94ef-411befc03ca4"
      } ],
      "action": [ {
        "coding": [ {
          "system": "http://snomed.info/sct",
          "code": "425691002",
          "display": "Consent given for electronic record sharing"
        } ],
        "text": "Consent given for electronic record sharing"
      } ],
      "organization": [ {
        "reference": "urn:uuid:e9bacb70-325c-47be-9ad9-2831f58421f3"
      } ],
      "policyRule": "http://hl7.org/fhir/ConsentPolicy/opt-out",
      "data": [ {
        "meaning": "related",
        "reference": {
          "reference": "urn:uuid:2fe31c00-de4a-471d-842e-696b6f9efb37"
        }
      } ]
    }
  }, {
    "fullUrl": "urn:uuid:2ffa23fc-a5f0-4b1a-b0f2-251829d25ab1",
    "resource": {
      "resourceType": "Condition",
      "id": "2ffa23fc-a5f0-4b1a-b0f2-251829d25ab1",
      "clinicalStatus": "active",
      "verificationStatus": "unknown",
      "subject": {
        "reference": "urn:uuid:a35ba9b9-f964-474a-94ef-411befc03ca4"
      },
      "context": {
        "reference": "urn:uuid:2fe31c00-de4a-471d-842e-696b6f9efb37"
      },
      "evidence": [ {
        "detail": [ {
          "reference": "urn:uuid:58005ee3-fc6b-4d34-99f5-152b3804854b"
        } ]
      }, {
        "detail": [ {
          "reference": "urn:uuid:c82d01fc-7b15-48f4-a1ea-18fda4cd6cc1"
        } ]
      }, {
        "detail": [ {
          "reference": "urn:uuid:63ad8482-c4a6-4b0b-bbbc-4b5fcf542b57"
        } ]
      }, {
        "detail": [ {
          "reference": "urn:uuid:dd237400-21ac-4781-b5cd-720261d08ede"
        } ]
      }, {
        "detail": [ {
          "reference": "urn:uuid:669884d4-df36-4e6f-93ce-a92f4ada24a8"
        } ]
      }, {
        "detail": [ {
          "reference": "urn:uuid:85a22454-0ee5-4b04-8f8c-697a26549d7c"
        } ]
      }, {
        "detail": [ {
          "reference": "urn:uuid:af4ea69e-2a0f-49db-a6f4-249288418191"
        } ]
      }, {
        "detail": [ {
          "reference": "urn:uuid:e5097925-b616-4a4b-8e18-ef4bff14e9bc"
        } ]
      }, {
        "detail": [ {
          "reference": "urn:uuid:1ffa97dc-4ff2-4585-b08e-48ef1e313d51"
        } ]
      }, {
        "detail": [ {
          "reference": "urn:uuid:b5103307-9c5a-4e1a-913d-4871d04d2d08"
        } ]
      }, {
        "detail": [ {
          "reference": "urn:uuid:9387edd0-ca9a-45e3-bc91-de115c06e022"
        } ]
      }, {
        "detail": [ {
          "reference": "urn:uuid:0a0d7cd8-7535-4e38-ab06-28da432dcce5"
        } ]
      }, {
        "detail": [ {
          "reference": "urn:uuid:327188d4-e650-4a1e-9b75-209245a74c27"
        } ]
      }, {
        "detail": [ {
          "reference": "urn:uuid:66270bbf-a4b9-4bb7-86a0-0eebb1ec7463"
        } ]
      }, {
        "detail": [ {
          "reference": "urn:uuid:20e98e77-cdc9-44d3-9e75-f7914dddd56e"
        } ]
      } ]
    }
  }, {
    "fullUrl": "urn:uuid:58005ee3-fc6b-4d34-99f5-152b3804854b",
    "resource": {
      "resourceType": "QuestionnaireResponse",
      "id": "58005ee3-fc6b-4d34-99f5-152b3804854b",
      "identifier": {
        "value": "60319"
      },
      "questionnaire": {
        "reference": "urn:uuid:7b56f4d5-d297-4334-8a9a-d5e4d83ab1a1"
      },
      "status": "completed",
      "subject": {
        "reference": "urn:uuid:a35ba9b9-f964-474a-94ef-411befc03ca4"
      },
      "context": {
        "reference": "urn:uuid:2fe31c00-de4a-471d-842e-696b6f9efb37"
      },
      "authored": "2021-04-06T15:19:34+00:00",
      "item": [ {
        "linkId": "Tx220109",
        "text": "What is the reason for the contact?",
        "answer": [ {
          "valueString": "more"
        } ]
      } ]
    }
  }, {
    "fullUrl": "urn:uuid:7b56f4d5-d297-4334-8a9a-d5e4d83ab1a1",
    "resource": {
      "resourceType": "Questionnaire",
      "id": "7b56f4d5-d297-4334-8a9a-d5e4d83ab1a1",
      "identifier": [ {
        "value": "60319"
      } ],
      "version": "2021-04-06T15:19:34.083Z",
      "status": "active",
      "experimental": false,
      "date": "2021-04-06T15:19:34+00:00",
      "publisher": "User ID: 'HADFIELDR' User name: 'Ryan Hadfield' User skill set: 'T3'",
      "lastReviewDate": "2021-04-06",
      "contact": [ {
        "telecom": [ {
          "system": "phone",
          "value": "0111 111 1111"
        } ]
      } ],
      "subjectType": [ "Patient" ],
      "item": [ {
        "linkId": "60319",
        "prefix": "5",
        "text": "What is the reason for the contact?",
        "type": "choice",
        "required": true,
        "repeats": false,
        "option": [ {
          "valueString": "an injury or other health problem, Selected: false"
        }, {
          "valueString": "a need to access another healthcare service, Selected: false"
        }, {
          "valueString": "a healthcare professional requesting contact with another clinician, Selected: false"
        }, {
          "valueString": "a report of results or tests, Selected: false"
        }, {
          "valueString": "more, Selected: true"
        } ]
      } ]
    }
  }, {
    "fullUrl": "urn:uuid:c82d01fc-7b15-48f4-a1ea-18fda4cd6cc1",
    "resource": {
      "resourceType": "QuestionnaireResponse",
      "id": "c82d01fc-7b15-48f4-a1ea-18fda4cd6cc1",
      "identifier": {
        "value": "60319"
      },
      "questionnaire": {
        "reference": "urn:uuid:9746004b-f3eb-49af-9f1b-05e60f987403"
      },
      "status": "completed",
      "subject": {
        "reference": "urn:uuid:a35ba9b9-f964-474a-94ef-411befc03ca4"
      },
      "context": {
        "reference": "urn:uuid:2fe31c00-de4a-471d-842e-696b6f9efb37"
      },
      "authored": "2021-04-06T15:19:34+00:00",
      "item": [ {
        "linkId": "Tx221793",
        "text": "STRING:to'Social&information'-further'Callreason'menu",
        "answer": [ {
          "valueString": "\"present\""
        } ]
      } ]
    }
  }, {
    "fullUrl": "urn:uuid:9746004b-f3eb-49af-9f1b-05e60f987403",
    "resource": {
      "resourceType": "Questionnaire",
      "id": "9746004b-f3eb-49af-9f1b-05e60f987403",
      "identifier": [ {
        "value": "60319"
      } ],
      "version": "2021-04-06T15:19:34.083Z",
      "status": "active",
      "experimental": false,
      "date": "2021-04-06T15:19:34+00:00",
      "publisher": "User ID: 'HADFIELDR' User name: 'Ryan Hadfield' User skill set: 'T3'",
      "lastReviewDate": "2021-04-06",
      "contact": [ {
        "telecom": [ {
          "system": "phone",
          "value": "0111 111 1111"
        } ]
      } ],
      "subjectType": [ "Patient" ],
      "item": [ {
        "linkId": "60319",
        "prefix": "600",
        "text": "STRING:to'Social&information'-further'Callreason'menu",
        "type": "choice",
        "required": true,
        "repeats": false,
        "option": [ {
          "valueString": "\"present\", Selected: true"
        } ]
      } ]
    }
  }, {
    "fullUrl": "urn:uuid:63ad8482-c4a6-4b0b-bbbc-4b5fcf542b57",
    "resource": {
      "resourceType": "QuestionnaireResponse",
      "id": "63ad8482-c4a6-4b0b-bbbc-4b5fcf542b57",
      "identifier": {
        "value": "60319"
      },
      "questionnaire": {
        "reference": "urn:uuid:789ab57c-f1ca-4aeb-9ffd-296d4b2d67aa"
      },
      "status": "completed",
      "subject": {
        "reference": "urn:uuid:a35ba9b9-f964-474a-94ef-411befc03ca4"
      },
      "context": {
        "reference": "urn:uuid:2fe31c00-de4a-471d-842e-696b6f9efb37"
      },
      "authored": "2021-04-06T15:19:34+00:00"
    }
  }, {
    "fullUrl": "urn:uuid:789ab57c-f1ca-4aeb-9ffd-296d4b2d67aa",
    "resource": {
      "resourceType": "Questionnaire",
      "id": "789ab57c-f1ca-4aeb-9ffd-296d4b2d67aa",
      "identifier": [ {
        "value": "60319"
      } ],
      "version": "2021-04-06T15:19:34.083Z",
      "status": "active",
      "experimental": false,
      "date": "2021-04-06T15:19:34+00:00",
      "publisher": "User ID: 'HADFIELDR' User name: 'Ryan Hadfield' User skill set: 'T3'",
      "lastReviewDate": "2021-04-06",
      "contact": [ {
        "telecom": [ {
          "system": "phone",
          "value": "0111 111 1111"
        } ]
      } ],
      "subjectType": [ "Patient" ]
    }
  }, {
    "fullUrl": "urn:uuid:dd237400-21ac-4781-b5cd-720261d08ede",
    "resource": {
      "resourceType": "QuestionnaireResponse",
      "id": "dd237400-21ac-4781-b5cd-720261d08ede",
      "identifier": {
        "value": "60319"
      },
      "questionnaire": {
        "reference": "urn:uuid:f101d9e7-8f72-4fd0-a682-10262932d5bc"
      },
      "status": "completed",
      "subject": {
        "reference": "urn:uuid:a35ba9b9-f964-474a-94ef-411befc03ca4"
      },
      "context": {
        "reference": "urn:uuid:2fe31c00-de4a-471d-842e-696b6f9efb37"
      },
      "authored": "2021-04-06T15:19:34+00:00",
      "item": [ {
        "linkId": "Tx221804",
        "text": "STRING:transfertofurthermenuquestionestablishedinEntryFlow",
        "answer": [ {
          "valueString": "\"present\""
        } ]
      } ]
    }
  }, {
    "fullUrl": "urn:uuid:f101d9e7-8f72-4fd0-a682-10262932d5bc",
    "resource": {
      "resourceType": "Questionnaire",
      "id": "f101d9e7-8f72-4fd0-a682-10262932d5bc",
      "identifier": [ {
        "value": "60319"
      } ],
      "version": "2021-04-06T15:19:34.083Z",
      "status": "active",
      "experimental": false,
      "date": "2021-04-06T15:19:34+00:00",
      "publisher": "User ID: 'HADFIELDR' User name: 'Ryan Hadfield' User skill set: 'T3'",
      "lastReviewDate": "2021-04-06",
      "contact": [ {
        "telecom": [ {
          "system": "phone",
          "value": "0111 111 1111"
        } ]
      } ],
      "subjectType": [ "Patient" ],
      "item": [ {
        "linkId": "60319",
        "prefix": "41",
        "text": "STRING:transfertofurthermenuquestionestablishedinEntryFlow",
        "type": "choice",
        "required": true,
        "repeats": false,
        "option": [ {
          "valueString": "\"present\", Selected: true"
        } ]
      } ]
    }
  }, {
    "fullUrl": "urn:uuid:669884d4-df36-4e6f-93ce-a92f4ada24a8",
    "resource": {
      "resourceType": "QuestionnaireResponse",
      "id": "669884d4-df36-4e6f-93ce-a92f4ada24a8",
      "identifier": {
        "value": "60319"
      },
      "questionnaire": {
        "reference": "urn:uuid:294f5919-f52b-4eea-bc40-6310608d009a"
      },
      "status": "completed",
      "subject": {
        "reference": "urn:uuid:a35ba9b9-f964-474a-94ef-411befc03ca4"
      },
      "context": {
        "reference": "urn:uuid:2fe31c00-de4a-471d-842e-696b6f9efb37"
      },
      "authored": "2021-04-06T15:19:34+00:00",
      "item": [ {
        "linkId": "Tx224998",
        "text": "SYSTEM_COVIDLEVEL2",
        "answer": [ {
          "valueString": "==\"covidlevel2\""
        } ]
      } ]
    }
  }, {
    "fullUrl": "urn:uuid:294f5919-f52b-4eea-bc40-6310608d009a",
    "resource": {
      "resourceType": "Questionnaire",
      "id": "294f5919-f52b-4eea-bc40-6310608d009a",
      "identifier": [ {
        "value": "60319"
      } ],
      "version": "2021-04-06T15:19:34.083Z",
      "status": "active",
      "experimental": false,
      "date": "2021-04-06T15:19:34+00:00",
      "publisher": "User ID: 'HADFIELDR' User name: 'Ryan Hadfield' User skill set: 'T3'",
      "lastReviewDate": "2021-04-06",
      "contact": [ {
        "telecom": [ {
          "system": "phone",
          "value": "0111 111 1111"
        } ]
      } ],
      "subjectType": [ "Patient" ],
      "item": [ {
        "linkId": "60319",
        "prefix": "5900",
        "text": "SYSTEM_COVIDLEVEL2",
        "type": "choice",
        "required": true,
        "repeats": false,
        "option": [ {
          "valueString": "==\"covidlevel2\", Selected: true"
        }, {
          "valueString": "*, Selected: false"
        } ]
      } ]
    }
  }, {
    "fullUrl": "urn:uuid:85a22454-0ee5-4b04-8f8c-697a26549d7c",
    "resource": {
      "resourceType": "QuestionnaireResponse",
      "id": "85a22454-0ee5-4b04-8f8c-697a26549d7c",
      "identifier": {
        "value": "60319"
      },
      "questionnaire": {
        "reference": "urn:uuid:836975a9-49be-4c8e-9de1-7745bbefa619"
      },
      "status": "completed",
      "subject": {
        "reference": "urn:uuid:a35ba9b9-f964-474a-94ef-411befc03ca4"
      },
      "context": {
        "reference": "urn:uuid:2fe31c00-de4a-471d-842e-696b6f9efb37"
      },
      "authored": "2021-04-06T15:19:34+00:00",
      "item": [ {
        "linkId": "Tx225069",
        "text": "What is the reason for the contact?",
        "answer": [ {
          "valueString": "a prescription request"
        } ]
      } ]
    }
  }, {
    "fullUrl": "urn:uuid:836975a9-49be-4c8e-9de1-7745bbefa619",
    "resource": {
      "resourceType": "Questionnaire",
      "id": "836975a9-49be-4c8e-9de1-7745bbefa619",
      "identifier": [ {
        "value": "60319"
      } ],
      "version": "2021-04-06T15:19:34.083Z",
      "status": "active",
      "experimental": false,
      "date": "2021-04-06T15:19:34+00:00",
      "publisher": "User ID: 'HADFIELDR' User name: 'Ryan Hadfield' User skill set: 'T3'",
      "lastReviewDate": "2021-04-06",
      "contact": [ {
        "telecom": [ {
          "system": "phone",
          "value": "0111 111 1111"
        } ]
      } ],
      "subjectType": [ "Patient" ],
      "item": [ {
        "linkId": "60319",
        "prefix": "6000",
        "text": "What is the reason for the contact?",
        "type": "choice",
        "required": true,
        "repeats": false,
        "option": [ {
          "valueString": "a child protection/vulnerable adult concern (specify), Selected: false"
        }, {
          "valueString": "a social or domestic emergency, Selected: false"
        }, {
          "valueString": "a prescription request, Selected: true"
        }, {
          "valueString": "an appointment request, Selected: false"
        }, {
          "valueString": "a request for health or medication information, Selected: false"
        }, {
          "valueString": "public health alert information, Selected: false"
        } ]
      } ]
    }
  }, {
    "fullUrl": "urn:uuid:af4ea69e-2a0f-49db-a6f4-249288418191",
    "resource": {
      "resourceType": "QuestionnaireResponse",
      "id": "af4ea69e-2a0f-49db-a6f4-249288418191",
      "identifier": {
        "value": "60319"
      },
      "questionnaire": {
        "reference": "urn:uuid:bca5569b-8f3a-46df-bbec-e5443a59c12e"
      },
      "status": "completed",
      "subject": {
        "reference": "urn:uuid:a35ba9b9-f964-474a-94ef-411befc03ca4"
      },
      "context": {
        "reference": "urn:uuid:2fe31c00-de4a-471d-842e-696b6f9efb37"
      },
      "authored": "2021-04-06T15:19:34+00:00",
      "item": [ {
        "linkId": "Tx220957",
        "text": "Is this contact about a new or worsening illness?",
        "answer": [ {
          "valueString": "no"
        } ]
      } ]
    }
  }, {
    "fullUrl": "urn:uuid:bca5569b-8f3a-46df-bbec-e5443a59c12e",
    "resource": {
      "resourceType": "Questionnaire",
      "id": "bca5569b-8f3a-46df-bbec-e5443a59c12e",
      "identifier": [ {
        "value": "60319"
      } ],
      "version": "2021-04-06T15:19:34.083Z",
      "status": "active",
      "experimental": false,
      "date": "2021-04-06T15:19:34+00:00",
      "publisher": "User ID: 'HADFIELDR' User name: 'Ryan Hadfield' User skill set: 'T3'",
      "lastReviewDate": "2021-04-06",
      "contact": [ {
        "telecom": [ {
          "system": "phone",
          "value": "0111 111 1111"
        } ]
      } ],
      "subjectType": [ "Patient" ],
      "item": [ {
        "linkId": "60319",
        "prefix": "1400",
        "text": "Is this contact about a new or worsening illness?",
        "type": "choice",
        "required": true,
        "repeats": false,
        "option": [ {
          "valueString": "yes, Selected: false"
        }, {
          "valueString": "not sure, Selected: false"
        }, {
          "valueString": "no, Selected: true"
        } ]
      } ]
    }
  }, {
    "fullUrl": "urn:uuid:e5097925-b616-4a4b-8e18-ef4bff14e9bc",
    "resource": {
      "resourceType": "QuestionnaireResponse",
      "id": "e5097925-b616-4a4b-8e18-ef4bff14e9bc",
      "identifier": {
        "value": "60319"
      },
      "questionnaire": {
        "reference": "urn:uuid:d56b54b5-01cb-44f0-bd6c-dbbaa6b23d80"
      },
      "status": "completed",
      "subject": {
        "reference": "urn:uuid:a35ba9b9-f964-474a-94ef-411befc03ca4"
      },
      "context": {
        "reference": "urn:uuid:2fe31c00-de4a-471d-842e-696b6f9efb37"
      },
      "authored": "2021-04-06T15:19:34+00:00",
      "item": [ {
        "linkId": "Tx221352",
        "text": "Have you got enough medication to last until the surgery opens?",
        "answer": [ {
          "valueString": "no"
        } ]
      } ]
    }
  }, {
    "fullUrl": "urn:uuid:d56b54b5-01cb-44f0-bd6c-dbbaa6b23d80",
    "resource": {
      "resourceType": "Questionnaire",
      "id": "d56b54b5-01cb-44f0-bd6c-dbbaa6b23d80",
      "identifier": [ {
        "value": "60319"
      } ],
      "version": "2021-04-06T15:19:34.083Z",
      "status": "active",
      "experimental": false,
      "date": "2021-04-06T15:19:34+00:00",
      "publisher": "User ID: 'HADFIELDR' User name: 'Ryan Hadfield' User skill set: 'T3'",
      "lastReviewDate": "2021-04-06",
      "contact": [ {
        "telecom": [ {
          "system": "phone",
          "value": "0111 111 1111"
        } ]
      } ],
      "subjectType": [ "Patient" ],
      "item": [ {
        "linkId": "60319",
        "prefix": "1500",
        "text": "Have you got enough medication to last until the surgery opens?",
        "type": "choice",
        "required": true,
        "repeats": false,
        "option": [ {
          "valueString": "yes, Selected: false"
        }, {
          "valueString": "not sure, Selected: false"
        }, {
          "valueString": "no, Selected: true"
        } ]
      } ]
    }
  }, {
    "fullUrl": "urn:uuid:1ffa97dc-4ff2-4585-b08e-48ef1e313d51",
    "resource": {
      "resourceType": "QuestionnaireResponse",
      "id": "1ffa97dc-4ff2-4585-b08e-48ef1e313d51",
      "identifier": {
        "value": "60319"
      },
      "questionnaire": {
        "reference": "urn:uuid:235ba11f-4fb1-44f3-b5f3-7736a7702b08"
      },
      "status": "completed",
      "subject": {
        "reference": "urn:uuid:a35ba9b9-f964-474a-94ef-411befc03ca4"
      },
      "context": {
        "reference": "urn:uuid:2fe31c00-de4a-471d-842e-696b6f9efb37"
      },
      "authored": "2021-04-06T15:19:34+00:00"
    }
  }, {
    "fullUrl": "urn:uuid:235ba11f-4fb1-44f3-b5f3-7736a7702b08",
    "resource": {
      "resourceType": "Questionnaire",
      "id": "235ba11f-4fb1-44f3-b5f3-7736a7702b08",
      "identifier": [ {
        "value": "60319"
      } ],
      "version": "2021-04-06T15:19:34.083Z",
      "status": "active",
      "experimental": false,
      "date": "2021-04-06T15:19:34+00:00",
      "publisher": "User ID: 'HADFIELDR' User name: 'Ryan Hadfield' User skill set: 'T3'",
      "lastReviewDate": "2021-04-06",
      "contact": [ {
        "telecom": [ {
          "system": "phone",
          "value": "0111 111 1111"
        } ]
      } ],
      "subjectType": [ "Patient" ]
    }
  }, {
    "fullUrl": "urn:uuid:b5103307-9c5a-4e1a-913d-4871d04d2d08",
    "resource": {
      "resourceType": "QuestionnaireResponse",
      "id": "b5103307-9c5a-4e1a-913d-4871d04d2d08",
      "identifier": {
        "value": "60319"
      },
      "questionnaire": {
        "reference": "urn:uuid:ad4461c3-6b7b-43c7-a9bd-4f4b3ad0d732"
      },
      "status": "completed",
      "subject": {
        "reference": "urn:uuid:a35ba9b9-f964-474a-94ef-411befc03ca4"
      },
      "context": {
        "reference": "urn:uuid:2fe31c00-de4a-471d-842e-696b6f9efb37"
      },
      "authored": "2021-04-06T15:19:34+00:00",
      "item": [ {
        "linkId": "Tx224231",
        "text": "FROM WHAT YOU HAVE HEARD IS A CONSULTATION WITH A PRESCRIBER NEEDED?",
        "answer": [ {
          "valueString": "no"
        } ]
      } ]
    }
  }, {
    "fullUrl": "urn:uuid:ad4461c3-6b7b-43c7-a9bd-4f4b3ad0d732",
    "resource": {
      "resourceType": "Questionnaire",
      "id": "ad4461c3-6b7b-43c7-a9bd-4f4b3ad0d732",
      "identifier": [ {
        "value": "60319"
      } ],
      "version": "2021-04-06T15:19:34.083Z",
      "status": "active",
      "experimental": false,
      "date": "2021-04-06T15:19:34+00:00",
      "publisher": "User ID: 'HADFIELDR' User name: 'Ryan Hadfield' User skill set: 'T3'",
      "lastReviewDate": "2021-04-06",
      "contact": [ {
        "telecom": [ {
          "system": "phone",
          "value": "0111 111 1111"
        } ]
      } ],
      "subjectType": [ "Patient" ],
      "item": [ {
        "linkId": "60319",
        "prefix": "0",
        "text": "FROM WHAT YOU HAVE HEARD IS A CONSULTATION WITH A PRESCRIBER NEEDED?",
        "type": "choice",
        "required": true,
        "repeats": false,
        "option": [ {
          "valueString": "yes, Selected: false"
        }, {
          "valueString": "not sure, Selected: false"
        }, {
          "valueString": "no, Selected: true"
        } ]
      } ]
    }
  }, {
    "fullUrl": "urn:uuid:9387edd0-ca9a-45e3-bc91-de115c06e022",
    "resource": {
      "resourceType": "QuestionnaireResponse",
      "id": "9387edd0-ca9a-45e3-bc91-de115c06e022",
      "identifier": {
        "value": "60319"
      },
      "questionnaire": {
        "reference": "urn:uuid:e3e45c32-b379-4ca1-aec2-e9c8b8e49da1"
      },
      "status": "completed",
      "subject": {
        "reference": "urn:uuid:a35ba9b9-f964-474a-94ef-411befc03ca4"
      },
      "context": {
        "reference": "urn:uuid:2fe31c00-de4a-471d-842e-696b6f9efb37"
      },
      "authored": "2021-04-06T15:19:34+00:00",
      "item": [ {
        "linkId": "Tx222687",
        "text": "Have you got any of the medication available at the moment?",
        "answer": [ {
          "valueString": "no"
        } ]
      } ]
    }
  }, {
    "fullUrl": "urn:uuid:e3e45c32-b379-4ca1-aec2-e9c8b8e49da1",
    "resource": {
      "resourceType": "Questionnaire",
      "id": "e3e45c32-b379-4ca1-aec2-e9c8b8e49da1",
      "identifier": [ {
        "value": "60319"
      } ],
      "version": "2021-04-06T15:19:34.083Z",
      "status": "active",
      "experimental": false,
      "date": "2021-04-06T15:19:34+00:00",
      "publisher": "User ID: 'HADFIELDR' User name: 'Ryan Hadfield' User skill set: 'T3'",
      "lastReviewDate": "2021-04-06",
      "contact": [ {
        "telecom": [ {
          "system": "phone",
          "value": "0111 111 1111"
        } ]
      } ],
      "subjectType": [ "Patient" ],
      "item": [ {
        "linkId": "60319",
        "prefix": "200",
        "text": "Have you got any of the medication available at the moment?",
        "type": "choice",
        "required": true,
        "repeats": false,
        "option": [ {
          "valueString": "yes, Selected: false"
        }, {
          "valueString": "not sure, Selected: false"
        }, {
          "valueString": "no, Selected: true"
        } ]
      } ]
    }
  }, {
    "fullUrl": "urn:uuid:0a0d7cd8-7535-4e38-ab06-28da432dcce5",
    "resource": {
      "resourceType": "QuestionnaireResponse",
      "id": "0a0d7cd8-7535-4e38-ab06-28da432dcce5",
      "identifier": {
        "value": "60319"
      },
      "questionnaire": {
        "reference": "urn:uuid:6bb44eda-98d2-4940-8e1f-7012138d1c99"
      },
      "status": "completed",
      "subject": {
        "reference": "urn:uuid:a35ba9b9-f964-474a-94ef-411befc03ca4"
      },
      "context": {
        "reference": "urn:uuid:2fe31c00-de4a-471d-842e-696b6f9efb37"
      },
      "authored": "2021-04-06T15:19:34+00:00",
      "item": [ {
        "linkId": "Tx221367",
        "text": "When is the next dose due?",
        "answer": [ {
          "valueString": "over 12 hours time"
        } ]
      } ]
    }
  }, {
    "fullUrl": "urn:uuid:6bb44eda-98d2-4940-8e1f-7012138d1c99",
    "resource": {
      "resourceType": "Questionnaire",
      "id": "6bb44eda-98d2-4940-8e1f-7012138d1c99",
      "identifier": [ {
        "value": "60319"
      } ],
      "version": "2021-04-06T15:19:34.083Z",
      "status": "active",
      "experimental": false,
      "date": "2021-04-06T15:19:34+00:00",
      "publisher": "User ID: 'HADFIELDR' User name: 'Ryan Hadfield' User skill set: 'T3'",
      "lastReviewDate": "2021-04-06",
      "contact": [ {
        "telecom": [ {
          "system": "phone",
          "value": "0111 111 1111"
        } ]
      } ],
      "subjectType": [ "Patient" ],
      "item": [ {
        "linkId": "60319",
        "prefix": "100",
        "text": "When is the next dose due?",
        "type": "choice",
        "required": true,
        "repeats": false,
        "option": [ {
          "valueString": "within the next 2 hours, Selected: false"
        }, {
          "valueString": "within the next 6 hours, Selected: false"
        }, {
          "valueString": "within the next 12 hours, Selected: false"
        }, {
          "valueString": "over 12 hours time, Selected: true"
        }, {
          "valueString": "not sure, Selected: false"
        } ]
      } ]
    }
  }, {
    "fullUrl": "urn:uuid:327188d4-e650-4a1e-9b75-209245a74c27",
    "resource": {
      "resourceType": "QuestionnaireResponse",
      "id": "327188d4-e650-4a1e-9b75-209245a74c27",
      "identifier": {
        "value": "60319"
      },
      "questionnaire": {
        "reference": "urn:uuid:3f8b5a56-2165-46d8-9b2f-96b781377757"
      },
      "status": "completed",
      "subject": {
        "reference": "urn:uuid:a35ba9b9-f964-474a-94ef-411befc03ca4"
      },
      "context": {
        "reference": "urn:uuid:2fe31c00-de4a-471d-842e-696b6f9efb37"
      },
      "authored": "2021-04-06T15:19:34+00:00",
      "item": [ {
        "linkId": "Tx223441",
        "text": "STRING:SDPCRepeatPrescription",
        "answer": [ {
          "valueString": "\"PC repeat prescription\""
        } ]
      } ]
    }
  }, {
    "fullUrl": "urn:uuid:3f8b5a56-2165-46d8-9b2f-96b781377757",
    "resource": {
      "resourceType": "Questionnaire",
      "id": "3f8b5a56-2165-46d8-9b2f-96b781377757",
      "identifier": [ {
        "value": "60319"
      } ],
      "version": "2021-04-06T15:19:34.083Z",
      "status": "active",
      "experimental": false,
      "date": "2021-04-06T15:19:34+00:00",
      "publisher": "User ID: 'HADFIELDR' User name: 'Ryan Hadfield' User skill set: 'T3'",
      "lastReviewDate": "2021-04-06",
      "contact": [ {
        "telecom": [ {
          "system": "phone",
          "value": "0111 111 1111"
        } ]
      } ],
      "subjectType": [ "Patient" ],
      "item": [ {
        "linkId": "60319",
        "prefix": "1100",
        "text": "STRING:SDPCRepeatPrescription",
        "type": "choice",
        "required": true,
        "repeats": false,
        "option": [ {
          "valueString": "\"PC repeat prescription\", Selected: true"
        } ]
      } ]
    }
  }, {
    "fullUrl": "urn:uuid:66270bbf-a4b9-4bb7-86a0-0eebb1ec7463",
    "resource": {
      "resourceType": "QuestionnaireResponse",
      "id": "66270bbf-a4b9-4bb7-86a0-0eebb1ec7463",
      "identifier": {
        "value": "60319"
      },
      "questionnaire": {
        "reference": "urn:uuid:5dbb2b32-59e7-4e7c-8740-d18f81ebee18"
      },
      "status": "completed",
      "subject": {
        "reference": "urn:uuid:a35ba9b9-f964-474a-94ef-411befc03ca4"
      },
      "context": {
        "reference": "urn:uuid:2fe31c00-de4a-471d-842e-696b6f9efb37"
      },
      "authored": "2021-04-06T15:19:34+00:00"
    }
  }, {
    "fullUrl": "urn:uuid:5dbb2b32-59e7-4e7c-8740-d18f81ebee18",
    "resource": {
      "resourceType": "Questionnaire",
      "id": "5dbb2b32-59e7-4e7c-8740-d18f81ebee18",
      "identifier": [ {
        "value": "60319"
      } ],
      "version": "2021-04-06T15:19:34.083Z",
      "status": "active",
      "experimental": false,
      "date": "2021-04-06T15:19:34+00:00",
      "publisher": "User ID: 'HADFIELDR' User name: 'Ryan Hadfield' User skill set: 'T3'",
      "lastReviewDate": "2021-04-06",
      "contact": [ {
        "telecom": [ {
          "system": "phone",
          "value": "0111 111 1111"
        } ]
      } ],
      "subjectType": [ "Patient" ]
    }
  }, {
    "fullUrl": "urn:uuid:20e98e77-cdc9-44d3-9e75-f7914dddd56e",
    "resource": {
      "resourceType": "QuestionnaireResponse",
      "id": "20e98e77-cdc9-44d3-9e75-f7914dddd56e",
      "identifier": {
        "value": "60319"
      },
      "questionnaire": {
        "reference": "urn:uuid:98d2252f-3281-496c-bc9e-31e6eacd2a2f"
      },
      "status": "completed",
      "subject": {
        "reference": "urn:uuid:a35ba9b9-f964-474a-94ef-411befc03ca4"
      },
      "context": {
        "reference": "urn:uuid:2fe31c00-de4a-471d-842e-696b6f9efb37"
      },
      "authored": "2021-04-06T15:19:34+00:00"
    }
  }, {
    "fullUrl": "urn:uuid:98d2252f-3281-496c-bc9e-31e6eacd2a2f",
    "resource": {
      "resourceType": "Questionnaire",
      "id": "98d2252f-3281-496c-bc9e-31e6eacd2a2f",
      "identifier": [ {
        "value": "60319"
      } ],
      "version": "2021-04-06T15:19:34.083Z",
      "status": "active",
      "experimental": false,
      "date": "2021-04-06T15:19:34+00:00",
      "publisher": "User ID: 'HADFIELDR' User name: 'Ryan Hadfield' User skill set: 'T3'",
      "lastReviewDate": "2021-04-06",
      "contact": [ {
        "telecom": [ {
          "system": "phone",
          "value": "0111 111 1111"
        } ]
      } ],
      "subjectType": [ "Patient" ]
    }
  }, {
    "fullUrl": "urn:uuid:6fa290ef-b242-450d-9ffd-1a5ed01e8385",
    "resource": {
      "resourceType": "PractitionerRole",
      "id": "6fa290ef-b242-450d-9ffd-1a5ed01e8385",
      "practitioner": {
        "reference": "urn:uuid:d4f3af15-5c45-4c32-bf81-aa03c8e6ef16"
      },
      "organization": {
        "reference": "urn:uuid:f45d63fa-caf1-44d8-92be-2bcce2211617"
      },
      "code": [ {
        "coding": [ {
          "system": "2.16.840.1.113883.2.1.3.2.4.17.339",
          "code": "DOCTOR",
          "display": "Doctor"
        } ]
      } ]
    }
  }, {
    "fullUrl": "urn:uuid:f45d63fa-caf1-44d8-92be-2bcce2211617",
    "resource": {
      "resourceType": "Organization",
      "id": "f45d63fa-caf1-44d8-92be-2bcce2211617",
      "identifier": [ {
        "value": "RYE"
      } ],
      "name": "RepresentedOrg Name"
    }
  }, {
    "fullUrl": "urn:uuid:502ed506-8836-4f01-92ab-851ab91d2f35",
    "resource": {
      "resourceType": "PractitionerRole",
      "id": "502ed506-8836-4f01-92ab-851ab91d2f35",
      "practitioner": {
        "reference": "urn:uuid:cb4f16d2-3c0a-4f6d-b07a-845e74da601b"
      },
      "organization": {
        "reference": "urn:uuid:dcfa3c1f-7e06-4661-b73d-3b55144427c7"
      },
      "code": [ {
        "coding": [ {
          "system": "2.16.840.1.113883.2.1.3.2.4.17.196",
          "code": "R0010",
          "display": "Medical Director"
        } ]
      } ]
    }
  }, {
    "fullUrl": "urn:uuid:dcfa3c1f-7e06-4661-b73d-3b55144427c7",
    "resource": {
      "resourceType": "Organization",
      "id": "dcfa3c1f-7e06-4661-b73d-3b55144427c7",
      "identifier": [ {
        "value": "RYE"
      } ],
      "name": "RepresentedOrgNameRYE"
    }
  }, {
    "fullUrl": "urn:uuid:40b8ea6b-a091-4213-bc4a-36f27e452aec",
    "resource": {
      "resourceType": "RelatedPerson",
      "id": "40b8ea6b-a091-4213-bc4a-36f27e452aec",
      "patient": {
        "reference": "urn:uuid:a35ba9b9-f964-474a-94ef-411befc03ca4"
      },
      "relationship": {
        "coding": [ {
          "system": "http://hl7.org/fhir/v2/0131",
          "code": "C",
          "display": "Emergency Contact"
        } ]
      },
      "telecom": [ {
        "system": "phone",
        "value": "tel:000000000000"
      } ]
    }
  }, {
    "fullUrl": "urn:uuid:f1ceb436-2cad-488a-8db9-a732681fcc76",
    "resource": {
      "resourceType": "Device",
      "id": "f1ceb436-2cad-488a-8db9-a732681fcc76",
      "model": "111 Adaptor",
      "version": "1.0.3"
    }
  }, {
    "fullUrl": "urn:uuid:102f8ba3-14d0-41f8-bd84-f07eed4e373e",
    "resource": {
      "resourceType": "List",
      "id": "102f8ba3-14d0-41f8-bd84-f07eed4e373e",
      "status": "current",
      "mode": "working",
      "title": "111 Report List",
      "code": {
        "coding": [ {
          "system": "http://snomed.info/sct",
          "code": "225390008",
          "display": "Triage"
        } ]
      },
      "subject": {
        "reference": "urn:uuid:a35ba9b9-f964-474a-94ef-411befc03ca4"
      },
      "encounter": {
        "reference": "urn:uuid:2fe31c00-de4a-471d-842e-696b6f9efb37"
      },
      "date": "2021-04-06T15:19:34+00:00",
      "source": {
        "reference": "urn:uuid:f1ceb436-2cad-488a-8db9-a732681fcc76"
      },
      "orderedBy": {
        "coding": [ {
          "system": "http://hl7.org/fhir/list-order",
          "code": "event-date",
          "display": "Sorted by Event Date"
        } ]
      },
      "entry": [ {
        "item": {
          "reference": "urn:uuid:d4f3af15-5c45-4c32-bf81-aa03c8e6ef16"
        }
      }, {
        "item": {
          "reference": "urn:uuid:f45d63fa-caf1-44d8-92be-2bcce2211617"
        }
      }, {
        "item": {
          "reference": "urn:uuid:40b8ea6b-a091-4213-bc4a-36f27e452aec"
        }
      }, {
        "item": {
          "reference": "urn:uuid:cb4f16d2-3c0a-4f6d-b07a-845e74da601b"
        }
      }, {
        "item": {
          "reference": "urn:uuid:2ffa23fc-a5f0-4b1a-b0f2-251829d25ab1"
        }
      }, {
        "item": {
          "reference": "urn:uuid:dcfa3c1f-7e06-4661-b73d-3b55144427c7"
        }
      }, {
        "item": {
          "reference": "urn:uuid:f6c76f14-4aa4-4acc-99a5-043a91dfdb04"
        }
      }, {
        "item": {
          "reference": "urn:uuid:e9bacb70-325c-47be-9ad9-2831f58421f3"
        }
      }, {
        "item": {
          "reference": "urn:uuid:b4419eca-bac8-4053-8ba2-735801b3f711"
        }
      }, {
        "item": {
          "reference": "urn:uuid:669884d4-df36-4e6f-93ce-a92f4ada24a8"
        }
      }, {
        "item": {
          "reference": "urn:uuid:ad4461c3-6b7b-43c7-a9bd-4f4b3ad0d732"
        }
      }, {
        "item": {
          "reference": "urn:uuid:7b56f4d5-d297-4334-8a9a-d5e4d83ab1a1"
        }
      }, {
        "item": {
          "reference": "urn:uuid:6bb44eda-98d2-4940-8e1f-7012138d1c99"
        }
      }, {
        "item": {
          "reference": "urn:uuid:66270bbf-a4b9-4bb7-86a0-0eebb1ec7463"
        }
      }, {
        "item": {
          "reference": "urn:uuid:9387edd0-ca9a-45e3-bc91-de115c06e022"
        }
      }, {
        "item": {
          "reference": "urn:uuid:836975a9-49be-4c8e-9de1-7745bbefa619"
        }
      }, {
        "item": {
          "reference": "urn:uuid:235ba11f-4fb1-44f3-b5f3-7736a7702b08"
        }
      }, {
        "item": {
          "reference": "urn:uuid:e5097925-b616-4a4b-8e18-ef4bff14e9bc"
        }
      }, {
        "item": {
          "reference": "urn:uuid:bca5569b-8f3a-46df-bbec-e5443a59c12e"
        }
      }, {
        "item": {
          "reference": "urn:uuid:58005ee3-fc6b-4d34-99f5-152b3804854b"
        }
      }, {
        "item": {
          "reference": "urn:uuid:0a0d7cd8-7535-4e38-ab06-28da432dcce5"
        }
      }, {
        "item": {
          "reference": "urn:uuid:c82d01fc-7b15-48f4-a1ea-18fda4cd6cc1"
        }
      }, {
        "item": {
          "reference": "urn:uuid:3f8b5a56-2165-46d8-9b2f-96b781377757"
        }
      }, {
        "item": {
          "reference": "urn:uuid:e3e45c32-b379-4ca1-aec2-e9c8b8e49da1"
        }
      }, {
        "item": {
          "reference": "urn:uuid:98d2252f-3281-496c-bc9e-31e6eacd2a2f"
        }
      }, {
        "item": {
          "reference": "urn:uuid:f101d9e7-8f72-4fd0-a682-10262932d5bc"
        }
      }, {
        "item": {
          "reference": "urn:uuid:9746004b-f3eb-49af-9f1b-05e60f987403"
        }
      }, {
        "item": {
          "reference": "urn:uuid:d56b54b5-01cb-44f0-bd6c-dbbaa6b23d80"
        }
      }, {
        "item": {
          "reference": "urn:uuid:63ad8482-c4a6-4b0b-bbbc-4b5fcf542b57"
        }
      }, {
        "item": {
          "reference": "urn:uuid:5dbb2b32-59e7-4e7c-8740-d18f81ebee18"
        }
      }, {
        "item": {
          "reference": "urn:uuid:85a22454-0ee5-4b04-8f8c-697a26549d7c"
        }
      }, {
        "item": {
          "reference": "urn:uuid:789ab57c-f1ca-4aeb-9ffd-296d4b2d67aa"
        }
      }, {
        "item": {
          "reference": "urn:uuid:1ffa97dc-4ff2-4585-b08e-48ef1e313d51"
        }
      }, {
        "item": {
          "reference": "urn:uuid:af4ea69e-2a0f-49db-a6f4-249288418191"
        }
      }, {
        "item": {
          "reference": "urn:uuid:327188d4-e650-4a1e-9b75-209245a74c27"
        }
      }, {
        "item": {
          "reference": "urn:uuid:20e98e77-cdc9-44d3-9e75-f7914dddd56e"
        }
      }, {
        "item": {
          "reference": "urn:uuid:dd237400-21ac-4781-b5cd-720261d08ede"
        }
      }, {
        "item": {
          "reference": "urn:uuid:b5103307-9c5a-4e1a-913d-4871d04d2d08"
        }
      }, {
        "item": {
          "reference": "urn:uuid:294f5919-f52b-4eea-bc40-6310608d009a"
        }
      }, {
        "item": {
          "reference": "urn:uuid:d1ff2ef5-c77e-4e43-97a2-640fafaf2d6f"
        }
      } ]
    }
  } ]
}