{
  "resourceType": "Bundle",
  "identifier": {
    "type": {
      "text": "ClinicalDocument VersionNumber"
    },
    "value": "1"
  },
  "type": "message",
  "entry": [ {
    "fullUrl": "urn:uuid:F7916D36-4D5F-4A64-BD08-644E8A234AE2",
    "resource": {
      "resourceType": "MessageHeader",
      "id": "F7916D36-4D5F-4A64-BD08-644E8A234AE2",
      "event": {
        "system": "https://fhir.nhs.uk/STU3/CodeSystem/EventType-1",
        "code": "referral-1",
        "display": "Referral"
      },
      "destination": [ {
        "endpoint": "urn:nhs-uk:addressing:ods:NVE06:DOSServiceID:1335970392"
      } ],
      "timestamp": "2021-05-13T17:24:56.000+00:00",
      "source": {
        "name": "NHS 111 Adaptor",
        "endpoint": "http://localhost:8080/report"
      },
      "reason": {
        "coding": [ {
          "system": "urn:nhs-itk:ns:201005:interaction",
          "code": "urn:nhs-itk:interaction:primaryOutofHourRecipientNHS111CDADocument-v2-0"
        } ]
      }
    }
  }, {
    "fullUrl": "urn:uuid:ae27d978-5038-4f07-84ac-af3193428b4c",
    "resource": {
      "resourceType": "Encounter",
      "id": "ae27d978-5038-4f07-84ac-af3193428b4c",
      "identifier": [ {
        "system": "2.16.840.1.113883.2.1.3.2.4.18.34",
        "value": "2DBAE50F-F88C-4572-9866-F94FE0F1F25A"
      }, {
        "system": "2.16.840.1.113883.2.1.3.2.4.18.35",
        "value": "2100310450"
      } ],
      "status": "finished",
      "type": [ {
        "text": "111 Encounter Referral"
      } ],
      "subject": {
        "reference": "urn:uuid:69cedc73-db65-4312-8cd6-e4296d2759e3"
      },
      "participant": [ {
        "type": [ {
          "coding": [ {
            "system": "http://hl7.org/fhir/ValueSet/encounter-participant-type",
            "code": "PPRF",
            "display": "Author"
          } ]
        } ],
        "individual": {
          "reference": "urn:uuid:83d871d9-674b-4e51-b378-4921514a1e59"
        }
      }, {
        "type": [ {
          "text": "Informant"
        } ],
        "individual": {
          "reference": "urn:uuid:01c395f7-637f-42af-a40a-918605eb63e0"
        }
      } ],
      "period": {
        "start": "2021-05-13T17:24:56+00:00"
      },
      "location": [ {
        "location": {
          "reference": "urn:uuid:8c645e2d-d0c3-44e0-9286-87b113f8aebe"
        },
        "status": "active"
      }, {
        "location": {
          "reference": "urn:uuid:e03c6bf2-2151-4d30-a3cd-2317cb32370e"
        },
        "status": "completed"
      } ],
      "serviceProvider": {
        "reference": "urn:uuid:a88decf0-cd7c-4edb-bdb5-914b276e9779"
      }
    }
  }, {
    "fullUrl": "urn:uuid:a88decf0-cd7c-4edb-bdb5-914b276e9779",
    "resource": {
      "resourceType": "Organization",
      "id": "a88decf0-cd7c-4edb-bdb5-914b276e9779",
      "active": true,
      "type": [ {
        "text": "CST"
      } ],
      "name": "Norfolk and Wisbech 111"
    }
  }, {
    "fullUrl": "urn:uuid:83d871d9-674b-4e51-b378-4921514a1e59",
    "resource": {
      "resourceType": "Practitioner",
      "id": "83d871d9-674b-4e51-b378-4921514a1e59",
      "active": true,
      "name": [ {
        "text": "Ben Smythson"
      } ]
    }
  }, {
    "fullUrl": "urn:uuid:01c395f7-637f-42af-a40a-918605eb63e0",
    "resource": {
      "resourceType": "RelatedPerson",
      "id": "01c395f7-637f-42af-a40a-918605eb63e0",
      "active": true,
      "patient": {
        "reference": "urn:uuid:69cedc73-db65-4312-8cd6-e4296d2759e3"
      },
      "relationship": {
        "coding": [ {
          "system": "2.16.840.1.113883.2.1.3.2.4.16.45",
          "code": "21",
          "display": "Self"
        }, {
          "system": "http://hl7.org/fhir/v2/0131",
          "code": "C",
          "display": "Emergency Contact"
        } ]
      },
      "name": [ {
        "text": "Test Call Dx10 TEST CALL DX10"
      } ],
      "telecom": [ {
        "system": "phone",
        "value": "tel:01233123123"
      } ],
      "gender": "unknown"
    }
  }, {
    "fullUrl": "urn:uuid:8c645e2d-d0c3-44e0-9286-87b113f8aebe",
    "resource": {
      "resourceType": "Location",
      "id": "8c645e2d-d0c3-44e0-9286-87b113f8aebe",
      "managingOrganization": {
        "reference": "urn:uuid:36e56509-20e9-47a1-a7c1-a757e9a38ffd"
      }
    }
  }, {
    "fullUrl": "urn:uuid:36e56509-20e9-47a1-a7c1-a757e9a38ffd",
    "resource": {
      "resourceType": "Organization",
      "id": "36e56509-20e9-47a1-a7c1-a757e9a38ffd",
      "identifier": [ {
        "value": "Z10000"
      } ],
      "type": [ {
        "text": "GP Practice"
      } ],
      "name": "UNKNOWN"
    }
  }, {
    "fullUrl": "urn:uuid:e03c6bf2-2151-4d30-a3cd-2317cb32370e",
    "resource": {
      "resourceType": "Location",
      "id": "e03c6bf2-2151-4d30-a3cd-2317cb32370e",
      "address": {
        "type": "physical",
        "line": [ "313 VICTORIA ROAD", "LOWESTOFT" ],
        "postalCode": "NR33 9LS"
      }
    }
  }, {
    "fullUrl": "urn:uuid:69cedc73-db65-4312-8cd6-e4296d2759e3",
    "resource": {
      "resourceType": "Patient",
      "id": "69cedc73-db65-4312-8cd6-e4296d2759e3",
      "language": "en",
      "active": true,
      "name": [ {
        "use": "official",
        "family": "TEST CALL DX10",
        "given": [ "Test Call Dx10" ]
      } ],
      "telecom": [ {
        "system": "phone",
        "value": "tel:01233123123"
      } ],
      "gender": "male",
      "birthDate": "1996-03-25",
      "address": [ {
        "use": "home",
        "line": [ "313 VICTORIA ROAD", "LOWESTOFT" ],
        "postalCode": "NR33 9LS"
      }, {
        "type": "physical",
        "line": [ "313 VICTORIA ROAD", "LOWESTOFT" ],
        "postalCode": "NR33 9LS"
      } ],
      "generalPractitioner": [ {
        "reference": "urn:uuid:198c4011-edc2-48a6-8b5f-4dbaca4d2398"
      } ]
    }
  }, {
    "fullUrl": "urn:uuid:198c4011-edc2-48a6-8b5f-4dbaca4d2398",
    "resource": {
      "resourceType": "Organization",
      "id": "198c4011-edc2-48a6-8b5f-4dbaca4d2398",
      "identifier": [ {
        "value": "Z10000"
      } ],
      "type": [ {
        "text": "GP Practice"
      } ],
      "name": "UNKNOWN"
    }
  }, {
    "fullUrl": "urn:uuid:61f28096-ef49-4394-b2af-9f767ced4d3a",
    "resource": {
      "resourceType": "HealthcareService",
      "id": "61f28096-ef49-4394-b2af-9f767ced4d3a",
      "active": true,
      "providedBy": {
        "reference": "urn:uuid:809add23-8d56-425b-ac22-653abe5ccc4e"
      },
      "location": [ {
        "reference": "urn:uuid:dd9e1696-800d-4fd0-b966-2016f19d7226"
      } ],
      "name": "Out of Hours GP Service (Waveney) - Kirkley Mill Health Centre, Lowestoft"
    }
  }, {
    "fullUrl": "urn:uuid:dd9e1696-800d-4fd0-b966-2016f19d7226",
    "resource": {
      "resourceType": "Location",
      "id": "dd9e1696-800d-4fd0-b966-2016f19d7226",
      "managingOrganization": {
        "reference": "urn:uuid:809add23-8d56-425b-ac22-653abe5ccc4e"
      }
    }
  }, {
    "fullUrl": "urn:uuid:809add23-8d56-425b-ac22-653abe5ccc4e",
    "resource": {
      "resourceType": "Organization",
      "id": "809add23-8d56-425b-ac22-653abe5ccc4e",
      "identifier": [ {
        "value": "NVE06"
      } ],
      "type": [ {
        "coding": [ {
          "code": "PRCP",
          "display": "Out of Hours GP Service (Waveney) - Kirkley Mill Health Centre, Lowestoft"
        } ]
      } ],
      "name": "Out of Hours GP Service (Waveney) - Kirkley Mill Health Centre, Lowestoft"
    }
  }, {
    "fullUrl": "urn:uuid:ff02bcbb-32c4-422a-a06d-5cd8b0c0e527",
    "resource": {
      "resourceType": "ReferralRequest",
      "id": "ff02bcbb-32c4-422a-a06d-5cd8b0c0e527",
      "status": "active",
      "intent": "plan",
      "priority": "routine",
      "subject": {
        "reference": "urn:uuid:69cedc73-db65-4312-8cd6-e4296d2759e3"
      },
      "context": {
        "reference": "urn:uuid:ae27d978-5038-4f07-84ac-af3193428b4c"
      },
      "occurrencePeriod": {
        "start": "2021-09-29T10:03:12+00:00",
        "end": "2021-09-29T11:03:12+00:00"
      },
      "authoredOn": "2021-05-13T17:24:56+00:00",
      "requester": {
        "agent": {
          "reference": "urn:uuid:cdc8b9cc-ee0a-4820-b1db-c83085ff4399"
        },
        "onBehalfOf": {
          "reference": "urn:uuid:a88decf0-cd7c-4edb-bdb5-914b276e9779"
        }
      },
      "recipient": [ {
        "reference": "urn:uuid:f01acd44-4ffe-4e47-a720-1ace95e6179f"
      }, {
        "reference": "urn:uuid:61f28096-ef49-4394-b2af-9f767ced4d3a"
      } ],
      "reasonReference": [ {
        "reference": "urn:uuid:2cee6ccf-00db-48ea-981b-c824cc1787d4"
      } ],
      "supportingInfo": [ {
        "reference": "urn:uuid:8e6da9ba-848b-4b27-a22a-3eafe4762bd3"
      } ]
    }
  }, {
    "fullUrl": "urn:uuid:8e6da9ba-848b-4b27-a22a-3eafe4762bd3",
    "resource": {
      "resourceType": "ProcedureRequest",
      "id": "8e6da9ba-848b-4b27-a22a-3eafe4762bd3",
      "status": "active",
      "intent": "plan",
      "priority": "routine",
      "doNotPerform": false,
      "code": {
        "coding": [ {
          "system": "2.16.840.1.113883.2.1.3.2.4.17.325",
          "code": "Dx10",
          "display": "MUST contact a local service for a Non-Urgent Appointment"
        } ]
      },
      "subject": {
        "reference": "urn:uuid:69cedc73-db65-4312-8cd6-e4296d2759e3"
      },
      "occurrencePeriod": {
        "start": "2021-09-29T10:03:12+00:00",
        "end": "2021-09-29T11:03:12+00:00"
      },
      "reasonReference": [ {
        "reference": "urn:uuid:2cee6ccf-00db-48ea-981b-c824cc1787d4"
      } ]
    }
  }, {
    "fullUrl": "urn:uuid:f01acd44-4ffe-4e47-a720-1ace95e6179f",
    "resource": {
      "resourceType": "Practitioner",
      "id": "f01acd44-4ffe-4e47-a720-1ace95e6179f",
      "active": true,
      "telecom": [ {
        "system": "phone",
        "value": "tel:01233505450"
      } ],
      "address": [ {
        "type": "physical",
        "line": [ "Kingston House", "The Long Barrow", "Orbital Park", "Ashford", "Kent" ],
        "postalCode": "TN24 0GP"
      } ]
    }
  }, {
    "fullUrl": "urn:uuid:24011b88-0294-4430-b939-c6ec6081c48e",
    "resource": {
      "resourceType": "Composition",
      "id": "24011b88-0294-4430-b939-c6ec6081c48e",
      "identifier": {
        "use": "usual",
        "value": "895062D0-60A8-4EB4-9017-5F489D53694D"
      },
      "status": "final",
      "type": {
        "coding": [ {
          "system": "http://snomed.info/sct",
          "code": "371531000",
          "display": "Report of clinical encounter (record artifact)"
        } ]
      },
      "subject": {
        "reference": "urn:uuid:69cedc73-db65-4312-8cd6-e4296d2759e3"
      },
      "encounter": {
        "reference": "urn:uuid:ae27d978-5038-4f07-84ac-af3193428b4c"
      },
      "date": "2021-09-29T10:03:12+00:00",
      "author": [ {
        "reference": "urn:uuid:83d871d9-674b-4e51-b378-4921514a1e59"
      } ],
      "title": "111 Report",
      "confidentiality": "R",
      "section": [ {
        "section": [ {
          "title": "Patient's Reported Condition",
          "text": {
            "status": "generated",
            "div": "<div xmlns=\"http://www.w3.org/1999/xhtml\">&lt;content&gt;&amp;lt;CLEO Ref: 2100310450&amp;gt; Test Call &lt;br/&gt;\n                                                    &lt;/content&gt;</div>"
          }
        }, {
          "title": "Pathways Disposition",
          "text": {
            "status": "generated",
            "div": "<div xmlns=\"http://www.w3.org/1999/xhtml\">&lt;content&gt;If a pharmacy service is not available contact the GP practice during normal working hours. (Dx10)&lt;/content&gt;\n                                                    &lt;br/&gt;\n                                                    &lt;br/&gt;\n                                                    &lt;content&gt;Selected Service: 1335970392, Out of Hours GP Service (Waveney) - Kirkley Mill Health Centre, Lowestoft, 111&lt;/content&gt;\n                                                    &lt;br/&gt;</div>"
          }
        }, {
          "title": "Consultation Summary",
          "text": {
            "status": "generated",
            "div": "<div xmlns=\"http://www.w3.org/1999/xhtml\">&lt;content&gt;\n                                                        &lt;content&gt;Worst acne feature, blackheads or whiteheads&lt;/content&gt;\n                                                        &lt;br/&gt;\n                                                        &lt;content&gt;Acne&lt;/content&gt;\n                                                        &lt;br/&gt;\n                                                        &lt;content&gt;Warm to touch&lt;/content&gt;\n                                                        &lt;br/&gt;\n                                                        &lt;content&gt;Illness - test&lt;/content&gt;\n                                                        &lt;br/&gt;\n                                                    &lt;/content&gt;</div>"
          }
        }, {
          "title": "Pathways Assessment",
          "text": {
            "status": "generated",
            "div": "<div xmlns=\"http://www.w3.org/1999/xhtml\">&lt;content&gt;An injury or health problem was the reason for the contact.&lt;/content&gt;\n                                                    &lt;br/&gt;\n                                                    &lt;content&gt;Heavy bleeding had not occurred in the previous 2 hours.&lt;/content&gt;\n                                                    &lt;br/&gt;\n                                                    &lt;content&gt;An illness or health problem was the main problem. - test&lt;/content&gt;\n                                                    &lt;br/&gt;\n                                                    &lt;content&gt;The individual was not fighting for breath.&lt;/content&gt;\n                                                    &lt;br/&gt;\n                                                    &lt;content&gt;The main reason for the assessment was not an allergic reaction, heart attack, chest/upper back pain, probable stroke, recent fit/seizure or suicide attempt.&lt;/content&gt;\n                                                    &lt;br/&gt;\n                                                    &lt;content&gt;The main reason for contact was not new confusion, declared diabetic hypo/hyperglycaemia, or ICD shock.&lt;/content&gt;\n                                                    &lt;br/&gt;\n                                                    &lt;content&gt;The skin on the torso felt normal, warm or hot.&lt;/content&gt;\n                                                    &lt;br/&gt;\n                                                    &lt;content&gt;The main problem was not a rash, itch, jaundice, skin lumps or abnormal bruising.&lt;/content&gt;\n                                                    &lt;br/&gt;\n                                                    &lt;content&gt;The main problem was acne, spots or pimples.&lt;/content&gt;\n                                                    &lt;br/&gt;\n                                                    &lt;content&gt;The worst problem with the acne was blackheads or white heads.&lt;/content&gt;\n                                                    &lt;br/&gt;\n                                                    &lt;content&gt;The problem had not persisted for 3 months or got worse over that time.&lt;/content&gt;\n                                                    &lt;br/&gt;</div>"
          }
        }, {
          "title": "Advice Given",
          "text": {
            "status": "generated",
            "div": "<div xmlns=\"http://www.w3.org/1999/xhtml\">&lt;content&gt;Speak to a pharmacist for advice on suitable treatment.&lt;/content&gt;\n                                                    &lt;br/&gt;\n                                                    &lt;content&gt;If there are any new symptoms, or if the condition gets worse, changes or you have any other concerns, call us back.&lt;/content&gt;\n                                                    &lt;br/&gt;</div>"
          }
        }, {
          "title": "SCR Consent",
          "text": {
            "status": "generated",
            "div": "<div xmlns=\"http://www.w3.org/1999/xhtml\">&lt;content&gt;Consent given for SCR sharing&lt;br/&gt;\n                                                        &lt;br/&gt;\n                                                    &lt;/content&gt;</div>"
          }
        } ]
      }, {
        "title": "ReferralRequest",
        "entry": [ {
          "reference": "urn:uuid:ff02bcbb-32c4-422a-a06d-5cd8b0c0e527"
        } ]
      } ]
    }
  }, {
    "fullUrl": "urn:uuid:5f877de8-3cc5-4914-bcb2-221e6d71f177",
    "resource": {
      "resourceType": "Consent",
      "id": "5f877de8-3cc5-4914-bcb2-221e6d71f177",
      "identifier": {
        "use": "usual",
        "value": "895062D0-60A8-4EB4-9017-5F489D53694D"
      },
      "status": "active",
      "patient": {
        "reference": "urn:uuid:69cedc73-db65-4312-8cd6-e4296d2759e3"
      },
      "period": {
        "start": "2021-05-13T17:24:56+00:00"
      },
      "consentingParty": [ {
        "reference": "urn:uuid:69cedc73-db65-4312-8cd6-e4296d2759e3"
      } ],
      "action": [ {
        "coding": [ {
          "system": "http://snomed.info/sct",
          "code": "425691002",
          "display": "Consent given for electronic record sharing"
        } ],
        "text": "Consent given for electronic record sharing"
      } ],
      "organization": [ {
        "reference": "urn:uuid:a88decf0-cd7c-4edb-bdb5-914b276e9779"
      } ],
      "policyRule": "http://hl7.org/fhir/ConsentPolicy/opt-out",
      "data": [ {
        "meaning": "related",
        "reference": {
          "reference": "urn:uuid:ae27d978-5038-4f07-84ac-af3193428b4c"
        }
      } ]
    }
  }, {
    "fullUrl": "urn:uuid:2cee6ccf-00db-48ea-981b-c824cc1787d4",
    "resource": {
      "resourceType": "Condition",
      "id": "2cee6ccf-00db-48ea-981b-c824cc1787d4",
      "clinicalStatus": "active",
      "verificationStatus": "unknown",
      "subject": {
        "reference": "urn:uuid:69cedc73-db65-4312-8cd6-e4296d2759e3"
      },
      "context": {
        "reference": "urn:uuid:ae27d978-5038-4f07-84ac-af3193428b4c"
      }
    }
  }, {
    "fullUrl": "urn:uuid:8c35d8b4-a0f0-4006-94b7-66cab70e3ed5",
    "resource": {
      "resourceType": "Observation",
      "id": "8c35d8b4-a0f0-4006-94b7-66cab70e3ed5",
      "status": "final",
      "code": {
        "coding": [ {
          "system": "http://snomed.info/sct",
          "code": "33962009",
          "display": "Presenting complaint"
        } ]
      },
      "subject": {
        "reference": "urn:uuid:69cedc73-db65-4312-8cd6-e4296d2759e3"
      },
      "context": {
        "reference": "urn:uuid:ae27d978-5038-4f07-84ac-af3193428b4c"
      },
      "valueString": "<CLEO Ref: 2100310450> Test Call "
    }
  }, {
    "fullUrl": "urn:uuid:cb1932f1-428d-4fb8-94b2-b45a10eec63d",
    "resource": {
      "resourceType": "PractitionerRole",
      "id": "cb1932f1-428d-4fb8-94b2-b45a10eec63d",
      "practitioner": {
        "reference": "urn:uuid:83d871d9-674b-4e51-b378-4921514a1e59"
      },
      "organization": {
        "reference": "urn:uuid:468e0232-ea35-425e-83bb-4146a6593d60"
      },
      "code": [ {
        "coding": [ {
          "system": "2.16.840.1.113883.2.1.3.2.4.17.196",
          "code": "NR1690",
          "display": "Call Operator"
        } ]
      } ]
    }
  }, {
    "fullUrl": "urn:uuid:468e0232-ea35-425e-83bb-4146a6593d60",
    "resource": {
      "resourceType": "Organization",
      "id": "468e0232-ea35-425e-83bb-4146a6593d60",
      "identifier": [ {
        "value": "NTN08"
      } ],
      "name": "Norfolk and Wisbech 111"
    }
  }, {
    "fullUrl": "urn:uuid:c2c005c9-4625-4c00-9b2b-a6c9b84baafd",
    "resource": {
      "resourceType": "RelatedPerson",
      "id": "c2c005c9-4625-4c00-9b2b-a6c9b84baafd",
      "patient": {
        "reference": "urn:uuid:69cedc73-db65-4312-8cd6-e4296d2759e3"
      },
      "relationship": {
        "coding": [ {
          "system": "http://hl7.org/fhir/v2/0131",
          "code": "C",
          "display": "Emergency Contact"
        } ]
      },
      "telecom": [ {
        "system": "phone",
        "value": "tel:01233123123"
      } ]
    }
  }, {
    "fullUrl": "urn:uuid:cdc8b9cc-ee0a-4820-b1db-c83085ff4399",
    "resource": {
      "resourceType": "Device",
      "id": "cdc8b9cc-ee0a-4820-b1db-c83085ff4399",
      "model": "111 Adaptor",
      "version": "0.9.0"
    }
  }, {
    "fullUrl": "urn:uuid:ecf7182b-4ed8-476b-b427-e3779b183e13",
    "resource": {
      "resourceType": "List",
      "id": "ecf7182b-4ed8-476b-b427-e3779b183e13",
      "status": "current",
      "mode": "working",
      "title": "111 Report List",
      "code": {
        "coding": [ {
          "system": "http://snomed.info/sct",
          "code": "225390008",
          "display": "Triage"
        } ]
      },
      "subject": {
        "reference": "urn:uuid:69cedc73-db65-4312-8cd6-e4296d2759e3"
      },
      "encounter": {
        "reference": "urn:uuid:ae27d978-5038-4f07-84ac-af3193428b4c"
      },
      "date": "2021-09-29T10:03:12+00:00",
      "source": {
        "reference": "urn:uuid:cdc8b9cc-ee0a-4820-b1db-c83085ff4399"
      },
      "orderedBy": {
        "coding": [ {
          "system": "http://hl7.org/fhir/list-order",
          "code": "event-date",
          "display": "Sorted by Event Date"
        } ]
      },
      "entry": [ {
        "item": {
          "reference": "urn:uuid:468e0232-ea35-425e-83bb-4146a6593d60"
        }
      }, {
        "item": {
          "reference": "urn:uuid:8c35d8b4-a0f0-4006-94b7-66cab70e3ed5"
        }
      }, {
        "item": {
          "reference": "urn:uuid:01c395f7-637f-42af-a40a-918605eb63e0"
        }
      }, {
        "item": {
          "reference": "urn:uuid:2cee6ccf-00db-48ea-981b-c824cc1787d4"
        }
      }, {
        "item": {
          "reference": "urn:uuid:36e56509-20e9-47a1-a7c1-a757e9a38ffd"
        }
      }, {
        "item": {
          "reference": "urn:uuid:809add23-8d56-425b-ac22-653abe5ccc4e"
        }
      }, {
        "item": {
          "reference": "urn:uuid:c2c005c9-4625-4c00-9b2b-a6c9b84baafd"
        }
      }, {
        "item": {
          "reference": "urn:uuid:f01acd44-4ffe-4e47-a720-1ace95e6179f"
        }
      }, {
        "item": {
          "reference": "urn:uuid:83d871d9-674b-4e51-b378-4921514a1e59"
        }
      }, {
        "item": {
          "reference": "urn:uuid:198c4011-edc2-48a6-8b5f-4dbaca4d2398"
        }
      }, {
        "item": {
          "reference": "urn:uuid:a88decf0-cd7c-4edb-bdb5-914b276e9779"
        }
      }, {
        "item": {
          "reference": "urn:uuid:ff02bcbb-32c4-422a-a06d-5cd8b0c0e527"
        }
      } ]
    }
  } ]
}