{
  "resourceType": "Bundle",
  "meta": {
    "lastUpdated": "2022-05-12T07:25:18.172+00:00"
  },
  "identifier": {
    "type": {
      "text": "ClinicalDocument VersionNumber"
    },
    "value": "1"
  },
  "type": "message",
  "entry": [ {
    "fullUrl": "urn:uuid:F7916D36-4D5F-4A64-BD08-644E8A234AE2",
    "resource": {
      "resourceType": "MessageHeader",
      "id": "F7916D36-4D5F-4A64-BD08-644E8A234AE2",
      "event": {
        "system": "https://fhir.nhs.uk/STU3/CodeSystem/EventType-1",
        "code": "referral-1",
        "display": "Referral"
      },
      "destination": [ {
        "endpoint": "urn:nhs-uk:addressing:ods:NVE06:DOSServiceID:1335970392"
      } ],
      "timestamp": "2021-05-13T17:24:56.000+00:00",
      "source": {
        "name": "NHS 111 Adaptor",
        "endpoint": "http://localhost:8080/report"
      },
      "reason": {
        "coding": [ {
          "system": "urn:nhs-itk:ns:201005:interaction",
          "code": "urn:nhs-itk:interaction:primaryOutofHourRecipientNHS111CDADocument-v2-0"
        } ]
      }
    }
  }, {
    "fullUrl": "urn:uuid:94098691-11ab-42f6-abd7-3fbe0a0e3550",
    "resource": {
      "resourceType": "Encounter",
      "id": "94098691-11ab-42f6-abd7-3fbe0a0e3550",
      "identifier": [ {
        "system": "2.16.840.1.113883.2.1.3.2.4.18.34",
        "value": "2DBAE50F-F88C-4572-9866-F94FE0F1F25A"
      }, {
        "system": "2.16.840.1.113883.2.1.3.2.4.18.35",
        "value": "2100310450"
      } ],
      "status": "finished",
      "type": [ {
        "text": "111 Encounter Referral"
      } ],
      "subject": {
        "reference": "urn:uuid:7ff0da13-12b4-434e-b701-6f19bb720987"
      },
      "participant": [ {
        "type": [ {
          "coding": [ {
            "system": "http://hl7.org/fhir/ValueSet/encounter-participant-type",
            "code": "PPRF",
            "display": "Author"
          } ]
        } ],
        "individual": {
          "reference": "urn:uuid:9bfec373-a541-4345-9273-63abbdeac61e"
        }
      }, {
        "type": [ {
          "text": "Informant"
        } ],
        "individual": {
          "reference": "urn:uuid:8025ada9-ae3c-42ac-b665-f432e9b2f89c"
        }
      } ],
      "period": {
        "start": "2021-05-13T16:47:24+00:00",
        "end": "2021-05-13T17:24:56+00:00"
      },
      "location": [ {
        "location": {
          "reference": "urn:uuid:09b2c54a-25c3-405c-a19b-6970c1b89b2f"
        },
        "status": "active"
      }, {
        "location": {
          "reference": "urn:uuid:c218800b-b190-4162-b495-e95342cc44b1"
        },
        "status": "completed"
      } ],
      "serviceProvider": {
        "reference": "urn:uuid:4a28c5e6-63f7-4333-9a1c-2a7867b51b58"
      }
    }
  }, {
    "fullUrl": "urn:uuid:4a28c5e6-63f7-4333-9a1c-2a7867b51b58",
    "resource": {
      "resourceType": "Organization",
      "id": "4a28c5e6-63f7-4333-9a1c-2a7867b51b58",
      "active": true,
      "type": [ {
        "text": "CST"
      } ],
      "name": "Norfolk and Wisbech 111"
    }
  }, {
    "fullUrl": "urn:uuid:9bfec373-a541-4345-9273-63abbdeac61e",
    "resource": {
      "resourceType": "Practitioner",
      "id": "9bfec373-a541-4345-9273-63abbdeac61e",
      "active": true,
      "name": [ {
        "text": "Ben Smythson"
      } ]
    }
  }, {
    "fullUrl": "urn:uuid:8025ada9-ae3c-42ac-b665-f432e9b2f89c",
    "resource": {
      "resourceType": "RelatedPerson",
      "id": "8025ada9-ae3c-42ac-b665-f432e9b2f89c",
      "active": true,
      "patient": {
        "reference": "urn:uuid:7ff0da13-12b4-434e-b701-6f19bb720987"
      },
      "relationship": {
        "coding": [ {
          "system": "2.16.840.1.113883.2.1.3.2.4.16.45",
          "code": "21",
          "display": "Self"
        }, {
          "system": "http://hl7.org/fhir/v2/0131",
          "code": "C",
          "display": "Emergency Contact"
        } ]
      },
      "name": [ {
        "text": "Test Call Dx10 TEST CALL DX10"
      } ],
      "telecom": [ {
        "system": "phone",
        "value": "tel:01233123123"
      } ],
      "gender": "unknown"
    }
  }, {
    "fullUrl": "urn:uuid:09b2c54a-25c3-405c-a19b-6970c1b89b2f",
    "resource": {
      "resourceType": "Location",
      "id": "09b2c54a-25c3-405c-a19b-6970c1b89b2f",
      "managingOrganization": {
        "reference": "urn:uuid:2fb2c9bc-2ed2-47af-b9e1-a7f4735fbfbc"
      }
    }
  }, {
    "fullUrl": "urn:uuid:2fb2c9bc-2ed2-47af-b9e1-a7f4735fbfbc",
    "resource": {
      "resourceType": "Organization",
      "id": "2fb2c9bc-2ed2-47af-b9e1-a7f4735fbfbc",
      "identifier": [ {
        "value": "Z10000"
      } ],
      "type": [ {
        "text": "GP Practice"
      } ],
      "name": "UNKNOWN"
    }
  }, {
    "fullUrl": "urn:uuid:c218800b-b190-4162-b495-e95342cc44b1",
    "resource": {
      "resourceType": "Location",
      "id": "c218800b-b190-4162-b495-e95342cc44b1",
      "address": {
        "type": "physical",
        "line": [ "313 VICTORIA ROAD", "LOWESTOFT" ],
        "postalCode": "NR33 9LS"
      }
    }
  }, {
    "fullUrl": "urn:uuid:7ff0da13-12b4-434e-b701-6f19bb720987",
    "resource": {
      "resourceType": "Patient",
      "id": "7ff0da13-12b4-434e-b701-6f19bb720987",
      "language": "en",
      "active": true,
      "name": [ {
        "use": "official",
        "family": "TEST CALL DX10",
        "given": [ "Test Call Dx10" ]
      } ],
      "telecom": [ {
        "system": "phone",
        "value": "tel:01233123123"
      } ],
      "gender": "male",
      "birthDate": "1996-03-25",
      "address": [ {
        "use": "home",
        "line": [ "313 VICTORIA ROAD", "LOWESTOFT" ],
        "postalCode": "NR33 9LS"
      }, {
        "type": "physical",
        "line": [ "313 VICTORIA ROAD", "LOWESTOFT" ],
        "postalCode": "NR33 9LS"
      } ],
      "generalPractitioner": [ {
        "reference": "urn:uuid:84f86d4d-2014-4b82-bbad-00c4f112e5ae"
      } ]
    }
  }, {
    "fullUrl": "urn:uuid:84f86d4d-2014-4b82-bbad-00c4f112e5ae",
    "resource": {
      "resourceType": "Organization",
      "id": "84f86d4d-2014-4b82-bbad-00c4f112e5ae",
      "identifier": [ {
        "value": "Z10000"
      } ],
      "type": [ {
        "text": "GP Practice"
      } ],
      "name": "UNKNOWN"
    }
  }, {
    "fullUrl": "urn:uuid:55964955-eaab-4b82-ba4b-560e78142ad3",
    "resource": {
      "resourceType": "HealthcareService",
      "id": "55964955-eaab-4b82-ba4b-560e78142ad3",
      "active": true,
      "providedBy": {
        "reference": "urn:uuid:6ce586c2-7af3-432a-a0ab-000f5b0e4efa"
      },
      "location": [ {
        "reference": "urn:uuid:ed95ca86-a930-4a89-888b-b9cc823f175b"
      } ],
      "name": "Out of Hours GP Service (Waveney) - Kirkley Mill Health Centre, Lowestoft"
    }
  }, {
    "fullUrl": "urn:uuid:ed95ca86-a930-4a89-888b-b9cc823f175b",
    "resource": {
      "resourceType": "Location",
      "id": "ed95ca86-a930-4a89-888b-b9cc823f175b",
      "managingOrganization": {
        "reference": "urn:uuid:6ce586c2-7af3-432a-a0ab-000f5b0e4efa"
      }
    }
  }, {
    "fullUrl": "urn:uuid:6ce586c2-7af3-432a-a0ab-000f5b0e4efa",
    "resource": {
      "resourceType": "Organization",
      "id": "6ce586c2-7af3-432a-a0ab-000f5b0e4efa",
      "identifier": [ {
        "value": "NVE06"
      } ],
      "type": [ {
        "coding": [ {
          "code": "PRCP",
          "display": "Out of Hours GP Service (Waveney) - Kirkley Mill Health Centre, Lowestoft"
        } ]
      } ],
      "name": "Out of Hours GP Service (Waveney) - Kirkley Mill Health Centre, Lowestoft"
    }
  }, {
    "fullUrl": "urn:uuid:20a699fb-6cd5-429f-a7e1-cbf79ec08bc9",
    "resource": {
      "resourceType": "ReferralRequest",
      "id": "20a699fb-6cd5-429f-a7e1-cbf79ec08bc9",
      "status": "active",
      "intent": "plan",
      "priority": "routine",
      "subject": {
        "reference": "urn:uuid:7ff0da13-12b4-434e-b701-6f19bb720987"
      },
      "context": {
        "reference": "urn:uuid:94098691-11ab-42f6-abd7-3fbe0a0e3550"
      },
      "occurrencePeriod": {
        "start": "2021-05-13T17:24:56+00:00"
      },
      "authoredOn": "2021-05-13T17:24:56+00:00",
      "requester": {
        "agent": {
          "reference": "urn:uuid:4c2b218f-b3ae-4344-879b-c5188aa34d52"
        },
        "onBehalfOf": {
          "reference": "urn:uuid:4a28c5e6-63f7-4333-9a1c-2a7867b51b58"
        }
      },
      "recipient": [ {
        "reference": "urn:uuid:97b3b2c1-314f-4e36-ac0e-f96353885809"
      }, {
        "reference": "urn:uuid:55964955-eaab-4b82-ba4b-560e78142ad3"
      } ],
      "reasonReference": [ {
        "reference": "urn:uuid:73a4e2a5-5735-4a0f-880b-d5d2d02cdaf2"
      } ],
      "supportingInfo": [ {
        "reference": "urn:uuid:adf0ca12-ede1-40b9-aea2-60c873544775"
      } ]
    }
  }, {
    "fullUrl": "urn:uuid:adf0ca12-ede1-40b9-aea2-60c873544775",
    "resource": {
      "resourceType": "ProcedureRequest",
      "id": "adf0ca12-ede1-40b9-aea2-60c873544775",
      "status": "active",
      "intent": "plan",
      "priority": "routine",
      "doNotPerform": false,
      "code": {
        "coding": [ {
          "system": "2.16.840.1.113883.2.1.3.2.4.17.325",
          "code": "Dx10",
          "display": "MUST contact a local service for a Non-Urgent Appointment"
        } ]
      },
      "subject": {
        "reference": "urn:uuid:7ff0da13-12b4-434e-b701-6f19bb720987"
      },
      "occurrencePeriod": {
        "start": "2021-05-13T17:24:56+00:00"
      },
      "reasonReference": [ {
        "reference": "urn:uuid:73a4e2a5-5735-4a0f-880b-d5d2d02cdaf2"
      } ]
    }
  }, {
    "fullUrl": "urn:uuid:97b3b2c1-314f-4e36-ac0e-f96353885809",
    "resource": {
      "resourceType": "Practitioner",
      "id": "97b3b2c1-314f-4e36-ac0e-f96353885809",
      "active": true,
      "telecom": [ {
        "system": "phone",
        "value": "tel:01233505450"
      } ],
      "address": [ {
        "type": "physical",
        "line": [ "Kingston House", "The Long Barrow", "Orbital Park", "Ashford", "Kent" ],
        "postalCode": "TN24 0GP"
      } ]
    }
  }, {
    "fullUrl": "urn:uuid:dd84b4d1-db08-441b-ae1c-c58b29c63514",
    "resource": {
      "resourceType": "Composition",
      "id": "dd84b4d1-db08-441b-ae1c-c58b29c63514",
      "identifier": {
        "use": "usual",
        "value": "895062D0-60A8-4EB4-9017-5F489D53694D"
      },
      "status": "final",
      "type": {
        "coding": [ {
          "system": "http://snomed.info/sct",
          "code": "371531000",
          "display": "Report of clinical encounter (record artifact)"
        } ]
      },
      "subject": {
        "reference": "urn:uuid:7ff0da13-12b4-434e-b701-6f19bb720987"
      },
      "encounter": {
        "reference": "urn:uuid:94098691-11ab-42f6-abd7-3fbe0a0e3550"
      },
      "date": "2021-05-13T17:24:56+00:00",
      "author": [ {
        "reference": "urn:uuid:9bfec373-a541-4345-9273-63abbdeac61e"
      } ],
      "title": "111 Report",
      "confidentiality": "R",
      "section": [ {
        "section": [ {
          "title": "Patient's Reported Condition",
          "text": {
            "status": "generated",
            "div": "<div xmlns=\"http://www.w3.org/1999/xhtml\">&lt;content&gt;&amp;lt;CLEO Ref: 2100310450&amp;gt; Test Call &lt;br/&gt;\n                                                    &lt;/content&gt;</div>"
          }
        }, {
          "title": "Pathways Disposition",
          "text": {
            "status": "generated",
            "div": "<div xmlns=\"http://www.w3.org/1999/xhtml\">&lt;content&gt;If a pharmacy service is not available contact the GP practice during normal working hours. (Dx10)&lt;/content&gt;\n                                                    &lt;br/&gt;\n                                                    &lt;br/&gt;\n                                                    &lt;content&gt;Selected Service: 1335970392, Out of Hours GP Service (Waveney) - Kirkley Mill Health Centre, Lowestoft, 111&lt;/content&gt;\n                                                    &lt;br/&gt;</div>"
          }
        }, {
          "title": "Consultation Summary",
          "text": {
            "status": "generated",
            "div": "<div xmlns=\"http://www.w3.org/1999/xhtml\">&lt;content&gt;\n                                                        &lt;content&gt;Worst acne feature, blackheads or whiteheads&lt;/content&gt;\n                                                        &lt;br/&gt;\n                                                        &lt;content&gt;Acne&lt;/content&gt;\n                                                        &lt;br/&gt;\n                                                        &lt;content&gt;Warm to touch&lt;/content&gt;\n                                                        &lt;br/&gt;\n                                                        &lt;content&gt;Illness - test&lt;/content&gt;\n                                                        &lt;br/&gt;\n                                                    &lt;/content&gt;</div>"
          }
        }, {
          "title": "Pathways Assessment",
          "text": {
            "status": "generated",
            "div": "<div xmlns=\"http://www.w3.org/1999/xhtml\">&lt;content&gt;An injury or health problem was the reason for the contact.&lt;/content&gt;\n                                                    &lt;br/&gt;\n                                                    &lt;content&gt;Heavy bleeding had not occurred in the previous 2 hours.&lt;/content&gt;\n                                                    &lt;br/&gt;\n                                                    &lt;content&gt;An illness or health problem was the main problem. - test&lt;/content&gt;\n                                                    &lt;br/&gt;\n                                                    &lt;content&gt;The individual was not fighting for breath.&lt;/content&gt;\n                                                    &lt;br/&gt;\n                                                    &lt;content&gt;The main reason for the assessment was not an allergic reaction, heart attack, chest/upper back pain, probable stroke, recent fit/seizure or suicide attempt.&lt;/content&gt;\n                                                    &lt;br/&gt;\n                                                    &lt;content&gt;The main reason for contact was not new confusion, declared diabetic hypo/hyperglycaemia, or ICD shock.&lt;/content&gt;\n                                                    &lt;br/&gt;\n                                                    &lt;content&gt;The skin on the torso felt normal, warm or hot.&lt;/content&gt;\n                                                    &lt;br/&gt;\n                                                    &lt;content&gt;The main problem was not a rash, itch, jaundice, skin lumps or abnormal bruising.&lt;/content&gt;\n                                                    &lt;br/&gt;\n                                                    &lt;content&gt;The main problem was acne, spots or pimples.&lt;/content&gt;\n                                                    &lt;br/&gt;\n                                                    &lt;content&gt;The worst problem with the acne was blackheads or white heads.&lt;/content&gt;\n                                                    &lt;br/&gt;\n                                                    &lt;content&gt;The problem had not persisted for 3 months or got worse over that time.&lt;/content&gt;\n                                                    &lt;br/&gt;</div>"
          }
        }, {
          "title": "Advice Given",
          "text": {
            "status": "generated",
            "div": "<div xmlns=\"http://www.w3.org/1999/xhtml\">&lt;content&gt;Speak to a pharmacist for advice on suitable treatment.&lt;/content&gt;\n                                                    &lt;br/&gt;\n                                                    &lt;content&gt;If there are any new symptoms, or if the condition gets worse, changes or you have any other concerns, call us back.&lt;/content&gt;\n                                                    &lt;br/&gt;</div>"
          }
        }, {
          "title": "SCR Consent",
          "text": {
            "status": "generated",
            "div": "<div xmlns=\"http://www.w3.org/1999/xhtml\">&lt;content&gt;Consent given for SCR sharing&lt;br/&gt;\n                                                        &lt;br/&gt;\n                                                    &lt;/content&gt;</div>"
          }
        } ]
      }, {
        "title": "ReferralRequest",
        "entry": [ {
          "reference": "urn:uuid:20a699fb-6cd5-429f-a7e1-cbf79ec08bc9"
        } ]
      } ]
    }
  }, {
    "fullUrl": "urn:uuid:05374eb3-e1c0-48ae-95c1-b1469ae0a460",
    "resource": {
      "resourceType": "Consent",
      "id": "05374eb3-e1c0-48ae-95c1-b1469ae0a460",
      "identifier": {
        "use": "usual",
        "value": "895062D0-60A8-4EB4-9017-5F489D53694D"
      },
      "status": "active",
      "patient": {
        "reference": "urn:uuid:7ff0da13-12b4-434e-b701-6f19bb720987"
      },
      "period": {
        "start": "2021-05-13T16:47:24+00:00",
        "end": "2021-05-13T17:24:56+00:00"
      },
      "consentingParty": [ {
        "reference": "urn:uuid:7ff0da13-12b4-434e-b701-6f19bb720987"
      } ],
      "action": [ {
        "coding": [ {
          "system": "http://snomed.info/sct",
          "code": "425691002",
          "display": "Consent given for electronic record sharing"
        } ],
        "text": "Consent given for electronic record sharing"
      } ],
      "organization": [ {
        "reference": "urn:uuid:4a28c5e6-63f7-4333-9a1c-2a7867b51b58"
      } ],
      "policyRule": "http://hl7.org/fhir/ConsentPolicy/opt-out",
      "data": [ {
        "meaning": "related",
        "reference": {
          "reference": "urn:uuid:94098691-11ab-42f6-abd7-3fbe0a0e3550"
        }
      } ]
    }
  }, {
    "fullUrl": "urn:uuid:73a4e2a5-5735-4a0f-880b-d5d2d02cdaf2",
    "resource": {
      "resourceType": "Condition",
      "id": "73a4e2a5-5735-4a0f-880b-d5d2d02cdaf2",
      "clinicalStatus": "active",
      "verificationStatus": "unknown",
      "subject": {
        "reference": "urn:uuid:7ff0da13-12b4-434e-b701-6f19bb720987"
      },
      "context": {
        "reference": "urn:uuid:94098691-11ab-42f6-abd7-3fbe0a0e3550"
      }
    }
  }, {
    "fullUrl": "urn:uuid:cc906ef0-eb16-4468-a642-0eb0d73c0142",
    "resource": {
      "resourceType": "Observation",
      "id": "cc906ef0-eb16-4468-a642-0eb0d73c0142",
      "status": "final",
      "code": {
        "coding": [ {
          "system": "http://snomed.info/sct",
          "code": "33962009",
          "display": "Presenting complaint"
        } ]
      },
      "subject": {
        "reference": "urn:uuid:7ff0da13-12b4-434e-b701-6f19bb720987"
      },
      "context": {
        "reference": "urn:uuid:94098691-11ab-42f6-abd7-3fbe0a0e3550"
      },
      "valueString": "<CLEO Ref: 2100310450> Test Call "
    }
  }, {
    "fullUrl": "urn:uuid:71ceadc6-f234-4807-8faa-5e366e262068",
    "resource": {
      "resourceType": "PractitionerRole",
      "id": "71ceadc6-f234-4807-8faa-5e366e262068",
      "practitioner": {
        "reference": "urn:uuid:9bfec373-a541-4345-9273-63abbdeac61e"
      },
      "organization": {
        "reference": "urn:uuid:14508202-5db8-4692-81f8-6185c30d64e4"
      },
      "code": [ {
        "coding": [ {
          "system": "2.16.840.1.113883.2.1.3.2.4.17.196",
          "code": "NR1690",
          "display": "Call Operator"
        } ]
      } ]
    }
  }, {
    "fullUrl": "urn:uuid:14508202-5db8-4692-81f8-6185c30d64e4",
    "resource": {
      "resourceType": "Organization",
      "id": "14508202-5db8-4692-81f8-6185c30d64e4",
      "identifier": [ {
        "value": "NTN08"
      } ],
      "name": "Norfolk and Wisbech 111"
    }
  }, {
    "fullUrl": "urn:uuid:1a06f207-b204-423d-a8f9-298dcf9b0408",
    "resource": {
      "resourceType": "RelatedPerson",
      "id": "1a06f207-b204-423d-a8f9-298dcf9b0408",
      "patient": {
        "reference": "urn:uuid:7ff0da13-12b4-434e-b701-6f19bb720987"
      },
      "relationship": {
        "coding": [ {
          "system": "http://hl7.org/fhir/v2/0131",
          "code": "C",
          "display": "Emergency Contact"
        } ]
      },
      "telecom": [ {
        "system": "phone",
        "value": "tel:01233123123"
      } ]
    }
  }, {
    "fullUrl": "urn:uuid:4c2b218f-b3ae-4344-879b-c5188aa34d52",
    "resource": {
      "resourceType": "Device",
      "id": "4c2b218f-b3ae-4344-879b-c5188aa34d52",
      "model": "111 Adaptor",
      "version": "1.0.3"
    }
  }, {
    "fullUrl": "urn:uuid:fdb1f002-b2c5-42a5-884d-ec69f906e049",
    "resource": {
      "resourceType": "List",
      "id": "fdb1f002-b2c5-42a5-884d-ec69f906e049",
      "status": "current",
      "mode": "working",
      "title": "111 Report List",
      "code": {
        "coding": [ {
          "system": "http://snomed.info/sct",
          "code": "225390008",
          "display": "Triage"
        } ]
      },
      "subject": {
        "reference": "urn:uuid:7ff0da13-12b4-434e-b701-6f19bb720987"
      },
      "encounter": {
        "reference": "urn:uuid:94098691-11ab-42f6-abd7-3fbe0a0e3550"
      },
      "date": "2021-05-13T17:24:56+00:00",
      "source": {
        "reference": "urn:uuid:4c2b218f-b3ae-4344-879b-c5188aa34d52"
      },
      "orderedBy": {
        "coding": [ {
          "system": "http://hl7.org/fhir/list-order",
          "code": "event-date",
          "display": "Sorted by Event Date"
        } ]
      },
      "entry": [ {
        "item": {
          "reference": "urn:uuid:1a06f207-b204-423d-a8f9-298dcf9b0408"
        }
      }, {
        "item": {
          "reference": "urn:uuid:8025ada9-ae3c-42ac-b665-f432e9b2f89c"
        }
      }, {
        "item": {
          "reference": "urn:uuid:14508202-5db8-4692-81f8-6185c30d64e4"
        }
      }, {
        "item": {
          "reference": "urn:uuid:6ce586c2-7af3-432a-a0ab-000f5b0e4efa"
        }
      }, {
        "item": {
          "reference": "urn:uuid:cc906ef0-eb16-4468-a642-0eb0d73c0142"
        }
      }, {
        "item": {
          "reference": "urn:uuid:84f86d4d-2014-4b82-bbad-00c4f112e5ae"
        }
      }, {
        "item": {
          "reference": "urn:uuid:97b3b2c1-314f-4e36-ac0e-f96353885809"
        }
      }, {
        "item": {
          "reference": "urn:uuid:9bfec373-a541-4345-9273-63abbdeac61e"
        }
      }, {
        "item": {
          "reference": "urn:uuid:2fb2c9bc-2ed2-47af-b9e1-a7f4735fbfbc"
        }
      }, {
        "item": {
          "reference": "urn:uuid:73a4e2a5-5735-4a0f-880b-d5d2d02cdaf2"
        }
      }, {
        "item": {
          "reference": "urn:uuid:4a28c5e6-63f7-4333-9a1c-2a7867b51b58"
        }
      }, {
        "item": {
          "reference": "urn:uuid:20a699fb-6cd5-429f-a7e1-cbf79ec08bc9"
        }
      } ]
    }
  } ]
}