{
  "resourceType": "Bundle",
  "identifier": {
    "type": {
      "text": "ClinicalDocument VersionNumber"
    },
    "value": "1"
  },
  "type": "message",
  "entry": [ {
    "fullUrl": "urn:uuid:F7916D36-4D5F-4A64-BD08-644E8A234AE2",
    "resource": {
      "resourceType": "MessageHeader",
      "id": "F7916D36-4D5F-4A64-BD08-644E8A234AE2",
      "event": {
        "system": "https://fhir.nhs.uk/STU3/CodeSystem/EventType-1",
        "code": "referral-1",
        "display": "Referral"
      },
      "destination": [ {
        "endpoint": "urn:nhs-uk:addressing:ods:NVE06:DOSServiceID:1335970392"
      } ],
      "timestamp": "2021-05-13T17:24:56.000+00:00",
      "source": {
        "name": "NHS 111 Adaptor",
        "endpoint": "http://localhost:8080/report"
      },
      "reason": {
        "coding": [ {
          "system": "urn:nhs-itk:ns:201005:interaction",
          "code": "urn:nhs-itk:interaction:primaryOutofHourRecipientNHS111CDADocument-v2-0"
        } ]
      }
    }
  }, {
    "fullUrl": "urn:uuid:1defaeca-90d9-4f3c-b01e-b24ada495979",
    "resource": {
      "resourceType": "Encounter",
      "id": "1defaeca-90d9-4f3c-b01e-b24ada495979",
      "identifier": [ {
        "system": "2.16.840.1.113883.2.1.3.2.4.18.34",
        "value": "2DBAE50F-F88C-4572-9866-F94FE0F1F25A"
      }, {
        "system": "2.16.840.1.113883.2.1.3.2.4.18.35",
        "value": "2100310450"
      } ],
      "status": "finished",
      "type": [ {
        "text": "111 Encounter Referral"
      } ],
      "subject": {
        "reference": "urn:uuid:f921de2d-950d-4859-82b9-10b7d5faa739"
      },
      "participant": [ {
        "type": [ {
          "coding": [ {
            "system": "http://hl7.org/fhir/ValueSet/encounter-participant-type",
            "code": "PPRF",
            "display": "Author"
          } ]
        } ],
        "individual": {
          "reference": "urn:uuid:04559aed-a751-48ab-ad58-acdd50af4ed1"
        }
      }, {
        "type": [ {
          "text": "Informant"
        } ],
        "individual": {
          "reference": "urn:uuid:a2767213-2c86-43fa-b465-6b59b4ad368b"
        }
      } ],
      "period": {
        "start": "2021-05-13T17:24:56+00:00"
      },
      "location": [ {
        "location": {
          "reference": "urn:uuid:c2a15e3e-ea84-45f1-8b4d-f237ab6788bb"
        },
        "status": "active"
      }, {
        "location": {
          "reference": "urn:uuid:d05a4130-0a7d-487a-99a0-693229024ad1"
        },
        "status": "completed"
      } ],
      "serviceProvider": {
        "reference": "urn:uuid:2771be4f-ea8b-4c12-ac9b-0d9587e02884"
      }
    }
  }, {
    "fullUrl": "urn:uuid:2771be4f-ea8b-4c12-ac9b-0d9587e02884",
    "resource": {
      "resourceType": "Organization",
      "id": "2771be4f-ea8b-4c12-ac9b-0d9587e02884",
      "active": true,
      "type": [ {
        "text": "CST"
      } ],
      "name": "Norfolk and Wisbech 111"
    }
  }, {
    "fullUrl": "urn:uuid:04559aed-a751-48ab-ad58-acdd50af4ed1",
    "resource": {
      "resourceType": "Practitioner",
      "id": "04559aed-a751-48ab-ad58-acdd50af4ed1",
      "active": true,
      "name": [ {
        "text": "Ben Smythson"
      } ]
    }
  }, {
    "fullUrl": "urn:uuid:a2767213-2c86-43fa-b465-6b59b4ad368b",
    "resource": {
      "resourceType": "RelatedPerson",
      "id": "a2767213-2c86-43fa-b465-6b59b4ad368b",
      "active": true,
      "patient": {
        "reference": "urn:uuid:f921de2d-950d-4859-82b9-10b7d5faa739"
      },
      "relationship": {
        "coding": [ {
          "system": "2.16.840.1.113883.2.1.3.2.4.16.45",
          "code": "21",
          "display": "Self"
        }, {
          "system": "http://hl7.org/fhir/v2/0131",
          "code": "C",
          "display": "Emergency Contact"
        } ]
      },
      "name": [ {
        "text": "Test Call Dx10 TEST CALL DX10"
      } ],
      "telecom": [ {
        "system": "phone",
        "value": "tel:01233123123"
      } ],
      "gender": "unknown"
    }
  }, {
    "fullUrl": "urn:uuid:c2a15e3e-ea84-45f1-8b4d-f237ab6788bb",
    "resource": {
      "resourceType": "Location",
      "id": "c2a15e3e-ea84-45f1-8b4d-f237ab6788bb",
      "managingOrganization": {
        "reference": "urn:uuid:0e385fed-79c1-4714-b314-a4f74871de28"
      }
    }
  }, {
    "fullUrl": "urn:uuid:0e385fed-79c1-4714-b314-a4f74871de28",
    "resource": {
      "resourceType": "Organization",
      "id": "0e385fed-79c1-4714-b314-a4f74871de28",
      "identifier": [ {
        "value": "Z10000"
      } ],
      "type": [ {
        "text": "GP Practice"
      } ],
      "name": "UNKNOWN"
    }
  }, {
    "fullUrl": "urn:uuid:d05a4130-0a7d-487a-99a0-693229024ad1",
    "resource": {
      "resourceType": "Location",
      "id": "d05a4130-0a7d-487a-99a0-693229024ad1",
      "address": {
        "type": "physical",
        "line": [ "313 VICTORIA ROAD", "LOWESTOFT" ],
        "postalCode": "NR33 9LS"
      }
    }
  }, {
    "fullUrl": "urn:uuid:f921de2d-950d-4859-82b9-10b7d5faa739",
    "resource": {
      "resourceType": "Patient",
      "id": "f921de2d-950d-4859-82b9-10b7d5faa739",
      "language": "en",
      "active": true,
      "name": [ {
        "use": "official",
        "family": "TEST CALL DX10",
        "given": [ "Test Call Dx10" ]
      } ],
      "telecom": [ {
        "system": "phone",
        "value": "tel:01233123123"
      } ],
      "gender": "male",
      "birthDate": "1996-03-25",
      "address": [ {
        "use": "home",
        "line": [ "313 VICTORIA ROAD", "LOWESTOFT" ],
        "postalCode": "NR33 9LS"
      }, {
        "type": "physical",
        "line": [ "313 VICTORIA ROAD", "LOWESTOFT" ],
        "postalCode": "NR33 9LS"
      } ],
      "generalPractitioner": [ {
        "reference": "urn:uuid:472da391-0dfb-4aa4-a58f-e5fdbdd9c3b3"
      } ]
    }
  }, {
    "fullUrl": "urn:uuid:472da391-0dfb-4aa4-a58f-e5fdbdd9c3b3",
    "resource": {
      "resourceType": "Organization",
      "id": "472da391-0dfb-4aa4-a58f-e5fdbdd9c3b3",
      "identifier": [ {
        "value": "Z10000"
      } ],
      "type": [ {
        "text": "GP Practice"
      } ],
      "name": "UNKNOWN"
    }
  }, {
    "fullUrl": "urn:uuid:f9bacb1b-131d-4f36-ad65-f905af8e90d9",
    "resource": {
      "resourceType": "HealthcareService",
      "id": "f9bacb1b-131d-4f36-ad65-f905af8e90d9",
      "active": true,
      "providedBy": {
        "reference": "urn:uuid:0a261593-d4c8-4d5e-83bd-ebc0c6928fbd"
      },
      "location": [ {
        "reference": "urn:uuid:4bc35635-184b-4b46-8f23-d6ba77b11862"
      } ],
      "name": "Out of Hours GP Service (Waveney) - Kirkley Mill Health Centre, Lowestoft"
    }
  }, {
    "fullUrl": "urn:uuid:4bc35635-184b-4b46-8f23-d6ba77b11862",
    "resource": {
      "resourceType": "Location",
      "id": "4bc35635-184b-4b46-8f23-d6ba77b11862",
      "managingOrganization": {
        "reference": "urn:uuid:0a261593-d4c8-4d5e-83bd-ebc0c6928fbd"
      }
    }
  }, {
    "fullUrl": "urn:uuid:0a261593-d4c8-4d5e-83bd-ebc0c6928fbd",
    "resource": {
      "resourceType": "Organization",
      "id": "0a261593-d4c8-4d5e-83bd-ebc0c6928fbd",
      "identifier": [ {
        "value": "NVE06"
      } ],
      "type": [ {
        "coding": [ {
          "code": "PRCP",
          "display": "Out of Hours GP Service (Waveney) - Kirkley Mill Health Centre, Lowestoft"
        } ]
      } ],
      "name": "Out of Hours GP Service (Waveney) - Kirkley Mill Health Centre, Lowestoft"
    }
  }, {
    "fullUrl": "urn:uuid:e98b5b55-978c-477f-abcf-ddc6bba2fbf8",
    "resource": {
      "resourceType": "ReferralRequest",
      "id": "e98b5b55-978c-477f-abcf-ddc6bba2fbf8",
      "status": "active",
      "intent": "plan",
      "priority": "routine",
      "subject": {
        "reference": "urn:uuid:f921de2d-950d-4859-82b9-10b7d5faa739"
      },
      "context": {
        "reference": "urn:uuid:1defaeca-90d9-4f3c-b01e-b24ada495979"
      },
      "occurrencePeriod": {
        "start": "2021-09-14T09:23:28+00:00",
        "end": "2021-09-14T10:23:28+00:00"
      },
      "authoredOn": "2021-05-13T17:24:56+00:00",
      "requester": {
        "agent": {
          "reference": "urn:uuid:af3a55a3-b4d0-4589-9056-84b25c95bb21"
        },
        "onBehalfOf": {
          "reference": "urn:uuid:2771be4f-ea8b-4c12-ac9b-0d9587e02884"
        }
      },
      "recipient": [ {
        "reference": "urn:uuid:ab38d607-30be-45aa-bc6e-87f0931426f2"
      }, {
        "reference": "urn:uuid:f9bacb1b-131d-4f36-ad65-f905af8e90d9"
      } ],
      "reasonReference": [ {
        "reference": "urn:uuid:6aedd0f9-a559-4cef-9f68-c5ef14116193"
      } ],
      "supportingInfo": [ {
        "reference": "urn:uuid:55d590e1-5bee-4c09-8386-080145f26151"
      } ]
    }
  }, {
    "fullUrl": "urn:uuid:55d590e1-5bee-4c09-8386-080145f26151",
    "resource": {
      "resourceType": "ProcedureRequest",
      "id": "55d590e1-5bee-4c09-8386-080145f26151",
      "status": "active",
      "intent": "plan",
      "priority": "routine",
      "doNotPerform": false,
      "code": {
        "coding": [ {
          "system": "2.16.840.1.113883.2.1.3.2.4.17.325",
          "code": "Dx10",
          "display": "MUST contact a local service for a Non-Urgent Appointment"
        } ]
      },
      "subject": {
        "reference": "urn:uuid:f921de2d-950d-4859-82b9-10b7d5faa739"
      },
      "occurrencePeriod": {
        "start": "2021-09-14T09:23:28+00:00",
        "end": "2021-09-14T10:23:28+00:00"
      },
      "reasonReference": [ {
        "reference": "urn:uuid:6aedd0f9-a559-4cef-9f68-c5ef14116193"
      } ]
    }
  }, {
    "fullUrl": "urn:uuid:ab38d607-30be-45aa-bc6e-87f0931426f2",
    "resource": {
      "resourceType": "Practitioner",
      "id": "ab38d607-30be-45aa-bc6e-87f0931426f2",
      "active": true,
      "telecom": [ {
        "system": "phone",
        "value": "tel:01233505450"
      } ],
      "address": [ {
        "type": "physical",
        "line": [ "Kingston House", "The Long Barrow", "Orbital Park", "Ashford", "Kent" ],
        "postalCode": "TN24 0GP"
      } ]
    }
  }, {
    "fullUrl": "urn:uuid:f3112b33-bc9f-427c-b974-7b73125e5e9a",
    "resource": {
      "resourceType": "Composition",
      "id": "f3112b33-bc9f-427c-b974-7b73125e5e9a",
      "identifier": {
        "use": "usual",
        "value": "895062D0-60A8-4EB4-9017-5F489D53694D"
      },
      "status": "final",
      "type": {
        "coding": [ {
          "system": "http://snomed.info/sct",
          "code": "371531000",
          "display": "Report of clinical encounter (record artifact)"
        } ]
      },
      "subject": {
        "reference": "urn:uuid:f921de2d-950d-4859-82b9-10b7d5faa739"
      },
      "encounter": {
        "reference": "urn:uuid:1defaeca-90d9-4f3c-b01e-b24ada495979"
      },
      "date": "2021-09-14T09:23:28+00:00",
      "author": [ {
        "reference": "urn:uuid:04559aed-a751-48ab-ad58-acdd50af4ed1"
      } ],
      "title": "111 Report",
      "confidentiality": "R",
      "section": [ {
        "section": [ {
          "title": "Patient's Reported Condition",
          "text": {
            "status": "generated",
            "div": "<div xmlns=\"http://www.w3.org/1999/xhtml\">&lt;xml-fragment mediaType=&quot;text/x-hl7-text+xml&quot; xmlns:xsd=&quot;http://www.w3.org/2001/XMLSchema&quot; xmlns:xsi=&quot;http://www.w3.org/2001/XMLSchema-instance&quot;&gt;\n                                                    &lt;urn:content xmlns:urn=&quot;urn:hl7-org:v3&quot;&gt;&amp;lt;CLEO Ref: 2100310450&gt; Test Call &lt;urn:br/&gt;\n                                                    &lt;/urn:content&gt;\n                                                &lt;/xml-fragment&gt;</div>"
          }
        }, {
          "title": "Pathways Disposition",
          "text": {
            "status": "generated",
            "div": "<div xmlns=\"http://www.w3.org/1999/xhtml\">&lt;xml-fragment mediaType=&quot;text/x-hl7-text+xml&quot; xmlns:xsd=&quot;http://www.w3.org/2001/XMLSchema&quot; xmlns:xsi=&quot;http://www.w3.org/2001/XMLSchema-instance&quot;&gt;\n                                                    &lt;urn:content xmlns:urn=&quot;urn:hl7-org:v3&quot;&gt;If a pharmacy service is not available contact the GP practice during normal working hours. (Dx10)&lt;/urn:content&gt;\n                                                    &lt;urn:br xmlns:urn=&quot;urn:hl7-org:v3&quot;/&gt;\n                                                    &lt;urn:br xmlns:urn=&quot;urn:hl7-org:v3&quot;/&gt;\n                                                    &lt;urn:content xmlns:urn=&quot;urn:hl7-org:v3&quot;&gt;Selected Service: 1335970392, Out of Hours GP Service (Waveney) - Kirkley Mill Health Centre, Lowestoft, 111&lt;/urn:content&gt;\n                                                    &lt;urn:br xmlns:urn=&quot;urn:hl7-org:v3&quot;/&gt;\n                                                &lt;/xml-fragment&gt;</div>"
          }
        }, {
          "title": "Consultation Summary",
          "text": {
            "status": "generated",
            "div": "<div xmlns=\"http://www.w3.org/1999/xhtml\">&lt;xml-fragment mediaType=&quot;text/x-hl7-text+xml&quot; xmlns:xsd=&quot;http://www.w3.org/2001/XMLSchema&quot; xmlns:xsi=&quot;http://www.w3.org/2001/XMLSchema-instance&quot;&gt;\n                                                    &lt;urn:content xmlns:urn=&quot;urn:hl7-org:v3&quot;&gt;\n                                                        &lt;urn:content&gt;Worst acne feature, blackheads or whiteheads&lt;/urn:content&gt;\n                                                        &lt;urn:br/&gt;\n                                                        &lt;urn:content&gt;Acne&lt;/urn:content&gt;\n                                                        &lt;urn:br/&gt;\n                                                        &lt;urn:content&gt;Warm to touch&lt;/urn:content&gt;\n                                                        &lt;urn:br/&gt;\n                                                        &lt;urn:content&gt;Illness - test&lt;/urn:content&gt;\n                                                        &lt;urn:br/&gt;\n                                                    &lt;/urn:content&gt;\n                                                &lt;/xml-fragment&gt;</div>"
          }
        }, {
          "title": "Pathways Assessment",
          "text": {
            "status": "generated",
            "div": "<div xmlns=\"http://www.w3.org/1999/xhtml\">&lt;xml-fragment mediaType=&quot;text/x-hl7-text+xml&quot; xmlns:xsd=&quot;http://www.w3.org/2001/XMLSchema&quot; xmlns:xsi=&quot;http://www.w3.org/2001/XMLSchema-instance&quot;&gt;\n                                                    &lt;urn:content xmlns:urn=&quot;urn:hl7-org:v3&quot;&gt;An injury or health problem was the reason for the contact.&lt;/urn:content&gt;\n                                                    &lt;urn:br xmlns:urn=&quot;urn:hl7-org:v3&quot;/&gt;\n                                                    &lt;urn:content xmlns:urn=&quot;urn:hl7-org:v3&quot;&gt;Heavy bleeding had not occurred in the previous 2 hours.&lt;/urn:content&gt;\n                                                    &lt;urn:br xmlns:urn=&quot;urn:hl7-org:v3&quot;/&gt;\n                                                    &lt;urn:content xmlns:urn=&quot;urn:hl7-org:v3&quot;&gt;An illness or health problem was the main problem. - test&lt;/urn:content&gt;\n                                                    &lt;urn:br xmlns:urn=&quot;urn:hl7-org:v3&quot;/&gt;\n                                                    &lt;urn:content xmlns:urn=&quot;urn:hl7-org:v3&quot;&gt;The individual was not fighting for breath.&lt;/urn:content&gt;\n                                                    &lt;urn:br xmlns:urn=&quot;urn:hl7-org:v3&quot;/&gt;\n                                                    &lt;urn:content xmlns:urn=&quot;urn:hl7-org:v3&quot;&gt;The main reason for the assessment was not an allergic reaction, heart attack, chest/upper back pain, probable stroke, recent fit/seizure or suicide attempt.&lt;/urn:content&gt;\n                                                    &lt;urn:br xmlns:urn=&quot;urn:hl7-org:v3&quot;/&gt;\n                                                    &lt;urn:content xmlns:urn=&quot;urn:hl7-org:v3&quot;&gt;The main reason for contact was not new confusion, declared diabetic hypo/hyperglycaemia, or ICD shock.&lt;/urn:content&gt;\n                                                    &lt;urn:br xmlns:urn=&quot;urn:hl7-org:v3&quot;/&gt;\n                                                    &lt;urn:content xmlns:urn=&quot;urn:hl7-org:v3&quot;&gt;The skin on the torso felt normal, warm or hot.&lt;/urn:content&gt;\n                                                    &lt;urn:br xmlns:urn=&quot;urn:hl7-org:v3&quot;/&gt;\n                                                    &lt;urn:content xmlns:urn=&quot;urn:hl7-org:v3&quot;&gt;The main problem was not a rash, itch, jaundice, skin lumps or abnormal bruising.&lt;/urn:content&gt;\n                                                    &lt;urn:br xmlns:urn=&quot;urn:hl7-org:v3&quot;/&gt;\n                                                    &lt;urn:content xmlns:urn=&quot;urn:hl7-org:v3&quot;&gt;The main problem was acne, spots or pimples.&lt;/urn:content&gt;\n                                                    &lt;urn:br xmlns:urn=&quot;urn:hl7-org:v3&quot;/&gt;\n                                                    &lt;urn:content xmlns:urn=&quot;urn:hl7-org:v3&quot;&gt;The worst problem with the acne was blackheads or white heads.&lt;/urn:content&gt;\n                                                    &lt;urn:br xmlns:urn=&quot;urn:hl7-org:v3&quot;/&gt;\n                                                    &lt;urn:content xmlns:urn=&quot;urn:hl7-org:v3&quot;&gt;The problem had not persisted for 3 months or got worse over that time.&lt;/urn:content&gt;\n                                                    &lt;urn:br xmlns:urn=&quot;urn:hl7-org:v3&quot;/&gt;\n                                                &lt;/xml-fragment&gt;</div>"
          }
        }, {
          "title": "Advice Given",
          "text": {
            "status": "generated",
            "div": "<div xmlns=\"http://www.w3.org/1999/xhtml\">&lt;xml-fragment mediaType=&quot;text/x-hl7-text+xml&quot; xmlns:xsd=&quot;http://www.w3.org/2001/XMLSchema&quot; xmlns:xsi=&quot;http://www.w3.org/2001/XMLSchema-instance&quot;&gt;\n                                                    &lt;urn:content xmlns:urn=&quot;urn:hl7-org:v3&quot;&gt;Speak to a pharmacist for advice on suitable treatment.&lt;/urn:content&gt;\n                                                    &lt;urn:br xmlns:urn=&quot;urn:hl7-org:v3&quot;/&gt;\n                                                    &lt;urn:content xmlns:urn=&quot;urn:hl7-org:v3&quot;&gt;If there are any new symptoms, or if the condition gets worse, changes or you have any other concerns, call us back.&lt;/urn:content&gt;\n                                                    &lt;urn:br xmlns:urn=&quot;urn:hl7-org:v3&quot;/&gt;\n                                                &lt;/xml-fragment&gt;</div>"
          }
        }, {
          "title": "SCR Consent",
          "text": {
            "status": "generated",
            "div": "<div xmlns=\"http://www.w3.org/1999/xhtml\">&lt;xml-fragment mediaType=&quot;text/x-hl7-text+xml&quot; xmlns:xsd=&quot;http://www.w3.org/2001/XMLSchema&quot; xmlns:xsi=&quot;http://www.w3.org/2001/XMLSchema-instance&quot;&gt;\n                                                    &lt;urn:content xmlns:urn=&quot;urn:hl7-org:v3&quot;&gt;Consent given for SCR sharing&lt;urn:br/&gt;\n                                                        &lt;urn:br/&gt;\n                                                    &lt;/urn:content&gt;\n                                                &lt;/xml-fragment&gt;</div>"
          }
        } ]
      }, {
        "title": "ReferralRequest",
        "entry": [ {
          "reference": "urn:uuid:e98b5b55-978c-477f-abcf-ddc6bba2fbf8"
        } ]
      } ]
    }
  }, {
    "fullUrl": "urn:uuid:d1baac95-3d33-4534-8edc-41b2a5466c95",
    "resource": {
      "resourceType": "Consent",
      "id": "d1baac95-3d33-4534-8edc-41b2a5466c95",
      "identifier": {
        "use": "usual",
        "value": "895062D0-60A8-4EB4-9017-5F489D53694D"
      },
      "status": "active",
      "patient": {
        "reference": "urn:uuid:f921de2d-950d-4859-82b9-10b7d5faa739"
      },
      "period": {
        "start": "2021-05-13T17:24:56+00:00"
      },
      "consentingParty": [ {
        "reference": "urn:uuid:f921de2d-950d-4859-82b9-10b7d5faa739"
      } ],
      "action": [ {
        "coding": [ {
          "system": "http://snomed.info/sct",
          "code": "425691002",
          "display": "Consent given for electronic record sharing"
        } ],
        "text": "Consent given for electronic record sharing"
      } ],
      "organization": [ {
        "reference": "urn:uuid:2771be4f-ea8b-4c12-ac9b-0d9587e02884"
      } ],
      "policyRule": "http://hl7.org/fhir/ConsentPolicy/opt-out",
      "data": [ {
        "meaning": "related",
        "reference": {
          "reference": "urn:uuid:1defaeca-90d9-4f3c-b01e-b24ada495979"
        }
      } ]
    }
  }, {
    "fullUrl": "urn:uuid:6aedd0f9-a559-4cef-9f68-c5ef14116193",
    "resource": {
      "resourceType": "Condition",
      "id": "6aedd0f9-a559-4cef-9f68-c5ef14116193",
      "clinicalStatus": "active",
      "verificationStatus": "unknown",
      "subject": {
        "reference": "urn:uuid:f921de2d-950d-4859-82b9-10b7d5faa739"
      },
      "context": {
        "reference": "urn:uuid:1defaeca-90d9-4f3c-b01e-b24ada495979"
      }
    }
  }, {
    "fullUrl": "urn:uuid:f4843a90-b995-4a79-9988-565890abbc78",
    "resource": {
      "resourceType": "Observation",
      "id": "f4843a90-b995-4a79-9988-565890abbc78",
      "status": "final",
      "code": {
        "coding": [ {
          "system": "http://snomed.info/sct",
          "code": "33962009",
          "display": "Presenting complaint"
        } ]
      },
      "subject": {
        "reference": "urn:uuid:f921de2d-950d-4859-82b9-10b7d5faa739"
      },
      "context": {
        "reference": "urn:uuid:1defaeca-90d9-4f3c-b01e-b24ada495979"
      },
      "valueString": "<CLEO Ref: 2100310450> Test Call "
    }
  }, {
    "fullUrl": "urn:uuid:d19c3d2b-4ba7-4312-827a-5e7b4cf2b14c",
    "resource": {
      "resourceType": "PractitionerRole",
      "id": "d19c3d2b-4ba7-4312-827a-5e7b4cf2b14c",
      "practitioner": {
        "reference": "urn:uuid:04559aed-a751-48ab-ad58-acdd50af4ed1"
      },
      "organization": {
        "reference": "urn:uuid:824f4e67-232a-4347-8631-d04271904dce"
      },
      "code": [ {
        "coding": [ {
          "system": "2.16.840.1.113883.2.1.3.2.4.17.196",
          "code": "NR1690",
          "display": "Call Operator"
        } ]
      } ]
    }
  }, {
    "fullUrl": "urn:uuid:824f4e67-232a-4347-8631-d04271904dce",
    "resource": {
      "resourceType": "Organization",
      "id": "824f4e67-232a-4347-8631-d04271904dce",
      "identifier": [ {
        "value": "NTN08"
      } ],
      "name": "Norfolk and Wisbech 111"
    }
  }, {
    "fullUrl": "urn:uuid:372738b7-1333-4994-a80b-9707f628d34f",
    "resource": {
      "resourceType": "RelatedPerson",
      "id": "372738b7-1333-4994-a80b-9707f628d34f",
      "patient": {
        "reference": "urn:uuid:f921de2d-950d-4859-82b9-10b7d5faa739"
      },
      "relationship": {
        "coding": [ {
          "system": "http://hl7.org/fhir/v2/0131",
          "code": "C",
          "display": "Emergency Contact"
        } ]
      },
      "telecom": [ {
        "system": "phone",
        "value": "tel:01233123123"
      } ]
    }
  }, {
    "fullUrl": "urn:uuid:af3a55a3-b4d0-4589-9056-84b25c95bb21",
    "resource": {
      "resourceType": "Device",
      "id": "af3a55a3-b4d0-4589-9056-84b25c95bb21",
      "model": "111 Adaptor",
      "version": "0.8.0"
    }
  }, {
    "fullUrl": "urn:uuid:b4669cfe-0643-4d6b-8601-c1fd6682e99c",
    "resource": {
      "resourceType": "List",
      "id": "b4669cfe-0643-4d6b-8601-c1fd6682e99c",
      "status": "current",
      "mode": "working",
      "title": "111 Report List",
      "code": {
        "coding": [ {
          "system": "http://snomed.info/sct",
          "code": "225390008",
          "display": "Triage"
        } ]
      },
      "subject": {
        "reference": "urn:uuid:f921de2d-950d-4859-82b9-10b7d5faa739"
      },
      "encounter": {
        "reference": "urn:uuid:1defaeca-90d9-4f3c-b01e-b24ada495979"
      },
      "date": "2021-09-14T09:23:28+00:00",
      "source": {
        "reference": "urn:uuid:af3a55a3-b4d0-4589-9056-84b25c95bb21"
      },
      "orderedBy": {
        "coding": [ {
          "system": "http://hl7.org/fhir/list-order",
          "code": "event-date",
          "display": "Sorted by Event Date"
        } ]
      },
      "entry": [ {
        "item": {
          "reference": "urn:uuid:0a261593-d4c8-4d5e-83bd-ebc0c6928fbd"
        }
      }, {
        "item": {
          "reference": "urn:uuid:a2767213-2c86-43fa-b465-6b59b4ad368b"
        }
      }, {
        "item": {
          "reference": "urn:uuid:472da391-0dfb-4aa4-a58f-e5fdbdd9c3b3"
        }
      }, {
        "item": {
          "reference": "urn:uuid:824f4e67-232a-4347-8631-d04271904dce"
        }
      }, {
        "item": {
          "reference": "urn:uuid:6aedd0f9-a559-4cef-9f68-c5ef14116193"
        }
      }, {
        "item": {
          "reference": "urn:uuid:2771be4f-ea8b-4c12-ac9b-0d9587e02884"
        }
      }, {
        "item": {
          "reference": "urn:uuid:372738b7-1333-4994-a80b-9707f628d34f"
        }
      }, {
        "item": {
          "reference": "urn:uuid:f4843a90-b995-4a79-9988-565890abbc78"
        }
      }, {
        "item": {
          "reference": "urn:uuid:04559aed-a751-48ab-ad58-acdd50af4ed1"
        }
      }, {
        "item": {
          "reference": "urn:uuid:0e385fed-79c1-4714-b314-a4f74871de28"
        }
      }, {
        "item": {
          "reference": "urn:uuid:ab38d607-30be-45aa-bc6e-87f0931426f2"
        }
      }, {
        "item": {
          "reference": "urn:uuid:e98b5b55-978c-477f-abcf-ddc6bba2fbf8"
        }
      } ]
    }
  } ]
}