{
  "resourceType": "Bundle",
  "identifier": {
    "type": {
      "text": "ClinicalDocument VersionNumber"
    },
    "value": "1"
  },
  "type": "message",
  "entry": [ {
    "fullUrl": "urn:uuid:05040617-33BA-4344-AA59-281CF2FE63CA",
    "resource": {
      "resourceType": "MessageHeader",
      "id": "05040617-33BA-4344-AA59-281CF2FE63CA",
      "event": {
        "system": "https://fhir.nhs.uk/STU3/CodeSystem/EventType-1",
        "code": "referral-1",
        "display": "Referral"
      },
      "destination": [ {
        "endpoint": "urn:nhs-uk:addressing:ods:FHR04RPX:DOSServiceID:2000038667"
      } ],
      "timestamp": "2021-04-06T15:19:34.000+00:00",
      "source": {
        "name": "NHS 111 Adaptor",
        "endpoint": "http://localhost:8080/report"
      },
      "reason": {
        "coding": [ {
          "system": "urn:nhs-itk:ns:201005:interaction",
          "code": "urn:nhs-itk:interaction:primaryOutofHourRecipientNHS111CDADocument-v2-0"
        } ]
      }
    }
  }, {
    "fullUrl": "urn:uuid:209edeca-fca0-4a3e-8498-39e48a2d5571",
    "resource": {
      "resourceType": "Encounter",
      "id": "209edeca-fca0-4a3e-8498-39e48a2d5571",
      "identifier": [ {
        "system": "2.16.840.1.113883.2.1.3.2.4.18.34",
        "value": "AdastraCaseGUID34"
      }, {
        "system": "2.16.840.1.113883.2.1.3.2.4.18.35",
        "value": "AdastraCaseID35"
      }, {
        "system": "2.16.840.1.113883.2.1.3.2.4.18.49",
        "value": "AdastraCaseGUID49"
      } ],
      "status": "finished",
      "type": [ {
        "text": "111 Encounter Referral"
      } ],
      "subject": {
        "reference": "urn:uuid:6bc779de-d06a-4d39-a91b-eab240aab991"
      },
      "participant": [ {
        "type": [ {
          "coding": [ {
            "system": "http://hl7.org/fhir/ValueSet/encounter-participant-type",
            "code": "PPRF",
            "display": "Author"
          } ]
        } ],
        "individual": {
          "reference": "urn:uuid:b4840452-b421-4186-966b-e0f1886999eb"
        }
      }, {
        "type": [ {
          "text": "Informant"
        } ],
        "individual": {
          "reference": "urn:uuid:08d1140c-a66e-4039-bdd3-ad2597b8bf50"
        }
      }, {
        "type": [ {
          "coding": [ {
            "system": "http://hl7.org/fhir/ValueSet/encounter-participant-type",
            "code": "ATND",
            "display": "Responsible Party"
          } ]
        } ],
        "individual": {
          "reference": "urn:uuid:e51a72e6-22fc-44de-997e-ea22d0705c07"
        }
      } ],
      "period": {
        "start": "2021-04-06T15:19:34+00:00"
      },
      "location": [ {
        "location": {
          "reference": "urn:uuid:5f2aaac4-71d7-46ff-a239-28662256fb98"
        },
        "status": "completed"
      } ],
      "serviceProvider": {
        "reference": "urn:uuid:be57dd06-7f5a-4fc4-9fff-5936029f09ce"
      }
    }
  }, {
    "fullUrl": "urn:uuid:be57dd06-7f5a-4fc4-9fff-5936029f09ce",
    "resource": {
      "resourceType": "Organization",
      "id": "be57dd06-7f5a-4fc4-9fff-5936029f09ce",
      "active": true,
      "type": [ {
        "text": "CST"
      } ],
      "name": "CustodianName"
    }
  }, {
    "fullUrl": "urn:uuid:b4840452-b421-4186-966b-e0f1886999eb",
    "resource": {
      "resourceType": "Practitioner",
      "id": "b4840452-b421-4186-966b-e0f1886999eb",
      "active": true,
      "name": [ {
        "use": "official",
        "family": "AuthorAssignedPerson FamilyName",
        "given": [ "AuthorAssignedPerson GivenName" ]
      } ]
    }
  }, {
    "fullUrl": "urn:uuid:08d1140c-a66e-4039-bdd3-ad2597b8bf50",
    "resource": {
      "resourceType": "RelatedPerson",
      "id": "08d1140c-a66e-4039-bdd3-ad2597b8bf50",
      "active": true,
      "patient": {
        "reference": "urn:uuid:6bc779de-d06a-4d39-a91b-eab240aab991"
      },
      "relationship": {
        "coding": [ {
          "system": "2.16.840.1.113883.2.1.3.2.4.16.45",
          "code": "16",
          "display": "Relative"
        } ]
      },
      "name": [ {
        "text": "RelatedPerson Name"
      } ],
      "telecom": [ {
        "system": "phone",
        "value": "tel:01111111111",
        "use": "home"
      } ],
      "gender": "unknown"
    }
  }, {
    "fullUrl": "urn:uuid:e51a72e6-22fc-44de-997e-ea22d0705c07",
    "resource": {
      "resourceType": "Practitioner",
      "id": "e51a72e6-22fc-44de-997e-ea22d0705c07",
      "active": true,
      "name": [ {
        "use": "official",
        "family": "ResponsablePartyMD FamilyName",
        "given": [ "ResponsablePartyMD GivenName" ]
      } ]
    }
  }, {
    "fullUrl": "urn:uuid:5f2aaac4-71d7-46ff-a239-28662256fb98",
    "resource": {
      "resourceType": "Location",
      "id": "5f2aaac4-71d7-46ff-a239-28662256fb98",
      "name": "Incident Location",
      "address": {
        "type": "physical",
        "line": [ "HealthCareFacility AddressLine1", "HealthCareFacility AddressLine2", "HealthCareFacility AddressLine3", "HealthCareFacility AddressLine4", "HealthCareFacility AddressLine5" ],
        "postalCode": "LOH25 4NS"
      }
    }
  }, {
    "fullUrl": "urn:uuid:6bc779de-d06a-4d39-a91b-eab240aab991",
    "resource": {
      "resourceType": "Patient",
      "id": "6bc779de-d06a-4d39-a91b-eab240aab991",
      "active": true,
      "name": [ {
        "use": "official",
        "family": "Patient Family Name",
        "given": [ "Patient Given Name" ]
      } ],
      "telecom": [ {
        "system": "phone",
        "value": "tel:000000000000",
        "use": "home"
      }, {
        "system": "phone",
        "value": "tel:000000000000"
      } ],
      "gender": "other",
      "birthDate": "1990-02-02",
      "address": [ {
        "use": "home",
        "line": [ "Home Address Line 1", "Home Address Line 2", "Home Address Line 3", "Home Address Line 4", "Home Address Line 5" ],
        "postalCode": "HA25 4NS"
      }, {
        "type": "physical",
        "line": [ "Home Address Line 1", "Home Address Line 2", "Home Address Line 3", "Home Address Line 4", "Home Address Line 5" ],
        "postalCode": "PH25 4NS"
      } ]
    }
  }, {
    "fullUrl": "urn:uuid:cc7b6e0d-363f-455c-828a-adbfc1dc6cb8",
    "resource": {
      "resourceType": "HealthcareService",
      "id": "cc7b6e0d-363f-455c-828a-adbfc1dc6cb8",
      "active": true,
      "providedBy": {
        "reference": "urn:uuid:2fb6ca08-9674-4815-8027-bf09dcaaaf66"
      },
      "location": [ {
        "reference": "urn:uuid:77e3ab23-7876-4fcf-b9ad-9212281be9fa"
      } ],
      "name": "InformationRecipient IntendedRecipient Name FHR0"
    }
  }, {
    "fullUrl": "urn:uuid:77e3ab23-7876-4fcf-b9ad-9212281be9fa",
    "resource": {
      "resourceType": "Location",
      "id": "77e3ab23-7876-4fcf-b9ad-9212281be9fa",
      "managingOrganization": {
        "reference": "urn:uuid:2fb6ca08-9674-4815-8027-bf09dcaaaf66"
      }
    }
  }, {
    "fullUrl": "urn:uuid:2fb6ca08-9674-4815-8027-bf09dcaaaf66",
    "resource": {
      "resourceType": "Organization",
      "id": "2fb6ca08-9674-4815-8027-bf09dcaaaf66",
      "identifier": [ {
        "value": "FHR04RPX"
      } ],
      "type": [ {
        "coding": [ {
          "code": "PRCP",
          "display": "InformationRecipient IntendedRecipient Name FHR0"
        } ]
      } ],
      "name": "InformationRecipient IntendedRecipient Name FHR0"
    }
  }, {
    "fullUrl": "urn:uuid:8eb2c3a4-abda-41fd-89a7-0ca74f81e028",
    "resource": {
      "resourceType": "ReferralRequest",
      "id": "8eb2c3a4-abda-41fd-89a7-0ca74f81e028",
      "status": "active",
      "intent": "plan",
      "priority": "routine",
      "subject": {
        "reference": "urn:uuid:6bc779de-d06a-4d39-a91b-eab240aab991"
      },
      "context": {
        "reference": "urn:uuid:209edeca-fca0-4a3e-8498-39e48a2d5571"
      },
      "occurrencePeriod": {
        "start": "2021-09-15T09:16:06+00:00",
        "end": "2021-09-15T10:16:06+00:00"
      },
      "authoredOn": "2021-04-06T15:19:29+00:00",
      "requester": {
        "agent": {
          "reference": "urn:uuid:b61ab45b-fb34-42f7-acc8-bcb10b648acb"
        },
        "onBehalfOf": {
          "reference": "urn:uuid:be57dd06-7f5a-4fc4-9fff-5936029f09ce"
        }
      },
      "recipient": [ {
        "reference": "urn:uuid:cc7b6e0d-363f-455c-828a-adbfc1dc6cb8"
      } ],
      "reasonReference": [ {
        "reference": "urn:uuid:13e95f7e-f0a6-4075-9418-3becd0047f33"
      } ],
      "supportingInfo": [ {
        "reference": "urn:uuid:d9b45af5-8d1f-4133-b858-a9b4e55e94aa"
      } ]
    }
  }, {
    "fullUrl": "urn:uuid:d9b45af5-8d1f-4133-b858-a9b4e55e94aa",
    "resource": {
      "resourceType": "ProcedureRequest",
      "id": "d9b45af5-8d1f-4133-b858-a9b4e55e94aa",
      "status": "active",
      "intent": "plan",
      "priority": "routine",
      "doNotPerform": false,
      "code": {
        "coding": [ {
          "system": "2.16.840.1.113883.2.1.3.2.4.17.325",
          "code": "DispoCodeDx87",
          "display": "DispoName - Repeat Prescription required within 24 hours"
        } ]
      },
      "subject": {
        "reference": "urn:uuid:6bc779de-d06a-4d39-a91b-eab240aab991"
      },
      "occurrencePeriod": {
        "start": "2021-09-15T09:16:06+00:00",
        "end": "2021-09-15T10:16:06+00:00"
      },
      "reasonReference": [ {
        "reference": "urn:uuid:13e95f7e-f0a6-4075-9418-3becd0047f33"
      } ]
    }
  }, {
    "fullUrl": "urn:uuid:393b4137-0675-44d1-b336-e458aae38e05",
    "resource": {
      "resourceType": "Composition",
      "id": "393b4137-0675-44d1-b336-e458aae38e05",
      "identifier": {
        "use": "usual",
        "value": "E2DF04F7-95CA-40AD-808D-797C0A89E39C"
      },
      "status": "final",
      "type": {
        "coding": [ {
          "system": "http://snomed.info/sct",
          "code": "371531000",
          "display": "Report of clinical encounter (record artifact)"
        } ]
      },
      "subject": {
        "reference": "urn:uuid:6bc779de-d06a-4d39-a91b-eab240aab991"
      },
      "encounter": {
        "reference": "urn:uuid:209edeca-fca0-4a3e-8498-39e48a2d5571"
      },
      "date": "2021-09-15T09:16:06+00:00",
      "author": [ {
        "reference": "urn:uuid:b4840452-b421-4186-966b-e0f1886999eb"
      } ],
      "title": "111 Report",
      "confidentiality": "N",
      "section": [ {
        "section": [ {
          "title": "ComponentTitle - Patient's Reported Condition",
          "text": {
            "status": "generated",
            "div": "<div xmlns=\"http://www.w3.org/1999/xhtml\">&lt;xml-fragment xmlns:npfitlc=&quot;NPFIT:HL7:Localisation&quot; xmlns:xsi=&quot;http://www.w3.org/2001/XMLSchema-instance&quot;&gt;\n                                                    &lt;urn:content xmlns:urn=&quot;urn:hl7-org:v3&quot;&gt;ComponentText - Pharmacy ITK Testing&lt;/urn:content&gt;\n                                                    &lt;urn:br xmlns:urn=&quot;urn:hl7-org:v3&quot;/&gt;\n                                                &lt;/xml-fragment&gt;</div>"
          }
        }, {
          "title": "ComponentTitle - Pathways Disposition",
          "text": {
            "status": "generated",
            "div": "<div xmlns=\"http://www.w3.org/1999/xhtml\">&lt;xml-fragment xmlns:xsi=&quot;http://www.w3.org/2001/XMLSchema-instance&quot;&gt;ComponentText - Repeat Prescription required within 24 hours (Dx87)                                         &lt;urn:br xmlns:urn=&quot;urn:hl7-org:v3&quot;/&gt;\n                                                    &lt;urn:br xmlns:urn=&quot;urn:hl7-org:v3&quot;/&gt;                                         Selected service: Springvale, Fraser Road, Kings Worthy, Winchester&lt;urn:br xmlns:urn=&quot;urn:hl7-org:v3&quot;/&gt;\n                                                &lt;/xml-fragment&gt;</div>"
          }
        }, {
          "title": "ComponentTitle - Consultation Summary",
          "text": {
            "status": "generated",
            "div": "<div xmlns=\"http://www.w3.org/1999/xhtml\">&lt;xml-fragment xmlns:xsi=&quot;http://www.w3.org/2001/XMLSchema-instance&quot;&gt;ComponentText - Prescription request&lt;urn:br xmlns:urn=&quot;urn:hl7-org:v3&quot;/&gt;Not enough medication until surgery opens&lt;urn:br xmlns:urn=&quot;urn:hl7-org:v3&quot;/&gt;No medication available&lt;urn:br xmlns:urn=&quot;urn:hl7-org:v3&quot;/&gt;Next dose due in over 12 hours time&lt;urn:br xmlns:urn=&quot;urn:hl7-org:v3&quot;/&gt;\n                                                &lt;/xml-fragment&gt;</div>"
          }
        }, {
          "title": "ComponentTitle - Pathways Assessment",
          "text": {
            "status": "generated",
            "div": "<div xmlns=\"http://www.w3.org/1999/xhtml\">&lt;xml-fragment xmlns:xsi=&quot;http://www.w3.org/2001/XMLSchema-instance&quot;&gt;ComponentText - Reason for call menu - continued to next list.&lt;urn:br xmlns:urn=&quot;urn:hl7-org:v3&quot;/&gt;A prescription request was the main reason for the contact.&lt;urn:br xmlns:urn=&quot;urn:hl7-org:v3&quot;/&gt;The main reason for the contact was not a new or worsening illness.&lt;urn:br xmlns:urn=&quot;urn:hl7-org:v3&quot;/&gt;The individual did not have enough medication to last until the surgery next opened.&lt;urn:br xmlns:urn=&quot;urn:hl7-org:v3&quot;/&gt;The medication was suitable for repeat prescribing without further consultation.&lt;urn:br xmlns:urn=&quot;urn:hl7-org:v3&quot;/&gt;The individual had no medication available.&lt;urn:br xmlns:urn=&quot;urn:hl7-org:v3&quot;/&gt;The next dose was due in over 12 hours time.&lt;urn:br xmlns:urn=&quot;urn:hl7-org:v3&quot;/&gt;Instructions given were: The individual needs a repeat prescription.&lt;urn:br xmlns:urn=&quot;urn:hl7-org:v3&quot;/&gt;Directory of Services referral: Springvale, Fraser Road, Kings Worthy, Winchester&lt;urn:br xmlns:urn=&quot;urn:hl7-org:v3&quot;/&gt;\n                                                &lt;/xml-fragment&gt;</div>"
          }
        }, {
          "title": "ComponentTitle - Advice Given",
          "text": {
            "status": "generated",
            "div": "<div xmlns=\"http://www.w3.org/1999/xhtml\">&lt;xml-fragment xmlns:xsi=&quot;http://www.w3.org/2001/XMLSchema-instance&quot;&gt;ComponentText - I will arrange for a clinician or pharmacist to speak to the individual.&lt;urn:br xmlns:urn=&quot;urn:hl7-org:v3&quot;/&gt;IF THE RECOMMENDED TIMEFRAME FALLS OUTSIDE OPENING HOURS: I will arrange for a clinician to speak to the individual.&lt;urn:br xmlns:urn=&quot;urn:hl7-org:v3&quot;/&gt;\n                                                    &lt;urn:br xmlns:urn=&quot;urn:hl7-org:v3&quot;/&gt;\n                                                &lt;/xml-fragment&gt;</div>"
          }
        }, {
          "title": "ComponentTitle - Information And Advice Given",
          "text": {
            "status": "generated",
            "div": "<div xmlns=\"http://www.w3.org/1999/xhtml\">&lt;xml-fragment xmlns:npfitlc=&quot;NPFIT:HL7:Localisation&quot; xmlns:xsi=&quot;http://www.w3.org/2001/XMLSchema-instance&quot;/&gt;</div>"
          }
        }, {
          "title": "ComponentTitle - Disposition",
          "text": {
            "status": "generated",
            "div": "<div xmlns=\"http://www.w3.org/1999/xhtml\">&lt;xml-fragment xmlns:npfitlc=&quot;NPFIT:HL7:Localisation&quot; xmlns:xsi=&quot;http://www.w3.org/2001/XMLSchema-instance&quot;&gt;\n                                                    &lt;urn:content xmlns:urn=&quot;urn:hl7-org:v3&quot;&gt;ComponentText - Repeat Prescription required within 24 hours&lt;urn:br/&gt;\n                                                    &lt;/urn:content&gt;\n                                                    &lt;urn:br xmlns:urn=&quot;urn:hl7-org:v3&quot;/&gt;\n                                                    &lt;urn:br xmlns:urn=&quot;urn:hl7-org:v3&quot;/&gt;\n                                                &lt;/xml-fragment&gt;</div>"
          }
        } ]
      }, {
        "title": "CarePlan",
        "entry": [ {
          "reference": "urn:uuid:ebe94e71-e660-4532-a035-a3217a511d04"
        } ]
      }, {
        "title": "ReferralRequest",
        "entry": [ {
          "reference": "urn:uuid:8eb2c3a4-abda-41fd-89a7-0ca74f81e028"
        } ]
      }, {
        "title": "QuestionnaireResponse",
        "entry": [ {
          "reference": "urn:uuid:2d05fa70-c2a1-44a1-a22a-78fb6a6e70f9"
        } ]
      }, {
        "title": "QuestionnaireResponse",
        "entry": [ {
          "reference": "urn:uuid:cdd2e1d4-7b79-4abf-a63c-2d203a7cf172"
        } ]
      }, {
        "title": "QuestionnaireResponse",
        "entry": [ {
          "reference": "urn:uuid:86402fa9-85fa-47b6-8d2f-d80ea297cab7"
        } ]
      }, {
        "title": "QuestionnaireResponse",
        "entry": [ {
          "reference": "urn:uuid:6432c5a8-5ec3-4b6e-b56a-5c12c5388949"
        } ]
      }, {
        "title": "QuestionnaireResponse",
        "entry": [ {
          "reference": "urn:uuid:c392981a-469b-4d0f-833b-6dde26a49988"
        } ]
      }, {
        "title": "QuestionnaireResponse",
        "entry": [ {
          "reference": "urn:uuid:086e1043-1d67-45a6-9bf0-68a7ee49e1fb"
        } ]
      }, {
        "title": "QuestionnaireResponse",
        "entry": [ {
          "reference": "urn:uuid:0e5a02f8-8b22-41d5-bfee-3a0122db5d06"
        } ]
      }, {
        "title": "QuestionnaireResponse",
        "entry": [ {
          "reference": "urn:uuid:b12bc073-1c41-4317-8ff6-e4b7366fd929"
        } ]
      }, {
        "title": "QuestionnaireResponse",
        "entry": [ {
          "reference": "urn:uuid:87422814-24f3-4b75-b613-267f00127bd0"
        } ]
      }, {
        "title": "QuestionnaireResponse",
        "entry": [ {
          "reference": "urn:uuid:ada24aeb-fcf6-4825-b20b-97d988f42a2a"
        } ]
      }, {
        "title": "QuestionnaireResponse",
        "entry": [ {
          "reference": "urn:uuid:68730579-ff9d-46bf-af5b-136bfe22b851"
        } ]
      }, {
        "title": "QuestionnaireResponse",
        "entry": [ {
          "reference": "urn:uuid:8afd78de-2254-48b2-81ab-13f8a00faa96"
        } ]
      }, {
        "title": "QuestionnaireResponse",
        "entry": [ {
          "reference": "urn:uuid:1854ab19-d8de-42b7-80c3-870f7c0e6095"
        } ]
      }, {
        "title": "QuestionnaireResponse",
        "entry": [ {
          "reference": "urn:uuid:5e82c95a-69a1-4430-880b-2ef174f395f2"
        } ]
      }, {
        "title": "QuestionnaireResponse",
        "entry": [ {
          "reference": "urn:uuid:dd53c1b8-37c7-4fd3-a973-13f3228fb9f1"
        } ]
      } ]
    }
  }, {
    "fullUrl": "urn:uuid:ebe94e71-e660-4532-a035-a3217a511d04",
    "resource": {
      "resourceType": "CarePlan",
      "id": "ebe94e71-e660-4532-a035-a3217a511d04",
      "status": "completed",
      "intent": "plan",
      "title": "ComponentTitle - Information And Advice Given",
      "subject": {
        "reference": "urn:uuid:6bc779de-d06a-4d39-a91b-eab240aab991"
      },
      "context": {
        "reference": "urn:uuid:209edeca-fca0-4a3e-8498-39e48a2d5571"
      },
      "period": {
        "start": "2021-04-06T15:19:34+00:00"
      },
      "addresses": [ {
        "reference": "urn:uuid:13e95f7e-f0a6-4075-9418-3becd0047f33"
      } ]
    }
  }, {
    "fullUrl": "urn:uuid:0ae191bf-ed2c-480e-9e80-e3a0cbc1a2b4",
    "resource": {
      "resourceType": "Consent",
      "id": "0ae191bf-ed2c-480e-9e80-e3a0cbc1a2b4",
      "identifier": {
        "use": "usual",
        "value": "E2DF04F7-95CA-40AD-808D-797C0A89E39C"
      },
      "status": "active",
      "patient": {
        "reference": "urn:uuid:6bc779de-d06a-4d39-a91b-eab240aab991"
      },
      "period": {
        "start": "2021-04-06T15:19:34+00:00"
      },
      "consentingParty": [ {
        "reference": "urn:uuid:6bc779de-d06a-4d39-a91b-eab240aab991"
      } ],
      "action": [ {
        "coding": [ {
          "system": "http://snomed.info/sct",
          "code": "425691002",
          "display": "Consent given for electronic record sharing"
        } ],
        "text": "Consent given for electronic record sharing"
      } ],
      "organization": [ {
        "reference": "urn:uuid:be57dd06-7f5a-4fc4-9fff-5936029f09ce"
      } ],
      "policyRule": "http://hl7.org/fhir/ConsentPolicy/opt-out",
      "data": [ {
        "meaning": "related",
        "reference": {
          "reference": "urn:uuid:209edeca-fca0-4a3e-8498-39e48a2d5571"
        }
      } ]
    }
  }, {
    "fullUrl": "urn:uuid:13e95f7e-f0a6-4075-9418-3becd0047f33",
    "resource": {
      "resourceType": "Condition",
      "id": "13e95f7e-f0a6-4075-9418-3becd0047f33",
      "clinicalStatus": "active",
      "verificationStatus": "unknown",
      "subject": {
        "reference": "urn:uuid:6bc779de-d06a-4d39-a91b-eab240aab991"
      },
      "context": {
        "reference": "urn:uuid:209edeca-fca0-4a3e-8498-39e48a2d5571"
      },
      "evidence": [ {
        "detail": [ {
          "reference": "urn:uuid:2d05fa70-c2a1-44a1-a22a-78fb6a6e70f9"
        } ]
      }, {
        "detail": [ {
          "reference": "urn:uuid:cdd2e1d4-7b79-4abf-a63c-2d203a7cf172"
        } ]
      }, {
        "detail": [ {
          "reference": "urn:uuid:86402fa9-85fa-47b6-8d2f-d80ea297cab7"
        } ]
      }, {
        "detail": [ {
          "reference": "urn:uuid:6432c5a8-5ec3-4b6e-b56a-5c12c5388949"
        } ]
      }, {
        "detail": [ {
          "reference": "urn:uuid:c392981a-469b-4d0f-833b-6dde26a49988"
        } ]
      }, {
        "detail": [ {
          "reference": "urn:uuid:086e1043-1d67-45a6-9bf0-68a7ee49e1fb"
        } ]
      }, {
        "detail": [ {
          "reference": "urn:uuid:0e5a02f8-8b22-41d5-bfee-3a0122db5d06"
        } ]
      }, {
        "detail": [ {
          "reference": "urn:uuid:b12bc073-1c41-4317-8ff6-e4b7366fd929"
        } ]
      }, {
        "detail": [ {
          "reference": "urn:uuid:87422814-24f3-4b75-b613-267f00127bd0"
        } ]
      }, {
        "detail": [ {
          "reference": "urn:uuid:ada24aeb-fcf6-4825-b20b-97d988f42a2a"
        } ]
      }, {
        "detail": [ {
          "reference": "urn:uuid:68730579-ff9d-46bf-af5b-136bfe22b851"
        } ]
      }, {
        "detail": [ {
          "reference": "urn:uuid:8afd78de-2254-48b2-81ab-13f8a00faa96"
        } ]
      }, {
        "detail": [ {
          "reference": "urn:uuid:1854ab19-d8de-42b7-80c3-870f7c0e6095"
        } ]
      }, {
        "detail": [ {
          "reference": "urn:uuid:5e82c95a-69a1-4430-880b-2ef174f395f2"
        } ]
      }, {
        "detail": [ {
          "reference": "urn:uuid:dd53c1b8-37c7-4fd3-a973-13f3228fb9f1"
        } ]
      } ]
    }
  }, {
    "fullUrl": "urn:uuid:2d05fa70-c2a1-44a1-a22a-78fb6a6e70f9",
    "resource": {
      "resourceType": "QuestionnaireResponse",
      "id": "2d05fa70-c2a1-44a1-a22a-78fb6a6e70f9",
      "identifier": {
        "value": "60319"
      },
      "questionnaire": {
        "reference": "urn:uuid:a72ac4a1-f76e-47d6-9d0f-03a4e3bb69f3"
      },
      "status": "completed",
      "subject": {
        "reference": "urn:uuid:6bc779de-d06a-4d39-a91b-eab240aab991"
      },
      "context": {
        "reference": "urn:uuid:209edeca-fca0-4a3e-8498-39e48a2d5571"
      },
      "authored": "2021-04-06T15:19:34+00:00",
      "item": [ {
        "linkId": "Tx220109",
        "text": "What is the reason for the contact?",
        "answer": [ {
          "valueString": "more"
        } ]
      } ]
    }
  }, {
    "fullUrl": "urn:uuid:a72ac4a1-f76e-47d6-9d0f-03a4e3bb69f3",
    "resource": {
      "resourceType": "Questionnaire",
      "id": "a72ac4a1-f76e-47d6-9d0f-03a4e3bb69f3",
      "identifier": [ {
        "value": "60319"
      } ],
      "version": "2021-04-06T15:19:34.083Z",
      "status": "active",
      "experimental": false,
      "date": "2021-04-06T15:19:34+00:00",
      "publisher": "User ID: 'HADFIELDR' User name: 'Ryan Hadfield' User skill set: 'T3'",
      "lastReviewDate": "2021-04-06",
      "contact": [ {
        "telecom": [ {
          "system": "phone",
          "value": "0111 111 1111"
        } ]
      } ],
      "subjectType": [ "Patient" ],
      "item": [ {
        "linkId": "60319",
        "prefix": "5",
        "text": "What is the reason for the contact?",
        "type": "choice",
        "required": true,
        "repeats": false,
        "option": [ {
          "valueString": "an injury or other health problem, Selected: false"
        }, {
          "valueString": "a need to access another healthcare service, Selected: false"
        }, {
          "valueString": "a healthcare professional requesting contact with another clinician, Selected: false"
        }, {
          "valueString": "a report of results or tests, Selected: false"
        }, {
          "valueString": "more, Selected: true"
        } ]
      } ]
    }
  }, {
    "fullUrl": "urn:uuid:cdd2e1d4-7b79-4abf-a63c-2d203a7cf172",
    "resource": {
      "resourceType": "QuestionnaireResponse",
      "id": "cdd2e1d4-7b79-4abf-a63c-2d203a7cf172",
      "identifier": {
        "value": "60319"
      },
      "questionnaire": {
        "reference": "urn:uuid:7b60170c-362c-4386-b93c-806fcd7e3f51"
      },
      "status": "completed",
      "subject": {
        "reference": "urn:uuid:6bc779de-d06a-4d39-a91b-eab240aab991"
      },
      "context": {
        "reference": "urn:uuid:209edeca-fca0-4a3e-8498-39e48a2d5571"
      },
      "authored": "2021-04-06T15:19:34+00:00",
      "item": [ {
        "linkId": "Tx221793",
        "text": "STRING:to'Social&information'-further'Callreason'menu",
        "answer": [ {
          "valueString": "\"present\""
        } ]
      } ]
    }
  }, {
    "fullUrl": "urn:uuid:7b60170c-362c-4386-b93c-806fcd7e3f51",
    "resource": {
      "resourceType": "Questionnaire",
      "id": "7b60170c-362c-4386-b93c-806fcd7e3f51",
      "identifier": [ {
        "value": "60319"
      } ],
      "version": "2021-04-06T15:19:34.083Z",
      "status": "active",
      "experimental": false,
      "date": "2021-04-06T15:19:34+00:00",
      "publisher": "User ID: 'HADFIELDR' User name: 'Ryan Hadfield' User skill set: 'T3'",
      "lastReviewDate": "2021-04-06",
      "contact": [ {
        "telecom": [ {
          "system": "phone",
          "value": "0111 111 1111"
        } ]
      } ],
      "subjectType": [ "Patient" ],
      "item": [ {
        "linkId": "60319",
        "prefix": "600",
        "text": "STRING:to'Social&information'-further'Callreason'menu",
        "type": "choice",
        "required": true,
        "repeats": false,
        "option": [ {
          "valueString": "\"present\", Selected: true"
        } ]
      } ]
    }
  }, {
    "fullUrl": "urn:uuid:86402fa9-85fa-47b6-8d2f-d80ea297cab7",
    "resource": {
      "resourceType": "QuestionnaireResponse",
      "id": "86402fa9-85fa-47b6-8d2f-d80ea297cab7",
      "identifier": {
        "value": "60319"
      },
      "questionnaire": {
        "reference": "urn:uuid:6e0fe8a6-35a8-42e9-bade-a90e1c4ce58d"
      },
      "status": "completed",
      "subject": {
        "reference": "urn:uuid:6bc779de-d06a-4d39-a91b-eab240aab991"
      },
      "context": {
        "reference": "urn:uuid:209edeca-fca0-4a3e-8498-39e48a2d5571"
      },
      "authored": "2021-04-06T15:19:34+00:00"
    }
  }, {
    "fullUrl": "urn:uuid:6e0fe8a6-35a8-42e9-bade-a90e1c4ce58d",
    "resource": {
      "resourceType": "Questionnaire",
      "id": "6e0fe8a6-35a8-42e9-bade-a90e1c4ce58d",
      "identifier": [ {
        "value": "60319"
      } ],
      "version": "2021-04-06T15:19:34.083Z",
      "status": "active",
      "experimental": false,
      "date": "2021-04-06T15:19:34+00:00",
      "publisher": "User ID: 'HADFIELDR' User name: 'Ryan Hadfield' User skill set: 'T3'",
      "lastReviewDate": "2021-04-06",
      "contact": [ {
        "telecom": [ {
          "system": "phone",
          "value": "0111 111 1111"
        } ]
      } ],
      "subjectType": [ "Patient" ]
    }
  }, {
    "fullUrl": "urn:uuid:6432c5a8-5ec3-4b6e-b56a-5c12c5388949",
    "resource": {
      "resourceType": "QuestionnaireResponse",
      "id": "6432c5a8-5ec3-4b6e-b56a-5c12c5388949",
      "identifier": {
        "value": "60319"
      },
      "questionnaire": {
        "reference": "urn:uuid:24a50549-f82d-4e3d-be01-292df2c003b2"
      },
      "status": "completed",
      "subject": {
        "reference": "urn:uuid:6bc779de-d06a-4d39-a91b-eab240aab991"
      },
      "context": {
        "reference": "urn:uuid:209edeca-fca0-4a3e-8498-39e48a2d5571"
      },
      "authored": "2021-04-06T15:19:34+00:00",
      "item": [ {
        "linkId": "Tx221804",
        "text": "STRING:transfertofurthermenuquestionestablishedinEntryFlow",
        "answer": [ {
          "valueString": "\"present\""
        } ]
      } ]
    }
  }, {
    "fullUrl": "urn:uuid:24a50549-f82d-4e3d-be01-292df2c003b2",
    "resource": {
      "resourceType": "Questionnaire",
      "id": "24a50549-f82d-4e3d-be01-292df2c003b2",
      "identifier": [ {
        "value": "60319"
      } ],
      "version": "2021-04-06T15:19:34.083Z",
      "status": "active",
      "experimental": false,
      "date": "2021-04-06T15:19:34+00:00",
      "publisher": "User ID: 'HADFIELDR' User name: 'Ryan Hadfield' User skill set: 'T3'",
      "lastReviewDate": "2021-04-06",
      "contact": [ {
        "telecom": [ {
          "system": "phone",
          "value": "0111 111 1111"
        } ]
      } ],
      "subjectType": [ "Patient" ],
      "item": [ {
        "linkId": "60319",
        "prefix": "41",
        "text": "STRING:transfertofurthermenuquestionestablishedinEntryFlow",
        "type": "choice",
        "required": true,
        "repeats": false,
        "option": [ {
          "valueString": "\"present\", Selected: true"
        } ]
      } ]
    }
  }, {
    "fullUrl": "urn:uuid:c392981a-469b-4d0f-833b-6dde26a49988",
    "resource": {
      "resourceType": "QuestionnaireResponse",
      "id": "c392981a-469b-4d0f-833b-6dde26a49988",
      "identifier": {
        "value": "60319"
      },
      "questionnaire": {
        "reference": "urn:uuid:619cf086-3c2e-4d24-ba7a-aa9fceb5dff9"
      },
      "status": "completed",
      "subject": {
        "reference": "urn:uuid:6bc779de-d06a-4d39-a91b-eab240aab991"
      },
      "context": {
        "reference": "urn:uuid:209edeca-fca0-4a3e-8498-39e48a2d5571"
      },
      "authored": "2021-04-06T15:19:34+00:00",
      "item": [ {
        "linkId": "Tx224998",
        "text": "SYSTEM_COVIDLEVEL2",
        "answer": [ {
          "valueString": "==\"covidlevel2\""
        } ]
      } ]
    }
  }, {
    "fullUrl": "urn:uuid:619cf086-3c2e-4d24-ba7a-aa9fceb5dff9",
    "resource": {
      "resourceType": "Questionnaire",
      "id": "619cf086-3c2e-4d24-ba7a-aa9fceb5dff9",
      "identifier": [ {
        "value": "60319"
      } ],
      "version": "2021-04-06T15:19:34.083Z",
      "status": "active",
      "experimental": false,
      "date": "2021-04-06T15:19:34+00:00",
      "publisher": "User ID: 'HADFIELDR' User name: 'Ryan Hadfield' User skill set: 'T3'",
      "lastReviewDate": "2021-04-06",
      "contact": [ {
        "telecom": [ {
          "system": "phone",
          "value": "0111 111 1111"
        } ]
      } ],
      "subjectType": [ "Patient" ],
      "item": [ {
        "linkId": "60319",
        "prefix": "5900",
        "text": "SYSTEM_COVIDLEVEL2",
        "type": "choice",
        "required": true,
        "repeats": false,
        "option": [ {
          "valueString": "==\"covidlevel2\", Selected: true"
        }, {
          "valueString": "*, Selected: false"
        } ]
      } ]
    }
  }, {
    "fullUrl": "urn:uuid:086e1043-1d67-45a6-9bf0-68a7ee49e1fb",
    "resource": {
      "resourceType": "QuestionnaireResponse",
      "id": "086e1043-1d67-45a6-9bf0-68a7ee49e1fb",
      "identifier": {
        "value": "60319"
      },
      "questionnaire": {
        "reference": "urn:uuid:f623ee98-f922-4d7b-a460-13046574c45f"
      },
      "status": "completed",
      "subject": {
        "reference": "urn:uuid:6bc779de-d06a-4d39-a91b-eab240aab991"
      },
      "context": {
        "reference": "urn:uuid:209edeca-fca0-4a3e-8498-39e48a2d5571"
      },
      "authored": "2021-04-06T15:19:34+00:00",
      "item": [ {
        "linkId": "Tx225069",
        "text": "What is the reason for the contact?",
        "answer": [ {
          "valueString": "a prescription request"
        } ]
      } ]
    }
  }, {
    "fullUrl": "urn:uuid:f623ee98-f922-4d7b-a460-13046574c45f",
    "resource": {
      "resourceType": "Questionnaire",
      "id": "f623ee98-f922-4d7b-a460-13046574c45f",
      "identifier": [ {
        "value": "60319"
      } ],
      "version": "2021-04-06T15:19:34.083Z",
      "status": "active",
      "experimental": false,
      "date": "2021-04-06T15:19:34+00:00",
      "publisher": "User ID: 'HADFIELDR' User name: 'Ryan Hadfield' User skill set: 'T3'",
      "lastReviewDate": "2021-04-06",
      "contact": [ {
        "telecom": [ {
          "system": "phone",
          "value": "0111 111 1111"
        } ]
      } ],
      "subjectType": [ "Patient" ],
      "item": [ {
        "linkId": "60319",
        "prefix": "6000",
        "text": "What is the reason for the contact?",
        "type": "choice",
        "required": true,
        "repeats": false,
        "option": [ {
          "valueString": "a child protection/vulnerable adult concern (specify), Selected: false"
        }, {
          "valueString": "a social or domestic emergency, Selected: false"
        }, {
          "valueString": "a prescription request, Selected: true"
        }, {
          "valueString": "an appointment request, Selected: false"
        }, {
          "valueString": "a request for health or medication information, Selected: false"
        }, {
          "valueString": "public health alert information, Selected: false"
        } ]
      } ]
    }
  }, {
    "fullUrl": "urn:uuid:0e5a02f8-8b22-41d5-bfee-3a0122db5d06",
    "resource": {
      "resourceType": "QuestionnaireResponse",
      "id": "0e5a02f8-8b22-41d5-bfee-3a0122db5d06",
      "identifier": {
        "value": "60319"
      },
      "questionnaire": {
        "reference": "urn:uuid:6ac6c6f4-8639-48d4-a33a-6e6b72a5683f"
      },
      "status": "completed",
      "subject": {
        "reference": "urn:uuid:6bc779de-d06a-4d39-a91b-eab240aab991"
      },
      "context": {
        "reference": "urn:uuid:209edeca-fca0-4a3e-8498-39e48a2d5571"
      },
      "authored": "2021-04-06T15:19:34+00:00",
      "item": [ {
        "linkId": "Tx220957",
        "text": "Is this contact about a new or worsening illness?",
        "answer": [ {
          "valueString": "no"
        } ]
      } ]
    }
  }, {
    "fullUrl": "urn:uuid:6ac6c6f4-8639-48d4-a33a-6e6b72a5683f",
    "resource": {
      "resourceType": "Questionnaire",
      "id": "6ac6c6f4-8639-48d4-a33a-6e6b72a5683f",
      "identifier": [ {
        "value": "60319"
      } ],
      "version": "2021-04-06T15:19:34.083Z",
      "status": "active",
      "experimental": false,
      "date": "2021-04-06T15:19:34+00:00",
      "publisher": "User ID: 'HADFIELDR' User name: 'Ryan Hadfield' User skill set: 'T3'",
      "lastReviewDate": "2021-04-06",
      "contact": [ {
        "telecom": [ {
          "system": "phone",
          "value": "0111 111 1111"
        } ]
      } ],
      "subjectType": [ "Patient" ],
      "item": [ {
        "linkId": "60319",
        "prefix": "1400",
        "text": "Is this contact about a new or worsening illness?",
        "type": "choice",
        "required": true,
        "repeats": false,
        "option": [ {
          "valueString": "yes, Selected: false"
        }, {
          "valueString": "not sure, Selected: false"
        }, {
          "valueString": "no, Selected: true"
        } ]
      } ]
    }
  }, {
    "fullUrl": "urn:uuid:b12bc073-1c41-4317-8ff6-e4b7366fd929",
    "resource": {
      "resourceType": "QuestionnaireResponse",
      "id": "b12bc073-1c41-4317-8ff6-e4b7366fd929",
      "identifier": {
        "value": "60319"
      },
      "questionnaire": {
        "reference": "urn:uuid:57cd4222-d1b1-4659-877e-b47431facd70"
      },
      "status": "completed",
      "subject": {
        "reference": "urn:uuid:6bc779de-d06a-4d39-a91b-eab240aab991"
      },
      "context": {
        "reference": "urn:uuid:209edeca-fca0-4a3e-8498-39e48a2d5571"
      },
      "authored": "2021-04-06T15:19:34+00:00",
      "item": [ {
        "linkId": "Tx221352",
        "text": "Have you got enough medication to last until the surgery opens?",
        "answer": [ {
          "valueString": "no"
        } ]
      } ]
    }
  }, {
    "fullUrl": "urn:uuid:57cd4222-d1b1-4659-877e-b47431facd70",
    "resource": {
      "resourceType": "Questionnaire",
      "id": "57cd4222-d1b1-4659-877e-b47431facd70",
      "identifier": [ {
        "value": "60319"
      } ],
      "version": "2021-04-06T15:19:34.083Z",
      "status": "active",
      "experimental": false,
      "date": "2021-04-06T15:19:34+00:00",
      "publisher": "User ID: 'HADFIELDR' User name: 'Ryan Hadfield' User skill set: 'T3'",
      "lastReviewDate": "2021-04-06",
      "contact": [ {
        "telecom": [ {
          "system": "phone",
          "value": "0111 111 1111"
        } ]
      } ],
      "subjectType": [ "Patient" ],
      "item": [ {
        "linkId": "60319",
        "prefix": "1500",
        "text": "Have you got enough medication to last until the surgery opens?",
        "type": "choice",
        "required": true,
        "repeats": false,
        "option": [ {
          "valueString": "yes, Selected: false"
        }, {
          "valueString": "not sure, Selected: false"
        }, {
          "valueString": "no, Selected: true"
        } ]
      } ]
    }
  }, {
    "fullUrl": "urn:uuid:87422814-24f3-4b75-b613-267f00127bd0",
    "resource": {
      "resourceType": "QuestionnaireResponse",
      "id": "87422814-24f3-4b75-b613-267f00127bd0",
      "identifier": {
        "value": "60319"
      },
      "questionnaire": {
        "reference": "urn:uuid:6925776a-c258-41aa-8e5f-97f6d3005237"
      },
      "status": "completed",
      "subject": {
        "reference": "urn:uuid:6bc779de-d06a-4d39-a91b-eab240aab991"
      },
      "context": {
        "reference": "urn:uuid:209edeca-fca0-4a3e-8498-39e48a2d5571"
      },
      "authored": "2021-04-06T15:19:34+00:00"
    }
  }, {
    "fullUrl": "urn:uuid:6925776a-c258-41aa-8e5f-97f6d3005237",
    "resource": {
      "resourceType": "Questionnaire",
      "id": "6925776a-c258-41aa-8e5f-97f6d3005237",
      "identifier": [ {
        "value": "60319"
      } ],
      "version": "2021-04-06T15:19:34.083Z",
      "status": "active",
      "experimental": false,
      "date": "2021-04-06T15:19:34+00:00",
      "publisher": "User ID: 'HADFIELDR' User name: 'Ryan Hadfield' User skill set: 'T3'",
      "lastReviewDate": "2021-04-06",
      "contact": [ {
        "telecom": [ {
          "system": "phone",
          "value": "0111 111 1111"
        } ]
      } ],
      "subjectType": [ "Patient" ]
    }
  }, {
    "fullUrl": "urn:uuid:ada24aeb-fcf6-4825-b20b-97d988f42a2a",
    "resource": {
      "resourceType": "QuestionnaireResponse",
      "id": "ada24aeb-fcf6-4825-b20b-97d988f42a2a",
      "identifier": {
        "value": "60319"
      },
      "questionnaire": {
        "reference": "urn:uuid:1bfeecc3-5c6f-4372-b835-0df86a7ef8d1"
      },
      "status": "completed",
      "subject": {
        "reference": "urn:uuid:6bc779de-d06a-4d39-a91b-eab240aab991"
      },
      "context": {
        "reference": "urn:uuid:209edeca-fca0-4a3e-8498-39e48a2d5571"
      },
      "authored": "2021-04-06T15:19:34+00:00",
      "item": [ {
        "linkId": "Tx224231",
        "text": "FROM WHAT YOU HAVE HEARD IS A CONSULTATION WITH A PRESCRIBER NEEDED?",
        "answer": [ {
          "valueString": "no"
        } ]
      } ]
    }
  }, {
    "fullUrl": "urn:uuid:1bfeecc3-5c6f-4372-b835-0df86a7ef8d1",
    "resource": {
      "resourceType": "Questionnaire",
      "id": "1bfeecc3-5c6f-4372-b835-0df86a7ef8d1",
      "identifier": [ {
        "value": "60319"
      } ],
      "version": "2021-04-06T15:19:34.083Z",
      "status": "active",
      "experimental": false,
      "date": "2021-04-06T15:19:34+00:00",
      "publisher": "User ID: 'HADFIELDR' User name: 'Ryan Hadfield' User skill set: 'T3'",
      "lastReviewDate": "2021-04-06",
      "contact": [ {
        "telecom": [ {
          "system": "phone",
          "value": "0111 111 1111"
        } ]
      } ],
      "subjectType": [ "Patient" ],
      "item": [ {
        "linkId": "60319",
        "prefix": "0",
        "text": "FROM WHAT YOU HAVE HEARD IS A CONSULTATION WITH A PRESCRIBER NEEDED?",
        "type": "choice",
        "required": true,
        "repeats": false,
        "option": [ {
          "valueString": "yes, Selected: false"
        }, {
          "valueString": "not sure, Selected: false"
        }, {
          "valueString": "no, Selected: true"
        } ]
      } ]
    }
  }, {
    "fullUrl": "urn:uuid:68730579-ff9d-46bf-af5b-136bfe22b851",
    "resource": {
      "resourceType": "QuestionnaireResponse",
      "id": "68730579-ff9d-46bf-af5b-136bfe22b851",
      "identifier": {
        "value": "60319"
      },
      "questionnaire": {
        "reference": "urn:uuid:d863905f-f091-4164-bb6a-cbbc21c23d1c"
      },
      "status": "completed",
      "subject": {
        "reference": "urn:uuid:6bc779de-d06a-4d39-a91b-eab240aab991"
      },
      "context": {
        "reference": "urn:uuid:209edeca-fca0-4a3e-8498-39e48a2d5571"
      },
      "authored": "2021-04-06T15:19:34+00:00",
      "item": [ {
        "linkId": "Tx222687",
        "text": "Have you got any of the medication available at the moment?",
        "answer": [ {
          "valueString": "no"
        } ]
      } ]
    }
  }, {
    "fullUrl": "urn:uuid:d863905f-f091-4164-bb6a-cbbc21c23d1c",
    "resource": {
      "resourceType": "Questionnaire",
      "id": "d863905f-f091-4164-bb6a-cbbc21c23d1c",
      "identifier": [ {
        "value": "60319"
      } ],
      "version": "2021-04-06T15:19:34.083Z",
      "status": "active",
      "experimental": false,
      "date": "2021-04-06T15:19:34+00:00",
      "publisher": "User ID: 'HADFIELDR' User name: 'Ryan Hadfield' User skill set: 'T3'",
      "lastReviewDate": "2021-04-06",
      "contact": [ {
        "telecom": [ {
          "system": "phone",
          "value": "0111 111 1111"
        } ]
      } ],
      "subjectType": [ "Patient" ],
      "item": [ {
        "linkId": "60319",
        "prefix": "200",
        "text": "Have you got any of the medication available at the moment?",
        "type": "choice",
        "required": true,
        "repeats": false,
        "option": [ {
          "valueString": "yes, Selected: false"
        }, {
          "valueString": "not sure, Selected: false"
        }, {
          "valueString": "no, Selected: true"
        } ]
      } ]
    }
  }, {
    "fullUrl": "urn:uuid:8afd78de-2254-48b2-81ab-13f8a00faa96",
    "resource": {
      "resourceType": "QuestionnaireResponse",
      "id": "8afd78de-2254-48b2-81ab-13f8a00faa96",
      "identifier": {
        "value": "60319"
      },
      "questionnaire": {
        "reference": "urn:uuid:fcdb3988-24fb-4158-b4a0-fd959da87699"
      },
      "status": "completed",
      "subject": {
        "reference": "urn:uuid:6bc779de-d06a-4d39-a91b-eab240aab991"
      },
      "context": {
        "reference": "urn:uuid:209edeca-fca0-4a3e-8498-39e48a2d5571"
      },
      "authored": "2021-04-06T15:19:34+00:00",
      "item": [ {
        "linkId": "Tx221367",
        "text": "When is the next dose due?",
        "answer": [ {
          "valueString": "over 12 hours time"
        } ]
      } ]
    }
  }, {
    "fullUrl": "urn:uuid:fcdb3988-24fb-4158-b4a0-fd959da87699",
    "resource": {
      "resourceType": "Questionnaire",
      "id": "fcdb3988-24fb-4158-b4a0-fd959da87699",
      "identifier": [ {
        "value": "60319"
      } ],
      "version": "2021-04-06T15:19:34.083Z",
      "status": "active",
      "experimental": false,
      "date": "2021-04-06T15:19:34+00:00",
      "publisher": "User ID: 'HADFIELDR' User name: 'Ryan Hadfield' User skill set: 'T3'",
      "lastReviewDate": "2021-04-06",
      "contact": [ {
        "telecom": [ {
          "system": "phone",
          "value": "0111 111 1111"
        } ]
      } ],
      "subjectType": [ "Patient" ],
      "item": [ {
        "linkId": "60319",
        "prefix": "100",
        "text": "When is the next dose due?",
        "type": "choice",
        "required": true,
        "repeats": false,
        "option": [ {
          "valueString": "within the next 2 hours, Selected: false"
        }, {
          "valueString": "within the next 6 hours, Selected: false"
        }, {
          "valueString": "within the next 12 hours, Selected: false"
        }, {
          "valueString": "over 12 hours time, Selected: true"
        }, {
          "valueString": "not sure, Selected: false"
        } ]
      } ]
    }
  }, {
    "fullUrl": "urn:uuid:1854ab19-d8de-42b7-80c3-870f7c0e6095",
    "resource": {
      "resourceType": "QuestionnaireResponse",
      "id": "1854ab19-d8de-42b7-80c3-870f7c0e6095",
      "identifier": {
        "value": "60319"
      },
      "questionnaire": {
        "reference": "urn:uuid:e0b1ee0f-18e9-4d86-ac10-c4f92aae6eb1"
      },
      "status": "completed",
      "subject": {
        "reference": "urn:uuid:6bc779de-d06a-4d39-a91b-eab240aab991"
      },
      "context": {
        "reference": "urn:uuid:209edeca-fca0-4a3e-8498-39e48a2d5571"
      },
      "authored": "2021-04-06T15:19:34+00:00",
      "item": [ {
        "linkId": "Tx223441",
        "text": "STRING:SDPCRepeatPrescription",
        "answer": [ {
          "valueString": "\"PC repeat prescription\""
        } ]
      } ]
    }
  }, {
    "fullUrl": "urn:uuid:e0b1ee0f-18e9-4d86-ac10-c4f92aae6eb1",
    "resource": {
      "resourceType": "Questionnaire",
      "id": "e0b1ee0f-18e9-4d86-ac10-c4f92aae6eb1",
      "identifier": [ {
        "value": "60319"
      } ],
      "version": "2021-04-06T15:19:34.083Z",
      "status": "active",
      "experimental": false,
      "date": "2021-04-06T15:19:34+00:00",
      "publisher": "User ID: 'HADFIELDR' User name: 'Ryan Hadfield' User skill set: 'T3'",
      "lastReviewDate": "2021-04-06",
      "contact": [ {
        "telecom": [ {
          "system": "phone",
          "value": "0111 111 1111"
        } ]
      } ],
      "subjectType": [ "Patient" ],
      "item": [ {
        "linkId": "60319",
        "prefix": "1100",
        "text": "STRING:SDPCRepeatPrescription",
        "type": "choice",
        "required": true,
        "repeats": false,
        "option": [ {
          "valueString": "\"PC repeat prescription\", Selected: true"
        } ]
      } ]
    }
  }, {
    "fullUrl": "urn:uuid:5e82c95a-69a1-4430-880b-2ef174f395f2",
    "resource": {
      "resourceType": "QuestionnaireResponse",
      "id": "5e82c95a-69a1-4430-880b-2ef174f395f2",
      "identifier": {
        "value": "60319"
      },
      "questionnaire": {
        "reference": "urn:uuid:ea182192-0831-40ca-a96b-533173ae8d6c"
      },
      "status": "completed",
      "subject": {
        "reference": "urn:uuid:6bc779de-d06a-4d39-a91b-eab240aab991"
      },
      "context": {
        "reference": "urn:uuid:209edeca-fca0-4a3e-8498-39e48a2d5571"
      },
      "authored": "2021-04-06T15:19:34+00:00"
    }
  }, {
    "fullUrl": "urn:uuid:ea182192-0831-40ca-a96b-533173ae8d6c",
    "resource": {
      "resourceType": "Questionnaire",
      "id": "ea182192-0831-40ca-a96b-533173ae8d6c",
      "identifier": [ {
        "value": "60319"
      } ],
      "version": "2021-04-06T15:19:34.083Z",
      "status": "active",
      "experimental": false,
      "date": "2021-04-06T15:19:34+00:00",
      "publisher": "User ID: 'HADFIELDR' User name: 'Ryan Hadfield' User skill set: 'T3'",
      "lastReviewDate": "2021-04-06",
      "contact": [ {
        "telecom": [ {
          "system": "phone",
          "value": "0111 111 1111"
        } ]
      } ],
      "subjectType": [ "Patient" ]
    }
  }, {
    "fullUrl": "urn:uuid:dd53c1b8-37c7-4fd3-a973-13f3228fb9f1",
    "resource": {
      "resourceType": "QuestionnaireResponse",
      "id": "dd53c1b8-37c7-4fd3-a973-13f3228fb9f1",
      "identifier": {
        "value": "60319"
      },
      "questionnaire": {
        "reference": "urn:uuid:98118b85-53d4-4ce5-8083-82a8f61a882e"
      },
      "status": "completed",
      "subject": {
        "reference": "urn:uuid:6bc779de-d06a-4d39-a91b-eab240aab991"
      },
      "context": {
        "reference": "urn:uuid:209edeca-fca0-4a3e-8498-39e48a2d5571"
      },
      "authored": "2021-04-06T15:19:34+00:00"
    }
  }, {
    "fullUrl": "urn:uuid:98118b85-53d4-4ce5-8083-82a8f61a882e",
    "resource": {
      "resourceType": "Questionnaire",
      "id": "98118b85-53d4-4ce5-8083-82a8f61a882e",
      "identifier": [ {
        "value": "60319"
      } ],
      "version": "2021-04-06T15:19:34.083Z",
      "status": "active",
      "experimental": false,
      "date": "2021-04-06T15:19:34+00:00",
      "publisher": "User ID: 'HADFIELDR' User name: 'Ryan Hadfield' User skill set: 'T3'",
      "lastReviewDate": "2021-04-06",
      "contact": [ {
        "telecom": [ {
          "system": "phone",
          "value": "0111 111 1111"
        } ]
      } ],
      "subjectType": [ "Patient" ]
    }
  }, {
    "fullUrl": "urn:uuid:fcda0c50-663f-472e-a67c-59c3884af44f",
    "resource": {
      "resourceType": "PractitionerRole",
      "id": "fcda0c50-663f-472e-a67c-59c3884af44f",
      "practitioner": {
        "reference": "urn:uuid:b4840452-b421-4186-966b-e0f1886999eb"
      },
      "organization": {
        "reference": "urn:uuid:03a41bfc-cc2e-4991-a2ff-56905a18d8b4"
      },
      "code": [ {
        "coding": [ {
          "system": "2.16.840.1.113883.2.1.3.2.4.17.339",
          "code": "DOCTOR",
          "display": "Doctor"
        } ]
      } ]
    }
  }, {
    "fullUrl": "urn:uuid:03a41bfc-cc2e-4991-a2ff-56905a18d8b4",
    "resource": {
      "resourceType": "Organization",
      "id": "03a41bfc-cc2e-4991-a2ff-56905a18d8b4",
      "identifier": [ {
        "value": "RYE"
      } ],
      "name": "RepresentedOrg Name"
    }
  }, {
    "fullUrl": "urn:uuid:0b2a995a-2a91-4e07-90b3-a3c169d943b4",
    "resource": {
      "resourceType": "PractitionerRole",
      "id": "0b2a995a-2a91-4e07-90b3-a3c169d943b4",
      "practitioner": {
        "reference": "urn:uuid:e51a72e6-22fc-44de-997e-ea22d0705c07"
      },
      "organization": {
        "reference": "urn:uuid:82cd2802-1f8e-4619-a102-900649138f40"
      },
      "code": [ {
        "coding": [ {
          "system": "2.16.840.1.113883.2.1.3.2.4.17.196",
          "code": "R0010",
          "display": "Medical Director"
        } ]
      } ]
    }
  }, {
    "fullUrl": "urn:uuid:82cd2802-1f8e-4619-a102-900649138f40",
    "resource": {
      "resourceType": "Organization",
      "id": "82cd2802-1f8e-4619-a102-900649138f40",
      "identifier": [ {
        "value": "RYE"
      } ],
      "name": "RepresentedOrgNameRYE"
    }
  }, {
    "fullUrl": "urn:uuid:fe007a58-1e2d-48bb-986f-c27f307c11e4",
    "resource": {
      "resourceType": "RelatedPerson",
      "id": "fe007a58-1e2d-48bb-986f-c27f307c11e4",
      "patient": {
        "reference": "urn:uuid:6bc779de-d06a-4d39-a91b-eab240aab991"
      },
      "relationship": {
        "coding": [ {
          "system": "http://hl7.org/fhir/v2/0131",
          "code": "C",
          "display": "Emergency Contact"
        } ]
      },
      "telecom": [ {
        "system": "phone",
        "value": "tel:000000000000"
      } ]
    }
  }, {
    "fullUrl": "urn:uuid:b61ab45b-fb34-42f7-acc8-bcb10b648acb",
    "resource": {
      "resourceType": "Device",
      "id": "b61ab45b-fb34-42f7-acc8-bcb10b648acb",
      "model": "111 Adaptor",
      "version": "0.9.0"
    }
  }, {
    "fullUrl": "urn:uuid:2235e4f8-b77c-435d-94fc-ac157b5d488a",
    "resource": {
      "resourceType": "List",
      "id": "2235e4f8-b77c-435d-94fc-ac157b5d488a",
      "status": "current",
      "mode": "working",
      "title": "111 Report List",
      "code": {
        "coding": [ {
          "system": "http://snomed.info/sct",
          "code": "225390008",
          "display": "Triage"
        } ]
      },
      "subject": {
        "reference": "urn:uuid:6bc779de-d06a-4d39-a91b-eab240aab991"
      },
      "encounter": {
        "reference": "urn:uuid:209edeca-fca0-4a3e-8498-39e48a2d5571"
      },
      "date": "2021-09-15T09:16:06+00:00",
      "source": {
        "reference": "urn:uuid:b61ab45b-fb34-42f7-acc8-bcb10b648acb"
      },
      "orderedBy": {
        "coding": [ {
          "system": "http://hl7.org/fhir/list-order",
          "code": "event-date",
          "display": "Sorted by Event Date"
        } ]
      },
      "entry": [ {
        "item": {
          "reference": "urn:uuid:b4840452-b421-4186-966b-e0f1886999eb"
        }
      }, {
        "item": {
          "reference": "urn:uuid:08d1140c-a66e-4039-bdd3-ad2597b8bf50"
        }
      }, {
        "item": {
          "reference": "urn:uuid:be57dd06-7f5a-4fc4-9fff-5936029f09ce"
        }
      }, {
        "item": {
          "reference": "urn:uuid:82cd2802-1f8e-4619-a102-900649138f40"
        }
      }, {
        "item": {
          "reference": "urn:uuid:03a41bfc-cc2e-4991-a2ff-56905a18d8b4"
        }
      }, {
        "item": {
          "reference": "urn:uuid:13e95f7e-f0a6-4075-9418-3becd0047f33"
        }
      }, {
        "item": {
          "reference": "urn:uuid:2fb6ca08-9674-4815-8027-bf09dcaaaf66"
        }
      }, {
        "item": {
          "reference": "urn:uuid:fe007a58-1e2d-48bb-986f-c27f307c11e4"
        }
      }, {
        "item": {
          "reference": "urn:uuid:e51a72e6-22fc-44de-997e-ea22d0705c07"
        }
      }, {
        "item": {
          "reference": "urn:uuid:f623ee98-f922-4d7b-a460-13046574c45f"
        }
      }, {
        "item": {
          "reference": "urn:uuid:086e1043-1d67-45a6-9bf0-68a7ee49e1fb"
        }
      }, {
        "item": {
          "reference": "urn:uuid:b12bc073-1c41-4317-8ff6-e4b7366fd929"
        }
      }, {
        "item": {
          "reference": "urn:uuid:e0b1ee0f-18e9-4d86-ac10-c4f92aae6eb1"
        }
      }, {
        "item": {
          "reference": "urn:uuid:6e0fe8a6-35a8-42e9-bade-a90e1c4ce58d"
        }
      }, {
        "item": {
          "reference": "urn:uuid:57cd4222-d1b1-4659-877e-b47431facd70"
        }
      }, {
        "item": {
          "reference": "urn:uuid:87422814-24f3-4b75-b613-267f00127bd0"
        }
      }, {
        "item": {
          "reference": "urn:uuid:6925776a-c258-41aa-8e5f-97f6d3005237"
        }
      }, {
        "item": {
          "reference": "urn:uuid:ea182192-0831-40ca-a96b-533173ae8d6c"
        }
      }, {
        "item": {
          "reference": "urn:uuid:dd53c1b8-37c7-4fd3-a973-13f3228fb9f1"
        }
      }, {
        "item": {
          "reference": "urn:uuid:6432c5a8-5ec3-4b6e-b56a-5c12c5388949"
        }
      }, {
        "item": {
          "reference": "urn:uuid:cdd2e1d4-7b79-4abf-a63c-2d203a7cf172"
        }
      }, {
        "item": {
          "reference": "urn:uuid:1854ab19-d8de-42b7-80c3-870f7c0e6095"
        }
      }, {
        "item": {
          "reference": "urn:uuid:68730579-ff9d-46bf-af5b-136bfe22b851"
        }
      }, {
        "item": {
          "reference": "urn:uuid:24a50549-f82d-4e3d-be01-292df2c003b2"
        }
      }, {
        "item": {
          "reference": "urn:uuid:8afd78de-2254-48b2-81ab-13f8a00faa96"
        }
      }, {
        "item": {
          "reference": "urn:uuid:6ac6c6f4-8639-48d4-a33a-6e6b72a5683f"
        }
      }, {
        "item": {
          "reference": "urn:uuid:d863905f-f091-4164-bb6a-cbbc21c23d1c"
        }
      }, {
        "item": {
          "reference": "urn:uuid:98118b85-53d4-4ce5-8083-82a8f61a882e"
        }
      }, {
        "item": {
          "reference": "urn:uuid:86402fa9-85fa-47b6-8d2f-d80ea297cab7"
        }
      }, {
        "item": {
          "reference": "urn:uuid:7b60170c-362c-4386-b93c-806fcd7e3f51"
        }
      }, {
        "item": {
          "reference": "urn:uuid:0e5a02f8-8b22-41d5-bfee-3a0122db5d06"
        }
      }, {
        "item": {
          "reference": "urn:uuid:1bfeecc3-5c6f-4372-b835-0df86a7ef8d1"
        }
      }, {
        "item": {
          "reference": "urn:uuid:fcdb3988-24fb-4158-b4a0-fd959da87699"
        }
      }, {
        "item": {
          "reference": "urn:uuid:619cf086-3c2e-4d24-ba7a-aa9fceb5dff9"
        }
      }, {
        "item": {
          "reference": "urn:uuid:5e82c95a-69a1-4430-880b-2ef174f395f2"
        }
      }, {
        "item": {
          "reference": "urn:uuid:ada24aeb-fcf6-4825-b20b-97d988f42a2a"
        }
      }, {
        "item": {
          "reference": "urn:uuid:c392981a-469b-4d0f-833b-6dde26a49988"
        }
      }, {
        "item": {
          "reference": "urn:uuid:2d05fa70-c2a1-44a1-a22a-78fb6a6e70f9"
        }
      }, {
        "item": {
          "reference": "urn:uuid:a72ac4a1-f76e-47d6-9d0f-03a4e3bb69f3"
        }
      }, {
        "item": {
          "reference": "urn:uuid:8eb2c3a4-abda-41fd-89a7-0ca74f81e028"
        }
      } ]
    }
  } ]
}