{
  "resourceType": "Bundle",
  "identifier": {
    "type": {
      "text": "ClinicalDocument VersionNumber"
    },
    "value": "1"
  },
  "type": "message",
  "entry": [ {
    "fullUrl": "urn:uuid:F7916D36-4D5F-4A64-BD08-644E8A234AE2",
    "resource": {
      "resourceType": "MessageHeader",
      "id": "F7916D36-4D5F-4A64-BD08-644E8A234AE2",
      "event": {
        "system": "https://fhir.nhs.uk/STU3/CodeSystem/EventType-1",
        "code": "referral-1",
        "display": "Referral"
      },
      "destination": [ {
        "endpoint": "urn:nhs-uk:addressing:ods:NVE06:DOSServiceID:1335970392"
      } ],
      "timestamp": "2021-05-13T17:24:56.000+00:00",
      "source": {
        "name": "NHS 111 Adaptor",
        "endpoint": "http://localhost:8080/report"
      },
      "reason": {
        "coding": [ {
          "system": "urn:nhs-itk:ns:201005:interaction",
          "code": "urn:nhs-itk:interaction:primaryOutofHourRecipientNHS111CDADocument-v2-0"
        } ]
      }
    },
    "response": {
      "status": "success",
      "lastModified": "2022-05-09T13:25:19.439+00:00"
    }
  }, {
    "fullUrl": "urn:uuid:ccb4c711-8a21-4624-bc79-55ad1783af97",
    "resource": {
      "resourceType": "Encounter",
      "id": "ccb4c711-8a21-4624-bc79-55ad1783af97",
      "identifier": [ {
        "system": "2.16.840.1.113883.2.1.3.2.4.18.34",
        "value": "2DBAE50F-F88C-4572-9866-F94FE0F1F25A"
      }, {
        "system": "2.16.840.1.113883.2.1.3.2.4.18.35",
        "value": "2100310450"
      } ],
      "status": "finished",
      "type": [ {
        "text": "111 Encounter Referral"
      } ],
      "subject": {
        "reference": "urn:uuid:ed3e7f4d-a40e-41aa-9953-85fb25de2d56"
      },
      "participant": [ {
        "type": [ {
          "coding": [ {
            "system": "http://hl7.org/fhir/ValueSet/encounter-participant-type",
            "code": "PPRF",
            "display": "Author"
          } ]
        } ],
        "individual": {
          "reference": "urn:uuid:e1f9f3c9-c604-480a-b85b-74295a43a049"
        }
      }, {
        "type": [ {
          "text": "Informant"
        } ],
        "individual": {
          "reference": "urn:uuid:6f767510-f412-4a65-834c-624a7b86878f"
        }
      } ],
      "period": {
        "start": "2021-05-13T16:47:24+00:00",
        "end": "2021-05-13T17:24:56+00:00"
      },
      "location": [ {
        "location": {
          "reference": "urn:uuid:634202c1-eada-4c70-b9b2-59a8c5257862"
        },
        "status": "active"
      }, {
        "location": {
          "reference": "urn:uuid:a63f7c49-f828-4353-823d-a6f1a8532fd8"
        },
        "status": "completed"
      } ],
      "serviceProvider": {
        "reference": "urn:uuid:dfd078fa-2ec3-48b9-aa8f-16e0b25bc859"
      }
    }
  }, {
    "fullUrl": "urn:uuid:dfd078fa-2ec3-48b9-aa8f-16e0b25bc859",
    "resource": {
      "resourceType": "Organization",
      "id": "dfd078fa-2ec3-48b9-aa8f-16e0b25bc859",
      "active": true,
      "type": [ {
        "text": "CST"
      } ],
      "name": "Norfolk and Wisbech 111"
    }
  }, {
    "fullUrl": "urn:uuid:e1f9f3c9-c604-480a-b85b-74295a43a049",
    "resource": {
      "resourceType": "Practitioner",
      "id": "e1f9f3c9-c604-480a-b85b-74295a43a049",
      "active": true,
      "name": [ {
        "text": "Ben Smythson"
      } ]
    }
  }, {
    "fullUrl": "urn:uuid:6f767510-f412-4a65-834c-624a7b86878f",
    "resource": {
      "resourceType": "RelatedPerson",
      "id": "6f767510-f412-4a65-834c-624a7b86878f",
      "active": true,
      "patient": {
        "reference": "urn:uuid:ed3e7f4d-a40e-41aa-9953-85fb25de2d56"
      },
      "relationship": {
        "coding": [ {
          "system": "2.16.840.1.113883.2.1.3.2.4.16.45",
          "code": "21",
          "display": "Self"
        }, {
          "system": "http://hl7.org/fhir/v2/0131",
          "code": "C",
          "display": "Emergency Contact"
        } ]
      },
      "name": [ {
        "text": "Test Call Dx10 TEST CALL DX10"
      } ],
      "telecom": [ {
        "system": "phone",
        "value": "tel:01233123123"
      } ],
      "gender": "unknown"
    }
  }, {
    "fullUrl": "urn:uuid:634202c1-eada-4c70-b9b2-59a8c5257862",
    "resource": {
      "resourceType": "Location",
      "id": "634202c1-eada-4c70-b9b2-59a8c5257862",
      "managingOrganization": {
        "reference": "urn:uuid:1ac26ffd-623d-43e8-b062-1759a62199dc"
      }
    }
  }, {
    "fullUrl": "urn:uuid:1ac26ffd-623d-43e8-b062-1759a62199dc",
    "resource": {
      "resourceType": "Organization",
      "id": "1ac26ffd-623d-43e8-b062-1759a62199dc",
      "identifier": [ {
        "value": "Z10000"
      } ],
      "type": [ {
        "text": "GP Practice"
      } ],
      "name": "UNKNOWN"
    }
  }, {
    "fullUrl": "urn:uuid:a63f7c49-f828-4353-823d-a6f1a8532fd8",
    "resource": {
      "resourceType": "Location",
      "id": "a63f7c49-f828-4353-823d-a6f1a8532fd8",
      "address": {
        "type": "physical",
        "line": [ "313 VICTORIA ROAD", "LOWESTOFT" ],
        "postalCode": "NR33 9LS"
      }
    }
  }, {
    "fullUrl": "urn:uuid:ed3e7f4d-a40e-41aa-9953-85fb25de2d56",
    "resource": {
      "resourceType": "Patient",
      "id": "ed3e7f4d-a40e-41aa-9953-85fb25de2d56",
      "language": "en",
      "active": true,
      "name": [ {
        "use": "official",
        "family": "TEST CALL DX10",
        "given": [ "Test Call Dx10" ]
      } ],
      "telecom": [ {
        "system": "phone",
        "value": "tel:01233123123"
      } ],
      "gender": "male",
      "birthDate": "1996-03-25",
      "address": [ {
        "use": "home",
        "line": [ "313 VICTORIA ROAD", "LOWESTOFT" ],
        "postalCode": "NR33 9LS"
      }, {
        "type": "physical",
        "line": [ "313 VICTORIA ROAD", "LOWESTOFT" ],
        "postalCode": "NR33 9LS"
      } ],
      "generalPractitioner": [ {
        "reference": "urn:uuid:f690f74e-9b4f-484c-abbe-1858c7bb809d"
      } ]
    }
  }, {
    "fullUrl": "urn:uuid:f690f74e-9b4f-484c-abbe-1858c7bb809d",
    "resource": {
      "resourceType": "Organization",
      "id": "f690f74e-9b4f-484c-abbe-1858c7bb809d",
      "identifier": [ {
        "value": "Z10000"
      } ],
      "type": [ {
        "text": "GP Practice"
      } ],
      "name": "UNKNOWN"
    }
  }, {
    "fullUrl": "urn:uuid:70dc07b6-87c0-495d-8387-51c2d34ac66d",
    "resource": {
      "resourceType": "HealthcareService",
      "id": "70dc07b6-87c0-495d-8387-51c2d34ac66d",
      "active": true,
      "providedBy": {
        "reference": "urn:uuid:d5d38c64-5b1f-42d7-853e-874ca1228e47"
      },
      "location": [ {
        "reference": "urn:uuid:a1e5ce07-9846-4e6a-8629-89bd49ec4b52"
      } ],
      "name": "Out of Hours GP Service (Waveney) - Kirkley Mill Health Centre, Lowestoft"
    }
  }, {
    "fullUrl": "urn:uuid:a1e5ce07-9846-4e6a-8629-89bd49ec4b52",
    "resource": {
      "resourceType": "Location",
      "id": "a1e5ce07-9846-4e6a-8629-89bd49ec4b52",
      "managingOrganization": {
        "reference": "urn:uuid:d5d38c64-5b1f-42d7-853e-874ca1228e47"
      }
    }
  }, {
    "fullUrl": "urn:uuid:d5d38c64-5b1f-42d7-853e-874ca1228e47",
    "resource": {
      "resourceType": "Organization",
      "id": "d5d38c64-5b1f-42d7-853e-874ca1228e47",
      "identifier": [ {
        "value": "NVE06"
      } ],
      "type": [ {
        "coding": [ {
          "code": "PRCP",
          "display": "Out of Hours GP Service (Waveney) - Kirkley Mill Health Centre, Lowestoft"
        } ]
      } ],
      "name": "Out of Hours GP Service (Waveney) - Kirkley Mill Health Centre, Lowestoft"
    }
  }, {
    "fullUrl": "urn:uuid:b96922fe-cadb-4ef0-9b84-09cb99e65f35",
    "resource": {
      "resourceType": "ReferralRequest",
      "id": "b96922fe-cadb-4ef0-9b84-09cb99e65f35",
      "status": "active",
      "intent": "plan",
      "priority": "routine",
      "subject": {
        "reference": "urn:uuid:ed3e7f4d-a40e-41aa-9953-85fb25de2d56"
      },
      "context": {
        "reference": "urn:uuid:ccb4c711-8a21-4624-bc79-55ad1783af97"
      },
      "occurrencePeriod": {
        "start": "2021-05-13T17:24:56+00:00"
      },
      "authoredOn": "2021-05-13T17:24:56+00:00",
      "requester": {
        "agent": {
          "reference": "urn:uuid:81dfc0df-03b4-4cfb-84d3-8b904b4c2af2"
        },
        "onBehalfOf": {
          "reference": "urn:uuid:dfd078fa-2ec3-48b9-aa8f-16e0b25bc859"
        }
      },
      "recipient": [ {
        "reference": "urn:uuid:eccdb97a-12d9-4310-bd97-d45d5af445bf"
      }, {
        "reference": "urn:uuid:70dc07b6-87c0-495d-8387-51c2d34ac66d"
      } ],
      "reasonReference": [ {
        "reference": "urn:uuid:57bbad87-75d0-435d-93ba-bae962b85dd2"
      } ],
      "supportingInfo": [ {
        "reference": "urn:uuid:f417689a-9efe-444e-83c6-c47aebb1954b"
      } ]
    }
  }, {
    "fullUrl": "urn:uuid:f417689a-9efe-444e-83c6-c47aebb1954b",
    "resource": {
      "resourceType": "ProcedureRequest",
      "id": "f417689a-9efe-444e-83c6-c47aebb1954b",
      "status": "active",
      "intent": "plan",
      "priority": "routine",
      "doNotPerform": false,
      "code": {
        "coding": [ {
          "system": "2.16.840.1.113883.2.1.3.2.4.17.325",
          "code": "Dx10",
          "display": "MUST contact a local service for a Non-Urgent Appointment"
        } ]
      },
      "subject": {
        "reference": "urn:uuid:ed3e7f4d-a40e-41aa-9953-85fb25de2d56"
      },
      "occurrencePeriod": {
        "start": "2021-05-13T17:24:56+00:00"
      },
      "reasonReference": [ {
        "reference": "urn:uuid:57bbad87-75d0-435d-93ba-bae962b85dd2"
      } ]
    }
  }, {
    "fullUrl": "urn:uuid:eccdb97a-12d9-4310-bd97-d45d5af445bf",
    "resource": {
      "resourceType": "Practitioner",
      "id": "eccdb97a-12d9-4310-bd97-d45d5af445bf",
      "active": true,
      "telecom": [ {
        "system": "phone",
        "value": "tel:01233505450"
      } ],
      "address": [ {
        "type": "physical",
        "line": [ "Kingston House", "The Long Barrow", "Orbital Park", "Ashford", "Kent" ],
        "postalCode": "TN24 0GP"
      } ]
    }
  }, {
    "fullUrl": "urn:uuid:54806870-bc08-4005-8393-ef8c69e38ed2",
    "resource": {
      "resourceType": "Composition",
      "id": "54806870-bc08-4005-8393-ef8c69e38ed2",
      "identifier": {
        "use": "usual",
        "value": "895062D0-60A8-4EB4-9017-5F489D53694D"
      },
      "status": "final",
      "type": {
        "coding": [ {
          "system": "http://snomed.info/sct",
          "code": "371531000",
          "display": "Report of clinical encounter (record artifact)"
        } ]
      },
      "subject": {
        "reference": "urn:uuid:ed3e7f4d-a40e-41aa-9953-85fb25de2d56"
      },
      "encounter": {
        "reference": "urn:uuid:ccb4c711-8a21-4624-bc79-55ad1783af97"
      },
      "date": "2021-05-13T17:24:56+00:00",
      "author": [ {
        "reference": "urn:uuid:e1f9f3c9-c604-480a-b85b-74295a43a049"
      } ],
      "title": "111 Report",
      "confidentiality": "R",
      "section": [ {
        "section": [ {
          "title": "Patient's Reported Condition",
          "text": {
            "status": "generated",
            "div": "<div xmlns=\"http://www.w3.org/1999/xhtml\">&lt;content&gt;&amp;lt;CLEO Ref: 2100310450&amp;gt; Test Call &lt;br/&gt;\n                                                    &lt;/content&gt;</div>"
          }
        }, {
          "title": "Pathways Disposition",
          "text": {
            "status": "generated",
            "div": "<div xmlns=\"http://www.w3.org/1999/xhtml\">&lt;content&gt;If a pharmacy service is not available contact the GP practice during normal working hours. (Dx10)&lt;/content&gt;\n                                                    &lt;br/&gt;\n                                                    &lt;br/&gt;\n                                                    &lt;content&gt;Selected Service: 1335970392, Out of Hours GP Service (Waveney) - Kirkley Mill Health Centre, Lowestoft, 111&lt;/content&gt;\n                                                    &lt;br/&gt;</div>"
          }
        }, {
          "title": "Consultation Summary",
          "text": {
            "status": "generated",
            "div": "<div xmlns=\"http://www.w3.org/1999/xhtml\">&lt;content&gt;\n                                                        &lt;content&gt;Worst acne feature, blackheads or whiteheads&lt;/content&gt;\n                                                        &lt;br/&gt;\n                                                        &lt;content&gt;Acne&lt;/content&gt;\n                                                        &lt;br/&gt;\n                                                        &lt;content&gt;Warm to touch&lt;/content&gt;\n                                                        &lt;br/&gt;\n                                                        &lt;content&gt;Illness - test&lt;/content&gt;\n                                                        &lt;br/&gt;\n                                                    &lt;/content&gt;</div>"
          }
        }, {
          "title": "Pathways Assessment",
          "text": {
            "status": "generated",
            "div": "<div xmlns=\"http://www.w3.org/1999/xhtml\">&lt;content&gt;An injury or health problem was the reason for the contact.&lt;/content&gt;\n                                                    &lt;br/&gt;\n                                                    &lt;content&gt;Heavy bleeding had not occurred in the previous 2 hours.&lt;/content&gt;\n                                                    &lt;br/&gt;\n                                                    &lt;content&gt;An illness or health problem was the main problem. - test&lt;/content&gt;\n                                                    &lt;br/&gt;\n                                                    &lt;content&gt;The individual was not fighting for breath.&lt;/content&gt;\n                                                    &lt;br/&gt;\n                                                    &lt;content&gt;The main reason for the assessment was not an allergic reaction, heart attack, chest/upper back pain, probable stroke, recent fit/seizure or suicide attempt.&lt;/content&gt;\n                                                    &lt;br/&gt;\n                                                    &lt;content&gt;The main reason for contact was not new confusion, declared diabetic hypo/hyperglycaemia, or ICD shock.&lt;/content&gt;\n                                                    &lt;br/&gt;\n                                                    &lt;content&gt;The skin on the torso felt normal, warm or hot.&lt;/content&gt;\n                                                    &lt;br/&gt;\n                                                    &lt;content&gt;The main problem was not a rash, itch, jaundice, skin lumps or abnormal bruising.&lt;/content&gt;\n                                                    &lt;br/&gt;\n                                                    &lt;content&gt;The main problem was acne, spots or pimples.&lt;/content&gt;\n                                                    &lt;br/&gt;\n                                                    &lt;content&gt;The worst problem with the acne was blackheads or white heads.&lt;/content&gt;\n                                                    &lt;br/&gt;\n                                                    &lt;content&gt;The problem had not persisted for 3 months or got worse over that time.&lt;/content&gt;\n                                                    &lt;br/&gt;</div>"
          }
        }, {
          "title": "Advice Given",
          "text": {
            "status": "generated",
            "div": "<div xmlns=\"http://www.w3.org/1999/xhtml\">&lt;content&gt;Speak to a pharmacist for advice on suitable treatment.&lt;/content&gt;\n                                                    &lt;br/&gt;\n                                                    &lt;content&gt;If there are any new symptoms, or if the condition gets worse, changes or you have any other concerns, call us back.&lt;/content&gt;\n                                                    &lt;br/&gt;</div>"
          }
        }, {
          "title": "SCR Consent",
          "text": {
            "status": "generated",
            "div": "<div xmlns=\"http://www.w3.org/1999/xhtml\">&lt;content&gt;Consent given for SCR sharing&lt;br/&gt;\n                                                        &lt;br/&gt;\n                                                    &lt;/content&gt;</div>"
          }
        } ]
      }, {
        "title": "ReferralRequest",
        "entry": [ {
          "reference": "urn:uuid:b96922fe-cadb-4ef0-9b84-09cb99e65f35"
        } ]
      } ]
    }
  }, {
    "fullUrl": "urn:uuid:e7622756-bfc6-4876-ab59-5c9e41817795",
    "resource": {
      "resourceType": "Consent",
      "id": "e7622756-bfc6-4876-ab59-5c9e41817795",
      "identifier": {
        "use": "usual",
        "value": "895062D0-60A8-4EB4-9017-5F489D53694D"
      },
      "status": "active",
      "patient": {
        "reference": "urn:uuid:ed3e7f4d-a40e-41aa-9953-85fb25de2d56"
      },
      "period": {
        "start": "2021-05-13T16:47:24+00:00",
        "end": "2021-05-13T17:24:56+00:00"
      },
      "consentingParty": [ {
        "reference": "urn:uuid:ed3e7f4d-a40e-41aa-9953-85fb25de2d56"
      } ],
      "action": [ {
        "coding": [ {
          "system": "http://snomed.info/sct",
          "code": "425691002",
          "display": "Consent given for electronic record sharing"
        } ],
        "text": "Consent given for electronic record sharing"
      } ],
      "organization": [ {
        "reference": "urn:uuid:dfd078fa-2ec3-48b9-aa8f-16e0b25bc859"
      } ],
      "policyRule": "http://hl7.org/fhir/ConsentPolicy/opt-out",
      "data": [ {
        "meaning": "related",
        "reference": {
          "reference": "urn:uuid:ccb4c711-8a21-4624-bc79-55ad1783af97"
        }
      } ]
    }
  }, {
    "fullUrl": "urn:uuid:57bbad87-75d0-435d-93ba-bae962b85dd2",
    "resource": {
      "resourceType": "Condition",
      "id": "57bbad87-75d0-435d-93ba-bae962b85dd2",
      "clinicalStatus": "active",
      "verificationStatus": "unknown",
      "subject": {
        "reference": "urn:uuid:ed3e7f4d-a40e-41aa-9953-85fb25de2d56"
      },
      "context": {
        "reference": "urn:uuid:ccb4c711-8a21-4624-bc79-55ad1783af97"
      }
    }
  }, {
    "fullUrl": "urn:uuid:f1387517-808c-4322-a3ae-128d8137ba4f",
    "resource": {
      "resourceType": "Observation",
      "id": "f1387517-808c-4322-a3ae-128d8137ba4f",
      "status": "final",
      "code": {
        "coding": [ {
          "system": "http://snomed.info/sct",
          "code": "33962009",
          "display": "Presenting complaint"
        } ]
      },
      "subject": {
        "reference": "urn:uuid:ed3e7f4d-a40e-41aa-9953-85fb25de2d56"
      },
      "context": {
        "reference": "urn:uuid:ccb4c711-8a21-4624-bc79-55ad1783af97"
      },
      "valueString": "<CLEO Ref: 2100310450> Test Call "
    }
  }, {
    "fullUrl": "urn:uuid:7dbef201-6322-4375-9d21-104a9fc1b943",
    "resource": {
      "resourceType": "PractitionerRole",
      "id": "7dbef201-6322-4375-9d21-104a9fc1b943",
      "practitioner": {
        "reference": "urn:uuid:e1f9f3c9-c604-480a-b85b-74295a43a049"
      },
      "organization": {
        "reference": "urn:uuid:e5364730-e8e1-4bd4-992f-40c5d1c66610"
      },
      "code": [ {
        "coding": [ {
          "system": "2.16.840.1.113883.2.1.3.2.4.17.196",
          "code": "NR1690",
          "display": "Call Operator"
        } ]
      } ]
    }
  }, {
    "fullUrl": "urn:uuid:e5364730-e8e1-4bd4-992f-40c5d1c66610",
    "resource": {
      "resourceType": "Organization",
      "id": "e5364730-e8e1-4bd4-992f-40c5d1c66610",
      "identifier": [ {
        "value": "NTN08"
      } ],
      "name": "Norfolk and Wisbech 111"
    }
  }, {
    "fullUrl": "urn:uuid:e6f26216-4f62-4b28-ad52-234236b79cf6",
    "resource": {
      "resourceType": "RelatedPerson",
      "id": "e6f26216-4f62-4b28-ad52-234236b79cf6",
      "patient": {
        "reference": "urn:uuid:ed3e7f4d-a40e-41aa-9953-85fb25de2d56"
      },
      "relationship": {
        "coding": [ {
          "system": "http://hl7.org/fhir/v2/0131",
          "code": "C",
          "display": "Emergency Contact"
        } ]
      },
      "telecom": [ {
        "system": "phone",
        "value": "tel:01233123123"
      } ]
    }
  }, {
    "fullUrl": "urn:uuid:81dfc0df-03b4-4cfb-84d3-8b904b4c2af2",
    "resource": {
      "resourceType": "Device",
      "id": "81dfc0df-03b4-4cfb-84d3-8b904b4c2af2",
      "model": "111 Adaptor",
      "version": "1.0.1"
    }
  }, {
    "fullUrl": "urn:uuid:d4b79fb5-3813-4dab-95a6-1d81deaaace5",
    "resource": {
      "resourceType": "List",
      "id": "d4b79fb5-3813-4dab-95a6-1d81deaaace5",
      "status": "current",
      "mode": "working",
      "title": "111 Report List",
      "code": {
        "coding": [ {
          "system": "http://snomed.info/sct",
          "code": "225390008",
          "display": "Triage"
        } ]
      },
      "subject": {
        "reference": "urn:uuid:ed3e7f4d-a40e-41aa-9953-85fb25de2d56"
      },
      "encounter": {
        "reference": "urn:uuid:ccb4c711-8a21-4624-bc79-55ad1783af97"
      },
      "date": "2021-05-13T17:24:56+00:00",
      "source": {
        "reference": "urn:uuid:81dfc0df-03b4-4cfb-84d3-8b904b4c2af2"
      },
      "orderedBy": {
        "coding": [ {
          "system": "http://hl7.org/fhir/list-order",
          "code": "event-date",
          "display": "Sorted by Event Date"
        } ]
      },
      "entry": [ {
        "item": {
          "reference": "urn:uuid:e6f26216-4f62-4b28-ad52-234236b79cf6"
        }
      }, {
        "item": {
          "reference": "urn:uuid:6f767510-f412-4a65-834c-624a7b86878f"
        }
      }, {
        "item": {
          "reference": "urn:uuid:d5d38c64-5b1f-42d7-853e-874ca1228e47"
        }
      }, {
        "item": {
          "reference": "urn:uuid:f690f74e-9b4f-484c-abbe-1858c7bb809d"
        }
      }, {
        "item": {
          "reference": "urn:uuid:eccdb97a-12d9-4310-bd97-d45d5af445bf"
        }
      }, {
        "item": {
          "reference": "urn:uuid:dfd078fa-2ec3-48b9-aa8f-16e0b25bc859"
        }
      }, {
        "item": {
          "reference": "urn:uuid:1ac26ffd-623d-43e8-b062-1759a62199dc"
        }
      }, {
        "item": {
          "reference": "urn:uuid:57bbad87-75d0-435d-93ba-bae962b85dd2"
        }
      }, {
        "item": {
          "reference": "urn:uuid:e1f9f3c9-c604-480a-b85b-74295a43a049"
        }
      }, {
        "item": {
          "reference": "urn:uuid:f1387517-808c-4322-a3ae-128d8137ba4f"
        }
      }, {
        "item": {
          "reference": "urn:uuid:e5364730-e8e1-4bd4-992f-40c5d1c66610"
        }
      }, {
        "item": {
          "reference": "urn:uuid:b96922fe-cadb-4ef0-9b84-09cb99e65f35"
        }
      } ]
    }
  } ]
}