{
  "resourceType": "Bundle",
  "identifier": {
    "type": {
      "text": "ClinicalDocument VersionNumber"
    },
    "value": "1"
  },
  "type": "message",
  "entry": [ {
    "fullUrl": "urn:uuid:05040617-33BA-4344-AA59-281CF2FE63CA",
    "resource": {
      "resourceType": "MessageHeader",
      "id": "05040617-33BA-4344-AA59-281CF2FE63CA",
      "event": {
        "system": "https://fhir.nhs.uk/STU3/CodeSystem/EventType-1",
        "code": "referral-1",
        "display": "Referral"
      },
      "destination": [ {
        "endpoint": "urn:nhs-uk:addressing:ods:FHR04RPX:DOSServiceID:2000038667"
      } ],
      "timestamp": "2021-04-06T15:19:34.000+00:00",
      "source": {
        "name": "NHS 111 Adaptor",
        "endpoint": "http://localhost:8080/report"
      },
      "reason": {
        "coding": [ {
          "system": "urn:nhs-itk:ns:201005:interaction",
          "code": "urn:nhs-itk:interaction:primaryOutofHourRecipientNHS111CDADocument-v2-0"
        } ]
      }
    },
    "response": {
      "status": "success",
      "lastModified": "2022-05-09T13:25:19.154+00:00"
    }
  }, {
    "fullUrl": "urn:uuid:adaad0d3-f4d8-4858-9b0e-2f7cfcc7e2f3",
    "resource": {
      "resourceType": "Encounter",
      "id": "adaad0d3-f4d8-4858-9b0e-2f7cfcc7e2f3",
      "identifier": [ {
        "system": "2.16.840.1.113883.2.1.3.2.4.18.34",
        "value": "AdastraCaseGUID34"
      }, {
        "system": "2.16.840.1.113883.2.1.3.2.4.18.35",
        "value": "AdastraCaseID35"
      }, {
        "system": "2.16.840.1.113883.2.1.3.2.4.18.49",
        "value": "AdastraCaseGUID49"
      } ],
      "status": "finished",
      "type": [ {
        "text": "111 Encounter Referral"
      } ],
      "subject": {
        "reference": "urn:uuid:e8681707-935e-45e4-82e0-e47d8a9f0a18"
      },
      "participant": [ {
        "type": [ {
          "coding": [ {
            "system": "http://hl7.org/fhir/ValueSet/encounter-participant-type",
            "code": "PPRF",
            "display": "Author"
          } ]
        } ],
        "individual": {
          "reference": "urn:uuid:4199385d-00c3-4ac7-8efd-a9b3bc54e6e4"
        }
      }, {
        "type": [ {
          "text": "Informant"
        } ],
        "individual": {
          "reference": "urn:uuid:8d63f662-5ef1-4c82-b6e2-bc2bbc934081"
        }
      }, {
        "type": [ {
          "coding": [ {
            "system": "http://hl7.org/fhir/ValueSet/encounter-participant-type",
            "code": "ATND",
            "display": "Responsible Party"
          } ]
        } ],
        "individual": {
          "reference": "urn:uuid:fa384542-3aca-4b76-af5c-65c15f7381d2"
        }
      } ],
      "period": {
        "start": "2021-04-06T15:13:33+00:00",
        "end": "2021-04-06T15:19:29+00:00"
      },
      "location": [ {
        "location": {
          "reference": "urn:uuid:a54be186-9149-41b1-abbc-e88adbdfd1d9"
        },
        "status": "completed"
      } ],
      "serviceProvider": {
        "reference": "urn:uuid:58e8c04a-2ebe-4fc7-b10e-e044f9099762"
      }
    }
  }, {
    "fullUrl": "urn:uuid:58e8c04a-2ebe-4fc7-b10e-e044f9099762",
    "resource": {
      "resourceType": "Organization",
      "id": "58e8c04a-2ebe-4fc7-b10e-e044f9099762",
      "active": true,
      "type": [ {
        "text": "CST"
      } ],
      "name": "CustodianName"
    }
  }, {
    "fullUrl": "urn:uuid:4199385d-00c3-4ac7-8efd-a9b3bc54e6e4",
    "resource": {
      "resourceType": "Practitioner",
      "id": "4199385d-00c3-4ac7-8efd-a9b3bc54e6e4",
      "active": true,
      "name": [ {
        "use": "official",
        "family": "AuthorAssignedPerson FamilyName",
        "given": [ "AuthorAssignedPerson GivenName" ]
      } ]
    }
  }, {
    "fullUrl": "urn:uuid:8d63f662-5ef1-4c82-b6e2-bc2bbc934081",
    "resource": {
      "resourceType": "RelatedPerson",
      "id": "8d63f662-5ef1-4c82-b6e2-bc2bbc934081",
      "active": true,
      "patient": {
        "reference": "urn:uuid:e8681707-935e-45e4-82e0-e47d8a9f0a18"
      },
      "relationship": {
        "coding": [ {
          "system": "2.16.840.1.113883.2.1.3.2.4.16.45",
          "code": "16",
          "display": "Relative"
        } ]
      },
      "name": [ {
        "text": "RelatedPerson Name"
      } ],
      "telecom": [ {
        "system": "phone",
        "value": "tel:01111111111",
        "use": "home"
      } ],
      "gender": "unknown"
    }
  }, {
    "fullUrl": "urn:uuid:fa384542-3aca-4b76-af5c-65c15f7381d2",
    "resource": {
      "resourceType": "Practitioner",
      "id": "fa384542-3aca-4b76-af5c-65c15f7381d2",
      "active": true,
      "name": [ {
        "use": "official",
        "family": "ResponsablePartyMD FamilyName",
        "given": [ "ResponsablePartyMD GivenName" ]
      } ]
    }
  }, {
    "fullUrl": "urn:uuid:a54be186-9149-41b1-abbc-e88adbdfd1d9",
    "resource": {
      "resourceType": "Location",
      "id": "a54be186-9149-41b1-abbc-e88adbdfd1d9",
      "name": "Incident Location",
      "address": {
        "type": "physical",
        "line": [ "HealthCareFacility AddressLine1", "HealthCareFacility AddressLine2", "HealthCareFacility AddressLine3", "HealthCareFacility AddressLine4", "HealthCareFacility AddressLine5" ],
        "postalCode": "LOH25 4NS"
      }
    }
  }, {
    "fullUrl": "urn:uuid:e8681707-935e-45e4-82e0-e47d8a9f0a18",
    "resource": {
      "resourceType": "Patient",
      "id": "e8681707-935e-45e4-82e0-e47d8a9f0a18",
      "active": true,
      "name": [ {
        "use": "official",
        "family": "Patient Family Name",
        "given": [ "Patient Given Name" ]
      } ],
      "telecom": [ {
        "system": "phone",
        "value": "tel:000000000000",
        "use": "home"
      }, {
        "system": "phone",
        "value": "tel:000000000000"
      } ],
      "gender": "other",
      "birthDate": "1990-02-02",
      "address": [ {
        "use": "home",
        "line": [ "Home Address Line 1", "Home Address Line 2", "Home Address Line 3", "Home Address Line 4", "Home Address Line 5" ],
        "postalCode": "HA25 4NS"
      }, {
        "type": "physical",
        "line": [ "Home Address Line 1", "Home Address Line 2", "Home Address Line 3", "Home Address Line 4", "Home Address Line 5" ],
        "postalCode": "PH25 4NS"
      } ]
    }
  }, {
    "fullUrl": "urn:uuid:6a5a4f9b-a08c-4bf2-b43e-a86b3aa95f2f",
    "resource": {
      "resourceType": "HealthcareService",
      "id": "6a5a4f9b-a08c-4bf2-b43e-a86b3aa95f2f",
      "active": true,
      "providedBy": {
        "reference": "urn:uuid:8ca3bcf3-bac4-4c35-be33-2529d7b855e7"
      },
      "location": [ {
        "reference": "urn:uuid:03dcd559-ea56-4fae-a9a0-9b517c36447b"
      } ],
      "name": "InformationRecipient IntendedRecipient Name FHR0"
    }
  }, {
    "fullUrl": "urn:uuid:03dcd559-ea56-4fae-a9a0-9b517c36447b",
    "resource": {
      "resourceType": "Location",
      "id": "03dcd559-ea56-4fae-a9a0-9b517c36447b",
      "managingOrganization": {
        "reference": "urn:uuid:8ca3bcf3-bac4-4c35-be33-2529d7b855e7"
      }
    }
  }, {
    "fullUrl": "urn:uuid:8ca3bcf3-bac4-4c35-be33-2529d7b855e7",
    "resource": {
      "resourceType": "Organization",
      "id": "8ca3bcf3-bac4-4c35-be33-2529d7b855e7",
      "identifier": [ {
        "value": "FHR04RPX"
      } ],
      "type": [ {
        "coding": [ {
          "code": "PRCP",
          "display": "InformationRecipient IntendedRecipient Name FHR0"
        } ]
      } ],
      "name": "InformationRecipient IntendedRecipient Name FHR0"
    }
  }, {
    "fullUrl": "urn:uuid:3e3d7838-072d-410c-aca5-5699353d9441",
    "resource": {
      "resourceType": "ReferralRequest",
      "id": "3e3d7838-072d-410c-aca5-5699353d9441",
      "status": "active",
      "intent": "plan",
      "priority": "routine",
      "subject": {
        "reference": "urn:uuid:e8681707-935e-45e4-82e0-e47d8a9f0a18"
      },
      "context": {
        "reference": "urn:uuid:adaad0d3-f4d8-4858-9b0e-2f7cfcc7e2f3"
      },
      "occurrencePeriod": {
        "start": "2021-04-06T15:19:34+00:00"
      },
      "authoredOn": "2021-04-06T15:19:29+00:00",
      "requester": {
        "agent": {
          "reference": "urn:uuid:5ecfd1a8-c1fe-4783-8e95-2bd85b2f9c8f"
        },
        "onBehalfOf": {
          "reference": "urn:uuid:58e8c04a-2ebe-4fc7-b10e-e044f9099762"
        }
      },
      "recipient": [ {
        "reference": "urn:uuid:6a5a4f9b-a08c-4bf2-b43e-a86b3aa95f2f"
      } ],
      "reasonReference": [ {
        "reference": "urn:uuid:12b836da-b13c-4547-a04f-a26c6c3426b9"
      } ],
      "supportingInfo": [ {
        "reference": "urn:uuid:2a11a3ed-a9c5-4aa7-8f1e-2a02b142bcf7"
      } ]
    }
  }, {
    "fullUrl": "urn:uuid:2a11a3ed-a9c5-4aa7-8f1e-2a02b142bcf7",
    "resource": {
      "resourceType": "ProcedureRequest",
      "id": "2a11a3ed-a9c5-4aa7-8f1e-2a02b142bcf7",
      "status": "active",
      "intent": "plan",
      "priority": "routine",
      "doNotPerform": false,
      "code": {
        "coding": [ {
          "system": "2.16.840.1.113883.2.1.3.2.4.17.325",
          "code": "DispoCodeDx87",
          "display": "DispoName - Repeat Prescription required within 24 hours"
        } ]
      },
      "subject": {
        "reference": "urn:uuid:e8681707-935e-45e4-82e0-e47d8a9f0a18"
      },
      "occurrencePeriod": {
        "start": "2021-04-06T15:19:34+00:00"
      },
      "reasonReference": [ {
        "reference": "urn:uuid:12b836da-b13c-4547-a04f-a26c6c3426b9"
      } ]
    }
  }, {
    "fullUrl": "urn:uuid:a24c2e27-fdba-4134-8388-e474316c3407",
    "resource": {
      "resourceType": "Composition",
      "id": "a24c2e27-fdba-4134-8388-e474316c3407",
      "identifier": {
        "use": "usual",
        "value": "E2DF04F7-95CA-40AD-808D-797C0A89E39C"
      },
      "status": "final",
      "type": {
        "coding": [ {
          "system": "http://snomed.info/sct",
          "code": "371531000",
          "display": "Report of clinical encounter (record artifact)"
        } ]
      },
      "subject": {
        "reference": "urn:uuid:e8681707-935e-45e4-82e0-e47d8a9f0a18"
      },
      "encounter": {
        "reference": "urn:uuid:adaad0d3-f4d8-4858-9b0e-2f7cfcc7e2f3"
      },
      "date": "2021-04-06T15:19:34+00:00",
      "author": [ {
        "reference": "urn:uuid:4199385d-00c3-4ac7-8efd-a9b3bc54e6e4"
      } ],
      "title": "111 Report",
      "confidentiality": "N",
      "section": [ {
        "section": [ {
          "title": "ComponentTitle - Patient's Reported Condition",
          "text": {
            "status": "generated",
            "div": "<div xmlns=\"http://www.w3.org/1999/xhtml\">&lt;content&gt;ComponentText - Pharmacy ITK Testing&lt;/content&gt;\n                                                    &lt;br/&gt;</div>"
          }
        }, {
          "title": "ComponentTitle - Pathways Disposition",
          "text": {
            "status": "generated",
            "div": "<div xmlns=\"http://www.w3.org/1999/xhtml\">ComponentText - Repeat Prescription required within 24 hours (Dx87)                                         &lt;br/&gt;\n                                                    &lt;br/&gt;                                         Selected service: Springvale, Fraser Road, Kings Worthy, Winchester&lt;br/&gt;</div>"
          }
        }, {
          "title": "ComponentTitle - Consultation Summary",
          "text": {
            "status": "generated",
            "div": "<div xmlns=\"http://www.w3.org/1999/xhtml\">ComponentText - Prescription request&lt;br/&gt;Not enough medication until surgery opens&lt;br/&gt;No medication available&lt;br/&gt;Next dose due in over 12 hours time&lt;br/&gt;</div>"
          }
        }, {
          "title": "ComponentTitle - Pathways Assessment",
          "text": {
            "status": "generated",
            "div": "<div xmlns=\"http://www.w3.org/1999/xhtml\">ComponentText - Reason for call menu - continued to next list.&lt;br/&gt;A prescription request was the main reason for the contact.&lt;br/&gt;The main reason for the contact was not a new or worsening illness.&lt;br/&gt;The individual did not have enough medication to last until the surgery next opened.&lt;br/&gt;The medication was suitable for repeat prescribing without further consultation.&lt;br/&gt;The individual had no medication available.&lt;br/&gt;The next dose was due in over 12 hours time.&lt;br/&gt;Instructions given were: The individual needs a repeat prescription.&lt;br/&gt;Directory of Services referral: Springvale, Fraser Road, Kings Worthy, Winchester&lt;br/&gt;</div>"
          }
        }, {
          "title": "ComponentTitle - Advice Given",
          "text": {
            "status": "generated",
            "div": "<div xmlns=\"http://www.w3.org/1999/xhtml\">ComponentText - I will arrange for a clinician or pharmacist to speak to the individual.&lt;br/&gt;IF THE RECOMMENDED TIMEFRAME FALLS OUTSIDE OPENING HOURS: I will arrange for a clinician to speak to the individual.&lt;br/&gt;\n                                                    &lt;br/&gt;</div>"
          }
        }, {
          "title": "ComponentTitle - Information And Advice Given"
        }, {
          "title": "ComponentTitle - Disposition",
          "text": {
            "status": "generated",
            "div": "<div xmlns=\"http://www.w3.org/1999/xhtml\">&lt;content&gt;ComponentText - Repeat Prescription required within 24 hours&lt;br/&gt;\n                                                    &lt;/content&gt;\n                                                    &lt;br/&gt;\n                                                    &lt;br/&gt;</div>"
          }
        } ]
      }, {
        "title": "CarePlan",
        "entry": [ {
          "reference": "urn:uuid:13ff5139-7868-4553-b5a1-ab8f81bdf541"
        } ]
      }, {
        "title": "ReferralRequest",
        "entry": [ {
          "reference": "urn:uuid:3e3d7838-072d-410c-aca5-5699353d9441"
        } ]
      }, {
        "title": "QuestionnaireResponse",
        "entry": [ {
          "reference": "urn:uuid:df572cad-f680-41e5-b046-3c6f8aa94e98"
        } ]
      }, {
        "title": "QuestionnaireResponse",
        "entry": [ {
          "reference": "urn:uuid:8005b3ad-278c-4e78-b721-fb44823cec5d"
        } ]
      }, {
        "title": "QuestionnaireResponse",
        "entry": [ {
          "reference": "urn:uuid:962661a1-4cc7-47e3-be3e-7e1f7ee46086"
        } ]
      }, {
        "title": "QuestionnaireResponse",
        "entry": [ {
          "reference": "urn:uuid:01058bf6-f619-4645-bf9b-97bd0bf7d5ac"
        } ]
      }, {
        "title": "QuestionnaireResponse",
        "entry": [ {
          "reference": "urn:uuid:bc8d1154-ac72-47bd-9662-a6951769a57e"
        } ]
      }, {
        "title": "QuestionnaireResponse",
        "entry": [ {
          "reference": "urn:uuid:2890a28f-da38-406e-be4e-da5fcaa72020"
        } ]
      }, {
        "title": "QuestionnaireResponse",
        "entry": [ {
          "reference": "urn:uuid:9f2ba968-31a4-42ab-8711-951ab2a05a7c"
        } ]
      }, {
        "title": "QuestionnaireResponse",
        "entry": [ {
          "reference": "urn:uuid:b6b63971-ce0f-4af3-b4b6-434eaa030c1d"
        } ]
      }, {
        "title": "QuestionnaireResponse",
        "entry": [ {
          "reference": "urn:uuid:b6573a21-0df7-49de-a05c-fbd8fc1ce943"
        } ]
      }, {
        "title": "QuestionnaireResponse",
        "entry": [ {
          "reference": "urn:uuid:00b17cd4-1d23-4221-b759-ebabdab60129"
        } ]
      }, {
        "title": "QuestionnaireResponse",
        "entry": [ {
          "reference": "urn:uuid:c23a9025-e750-45ae-986a-839f5d3a2621"
        } ]
      }, {
        "title": "QuestionnaireResponse",
        "entry": [ {
          "reference": "urn:uuid:b4f0143b-5f1f-4a8e-a6ac-46981308f53c"
        } ]
      }, {
        "title": "QuestionnaireResponse",
        "entry": [ {
          "reference": "urn:uuid:bb0cd619-5386-42b2-9be5-7790aa0ec932"
        } ]
      }, {
        "title": "QuestionnaireResponse",
        "entry": [ {
          "reference": "urn:uuid:1a8a3722-30dd-4725-af06-214306204c14"
        } ]
      }, {
        "title": "QuestionnaireResponse",
        "entry": [ {
          "reference": "urn:uuid:814663cf-0499-4ac5-bd60-d3bb75169038"
        } ]
      } ]
    }
  }, {
    "fullUrl": "urn:uuid:13ff5139-7868-4553-b5a1-ab8f81bdf541",
    "resource": {
      "resourceType": "CarePlan",
      "id": "13ff5139-7868-4553-b5a1-ab8f81bdf541",
      "status": "completed",
      "intent": "plan",
      "title": "ComponentTitle - Information And Advice Given",
      "subject": {
        "reference": "urn:uuid:e8681707-935e-45e4-82e0-e47d8a9f0a18"
      },
      "context": {
        "reference": "urn:uuid:adaad0d3-f4d8-4858-9b0e-2f7cfcc7e2f3"
      },
      "period": {
        "start": "2021-04-06T15:13:33+00:00",
        "end": "2021-04-06T15:19:29+00:00"
      },
      "addresses": [ {
        "reference": "urn:uuid:12b836da-b13c-4547-a04f-a26c6c3426b9"
      } ]
    }
  }, {
    "fullUrl": "urn:uuid:287368a3-251a-4b6b-a5cb-51c96847ef10",
    "resource": {
      "resourceType": "Consent",
      "id": "287368a3-251a-4b6b-a5cb-51c96847ef10",
      "identifier": {
        "use": "usual",
        "value": "E2DF04F7-95CA-40AD-808D-797C0A89E39C"
      },
      "status": "active",
      "patient": {
        "reference": "urn:uuid:e8681707-935e-45e4-82e0-e47d8a9f0a18"
      },
      "period": {
        "start": "2021-04-06T15:13:33+00:00",
        "end": "2021-04-06T15:19:29+00:00"
      },
      "consentingParty": [ {
        "reference": "urn:uuid:e8681707-935e-45e4-82e0-e47d8a9f0a18"
      } ],
      "action": [ {
        "coding": [ {
          "system": "http://snomed.info/sct",
          "code": "425691002",
          "display": "Consent given for electronic record sharing"
        } ],
        "text": "Consent given for electronic record sharing"
      } ],
      "organization": [ {
        "reference": "urn:uuid:58e8c04a-2ebe-4fc7-b10e-e044f9099762"
      } ],
      "policyRule": "http://hl7.org/fhir/ConsentPolicy/opt-out",
      "data": [ {
        "meaning": "related",
        "reference": {
          "reference": "urn:uuid:adaad0d3-f4d8-4858-9b0e-2f7cfcc7e2f3"
        }
      } ]
    }
  }, {
    "fullUrl": "urn:uuid:12b836da-b13c-4547-a04f-a26c6c3426b9",
    "resource": {
      "resourceType": "Condition",
      "id": "12b836da-b13c-4547-a04f-a26c6c3426b9",
      "clinicalStatus": "active",
      "verificationStatus": "unknown",
      "subject": {
        "reference": "urn:uuid:e8681707-935e-45e4-82e0-e47d8a9f0a18"
      },
      "context": {
        "reference": "urn:uuid:adaad0d3-f4d8-4858-9b0e-2f7cfcc7e2f3"
      },
      "evidence": [ {
        "detail": [ {
          "reference": "urn:uuid:df572cad-f680-41e5-b046-3c6f8aa94e98"
        } ]
      }, {
        "detail": [ {
          "reference": "urn:uuid:8005b3ad-278c-4e78-b721-fb44823cec5d"
        } ]
      }, {
        "detail": [ {
          "reference": "urn:uuid:962661a1-4cc7-47e3-be3e-7e1f7ee46086"
        } ]
      }, {
        "detail": [ {
          "reference": "urn:uuid:01058bf6-f619-4645-bf9b-97bd0bf7d5ac"
        } ]
      }, {
        "detail": [ {
          "reference": "urn:uuid:bc8d1154-ac72-47bd-9662-a6951769a57e"
        } ]
      }, {
        "detail": [ {
          "reference": "urn:uuid:2890a28f-da38-406e-be4e-da5fcaa72020"
        } ]
      }, {
        "detail": [ {
          "reference": "urn:uuid:9f2ba968-31a4-42ab-8711-951ab2a05a7c"
        } ]
      }, {
        "detail": [ {
          "reference": "urn:uuid:b6b63971-ce0f-4af3-b4b6-434eaa030c1d"
        } ]
      }, {
        "detail": [ {
          "reference": "urn:uuid:b6573a21-0df7-49de-a05c-fbd8fc1ce943"
        } ]
      }, {
        "detail": [ {
          "reference": "urn:uuid:00b17cd4-1d23-4221-b759-ebabdab60129"
        } ]
      }, {
        "detail": [ {
          "reference": "urn:uuid:c23a9025-e750-45ae-986a-839f5d3a2621"
        } ]
      }, {
        "detail": [ {
          "reference": "urn:uuid:b4f0143b-5f1f-4a8e-a6ac-46981308f53c"
        } ]
      }, {
        "detail": [ {
          "reference": "urn:uuid:bb0cd619-5386-42b2-9be5-7790aa0ec932"
        } ]
      }, {
        "detail": [ {
          "reference": "urn:uuid:1a8a3722-30dd-4725-af06-214306204c14"
        } ]
      }, {
        "detail": [ {
          "reference": "urn:uuid:814663cf-0499-4ac5-bd60-d3bb75169038"
        } ]
      } ]
    }
  }, {
    "fullUrl": "urn:uuid:df572cad-f680-41e5-b046-3c6f8aa94e98",
    "resource": {
      "resourceType": "QuestionnaireResponse",
      "id": "df572cad-f680-41e5-b046-3c6f8aa94e98",
      "identifier": {
        "value": "60319"
      },
      "questionnaire": {
        "reference": "urn:uuid:5ee2d118-ce32-4c8b-b5cb-c4cdf40f9933"
      },
      "status": "completed",
      "subject": {
        "reference": "urn:uuid:e8681707-935e-45e4-82e0-e47d8a9f0a18"
      },
      "context": {
        "reference": "urn:uuid:adaad0d3-f4d8-4858-9b0e-2f7cfcc7e2f3"
      },
      "authored": "2021-04-06T15:19:34+00:00",
      "item": [ {
        "linkId": "Tx220109",
        "text": "What is the reason for the contact?",
        "answer": [ {
          "valueString": "more"
        } ]
      } ]
    }
  }, {
    "fullUrl": "urn:uuid:5ee2d118-ce32-4c8b-b5cb-c4cdf40f9933",
    "resource": {
      "resourceType": "Questionnaire",
      "id": "5ee2d118-ce32-4c8b-b5cb-c4cdf40f9933",
      "identifier": [ {
        "value": "60319"
      } ],
      "version": "2021-04-06T15:19:34.083Z",
      "status": "active",
      "experimental": false,
      "date": "2021-04-06T15:19:34+00:00",
      "publisher": "User ID: 'HADFIELDR' User name: 'Ryan Hadfield' User skill set: 'T3'",
      "lastReviewDate": "2021-04-06",
      "contact": [ {
        "telecom": [ {
          "system": "phone",
          "value": "0111 111 1111"
        } ]
      } ],
      "subjectType": [ "Patient" ],
      "item": [ {
        "linkId": "60319",
        "prefix": "5",
        "text": "What is the reason for the contact?",
        "type": "choice",
        "required": true,
        "repeats": false,
        "option": [ {
          "valueString": "an injury or other health problem, Selected: false"
        }, {
          "valueString": "a need to access another healthcare service, Selected: false"
        }, {
          "valueString": "a healthcare professional requesting contact with another clinician, Selected: false"
        }, {
          "valueString": "a report of results or tests, Selected: false"
        }, {
          "valueString": "more, Selected: true"
        } ]
      } ]
    }
  }, {
    "fullUrl": "urn:uuid:8005b3ad-278c-4e78-b721-fb44823cec5d",
    "resource": {
      "resourceType": "QuestionnaireResponse",
      "id": "8005b3ad-278c-4e78-b721-fb44823cec5d",
      "identifier": {
        "value": "60319"
      },
      "questionnaire": {
        "reference": "urn:uuid:ae4ec3f6-7bb0-4966-a961-7384ac0e2817"
      },
      "status": "completed",
      "subject": {
        "reference": "urn:uuid:e8681707-935e-45e4-82e0-e47d8a9f0a18"
      },
      "context": {
        "reference": "urn:uuid:adaad0d3-f4d8-4858-9b0e-2f7cfcc7e2f3"
      },
      "authored": "2021-04-06T15:19:34+00:00",
      "item": [ {
        "linkId": "Tx221793",
        "text": "STRING:to'Social&information'-further'Callreason'menu",
        "answer": [ {
          "valueString": "\"present\""
        } ]
      } ]
    }
  }, {
    "fullUrl": "urn:uuid:ae4ec3f6-7bb0-4966-a961-7384ac0e2817",
    "resource": {
      "resourceType": "Questionnaire",
      "id": "ae4ec3f6-7bb0-4966-a961-7384ac0e2817",
      "identifier": [ {
        "value": "60319"
      } ],
      "version": "2021-04-06T15:19:34.083Z",
      "status": "active",
      "experimental": false,
      "date": "2021-04-06T15:19:34+00:00",
      "publisher": "User ID: 'HADFIELDR' User name: 'Ryan Hadfield' User skill set: 'T3'",
      "lastReviewDate": "2021-04-06",
      "contact": [ {
        "telecom": [ {
          "system": "phone",
          "value": "0111 111 1111"
        } ]
      } ],
      "subjectType": [ "Patient" ],
      "item": [ {
        "linkId": "60319",
        "prefix": "600",
        "text": "STRING:to'Social&information'-further'Callreason'menu",
        "type": "choice",
        "required": true,
        "repeats": false,
        "option": [ {
          "valueString": "\"present\", Selected: true"
        } ]
      } ]
    }
  }, {
    "fullUrl": "urn:uuid:962661a1-4cc7-47e3-be3e-7e1f7ee46086",
    "resource": {
      "resourceType": "QuestionnaireResponse",
      "id": "962661a1-4cc7-47e3-be3e-7e1f7ee46086",
      "identifier": {
        "value": "60319"
      },
      "questionnaire": {
        "reference": "urn:uuid:f1d8f987-b37d-4c58-81b8-33240401b9de"
      },
      "status": "completed",
      "subject": {
        "reference": "urn:uuid:e8681707-935e-45e4-82e0-e47d8a9f0a18"
      },
      "context": {
        "reference": "urn:uuid:adaad0d3-f4d8-4858-9b0e-2f7cfcc7e2f3"
      },
      "authored": "2021-04-06T15:19:34+00:00"
    }
  }, {
    "fullUrl": "urn:uuid:f1d8f987-b37d-4c58-81b8-33240401b9de",
    "resource": {
      "resourceType": "Questionnaire",
      "id": "f1d8f987-b37d-4c58-81b8-33240401b9de",
      "identifier": [ {
        "value": "60319"
      } ],
      "version": "2021-04-06T15:19:34.083Z",
      "status": "active",
      "experimental": false,
      "date": "2021-04-06T15:19:34+00:00",
      "publisher": "User ID: 'HADFIELDR' User name: 'Ryan Hadfield' User skill set: 'T3'",
      "lastReviewDate": "2021-04-06",
      "contact": [ {
        "telecom": [ {
          "system": "phone",
          "value": "0111 111 1111"
        } ]
      } ],
      "subjectType": [ "Patient" ]
    }
  }, {
    "fullUrl": "urn:uuid:01058bf6-f619-4645-bf9b-97bd0bf7d5ac",
    "resource": {
      "resourceType": "QuestionnaireResponse",
      "id": "01058bf6-f619-4645-bf9b-97bd0bf7d5ac",
      "identifier": {
        "value": "60319"
      },
      "questionnaire": {
        "reference": "urn:uuid:03d11ddd-57ff-456b-9531-0dec720b153c"
      },
      "status": "completed",
      "subject": {
        "reference": "urn:uuid:e8681707-935e-45e4-82e0-e47d8a9f0a18"
      },
      "context": {
        "reference": "urn:uuid:adaad0d3-f4d8-4858-9b0e-2f7cfcc7e2f3"
      },
      "authored": "2021-04-06T15:19:34+00:00",
      "item": [ {
        "linkId": "Tx221804",
        "text": "STRING:transfertofurthermenuquestionestablishedinEntryFlow",
        "answer": [ {
          "valueString": "\"present\""
        } ]
      } ]
    }
  }, {
    "fullUrl": "urn:uuid:03d11ddd-57ff-456b-9531-0dec720b153c",
    "resource": {
      "resourceType": "Questionnaire",
      "id": "03d11ddd-57ff-456b-9531-0dec720b153c",
      "identifier": [ {
        "value": "60319"
      } ],
      "version": "2021-04-06T15:19:34.083Z",
      "status": "active",
      "experimental": false,
      "date": "2021-04-06T15:19:34+00:00",
      "publisher": "User ID: 'HADFIELDR' User name: 'Ryan Hadfield' User skill set: 'T3'",
      "lastReviewDate": "2021-04-06",
      "contact": [ {
        "telecom": [ {
          "system": "phone",
          "value": "0111 111 1111"
        } ]
      } ],
      "subjectType": [ "Patient" ],
      "item": [ {
        "linkId": "60319",
        "prefix": "41",
        "text": "STRING:transfertofurthermenuquestionestablishedinEntryFlow",
        "type": "choice",
        "required": true,
        "repeats": false,
        "option": [ {
          "valueString": "\"present\", Selected: true"
        } ]
      } ]
    }
  }, {
    "fullUrl": "urn:uuid:bc8d1154-ac72-47bd-9662-a6951769a57e",
    "resource": {
      "resourceType": "QuestionnaireResponse",
      "id": "bc8d1154-ac72-47bd-9662-a6951769a57e",
      "identifier": {
        "value": "60319"
      },
      "questionnaire": {
        "reference": "urn:uuid:930ba055-4c2f-40e0-9690-6a2fe7691fd5"
      },
      "status": "completed",
      "subject": {
        "reference": "urn:uuid:e8681707-935e-45e4-82e0-e47d8a9f0a18"
      },
      "context": {
        "reference": "urn:uuid:adaad0d3-f4d8-4858-9b0e-2f7cfcc7e2f3"
      },
      "authored": "2021-04-06T15:19:34+00:00",
      "item": [ {
        "linkId": "Tx224998",
        "text": "SYSTEM_COVIDLEVEL2",
        "answer": [ {
          "valueString": "==\"covidlevel2\""
        } ]
      } ]
    }
  }, {
    "fullUrl": "urn:uuid:930ba055-4c2f-40e0-9690-6a2fe7691fd5",
    "resource": {
      "resourceType": "Questionnaire",
      "id": "930ba055-4c2f-40e0-9690-6a2fe7691fd5",
      "identifier": [ {
        "value": "60319"
      } ],
      "version": "2021-04-06T15:19:34.083Z",
      "status": "active",
      "experimental": false,
      "date": "2021-04-06T15:19:34+00:00",
      "publisher": "User ID: 'HADFIELDR' User name: 'Ryan Hadfield' User skill set: 'T3'",
      "lastReviewDate": "2021-04-06",
      "contact": [ {
        "telecom": [ {
          "system": "phone",
          "value": "0111 111 1111"
        } ]
      } ],
      "subjectType": [ "Patient" ],
      "item": [ {
        "linkId": "60319",
        "prefix": "5900",
        "text": "SYSTEM_COVIDLEVEL2",
        "type": "choice",
        "required": true,
        "repeats": false,
        "option": [ {
          "valueString": "==\"covidlevel2\", Selected: true"
        }, {
          "valueString": "*, Selected: false"
        } ]
      } ]
    }
  }, {
    "fullUrl": "urn:uuid:2890a28f-da38-406e-be4e-da5fcaa72020",
    "resource": {
      "resourceType": "QuestionnaireResponse",
      "id": "2890a28f-da38-406e-be4e-da5fcaa72020",
      "identifier": {
        "value": "60319"
      },
      "questionnaire": {
        "reference": "urn:uuid:427ef082-5621-48d9-b199-86448d2019ca"
      },
      "status": "completed",
      "subject": {
        "reference": "urn:uuid:e8681707-935e-45e4-82e0-e47d8a9f0a18"
      },
      "context": {
        "reference": "urn:uuid:adaad0d3-f4d8-4858-9b0e-2f7cfcc7e2f3"
      },
      "authored": "2021-04-06T15:19:34+00:00",
      "item": [ {
        "linkId": "Tx225069",
        "text": "What is the reason for the contact?",
        "answer": [ {
          "valueString": "a prescription request"
        } ]
      } ]
    }
  }, {
    "fullUrl": "urn:uuid:427ef082-5621-48d9-b199-86448d2019ca",
    "resource": {
      "resourceType": "Questionnaire",
      "id": "427ef082-5621-48d9-b199-86448d2019ca",
      "identifier": [ {
        "value": "60319"
      } ],
      "version": "2021-04-06T15:19:34.083Z",
      "status": "active",
      "experimental": false,
      "date": "2021-04-06T15:19:34+00:00",
      "publisher": "User ID: 'HADFIELDR' User name: 'Ryan Hadfield' User skill set: 'T3'",
      "lastReviewDate": "2021-04-06",
      "contact": [ {
        "telecom": [ {
          "system": "phone",
          "value": "0111 111 1111"
        } ]
      } ],
      "subjectType": [ "Patient" ],
      "item": [ {
        "linkId": "60319",
        "prefix": "6000",
        "text": "What is the reason for the contact?",
        "type": "choice",
        "required": true,
        "repeats": false,
        "option": [ {
          "valueString": "a child protection/vulnerable adult concern (specify), Selected: false"
        }, {
          "valueString": "a social or domestic emergency, Selected: false"
        }, {
          "valueString": "a prescription request, Selected: true"
        }, {
          "valueString": "an appointment request, Selected: false"
        }, {
          "valueString": "a request for health or medication information, Selected: false"
        }, {
          "valueString": "public health alert information, Selected: false"
        } ]
      } ]
    }
  }, {
    "fullUrl": "urn:uuid:9f2ba968-31a4-42ab-8711-951ab2a05a7c",
    "resource": {
      "resourceType": "QuestionnaireResponse",
      "id": "9f2ba968-31a4-42ab-8711-951ab2a05a7c",
      "identifier": {
        "value": "60319"
      },
      "questionnaire": {
        "reference": "urn:uuid:c7c3e757-7db8-424d-a6ad-5a98ae66a05d"
      },
      "status": "completed",
      "subject": {
        "reference": "urn:uuid:e8681707-935e-45e4-82e0-e47d8a9f0a18"
      },
      "context": {
        "reference": "urn:uuid:adaad0d3-f4d8-4858-9b0e-2f7cfcc7e2f3"
      },
      "authored": "2021-04-06T15:19:34+00:00",
      "item": [ {
        "linkId": "Tx220957",
        "text": "Is this contact about a new or worsening illness?",
        "answer": [ {
          "valueString": "no"
        } ]
      } ]
    }
  }, {
    "fullUrl": "urn:uuid:c7c3e757-7db8-424d-a6ad-5a98ae66a05d",
    "resource": {
      "resourceType": "Questionnaire",
      "id": "c7c3e757-7db8-424d-a6ad-5a98ae66a05d",
      "identifier": [ {
        "value": "60319"
      } ],
      "version": "2021-04-06T15:19:34.083Z",
      "status": "active",
      "experimental": false,
      "date": "2021-04-06T15:19:34+00:00",
      "publisher": "User ID: 'HADFIELDR' User name: 'Ryan Hadfield' User skill set: 'T3'",
      "lastReviewDate": "2021-04-06",
      "contact": [ {
        "telecom": [ {
          "system": "phone",
          "value": "0111 111 1111"
        } ]
      } ],
      "subjectType": [ "Patient" ],
      "item": [ {
        "linkId": "60319",
        "prefix": "1400",
        "text": "Is this contact about a new or worsening illness?",
        "type": "choice",
        "required": true,
        "repeats": false,
        "option": [ {
          "valueString": "yes, Selected: false"
        }, {
          "valueString": "not sure, Selected: false"
        }, {
          "valueString": "no, Selected: true"
        } ]
      } ]
    }
  }, {
    "fullUrl": "urn:uuid:b6b63971-ce0f-4af3-b4b6-434eaa030c1d",
    "resource": {
      "resourceType": "QuestionnaireResponse",
      "id": "b6b63971-ce0f-4af3-b4b6-434eaa030c1d",
      "identifier": {
        "value": "60319"
      },
      "questionnaire": {
        "reference": "urn:uuid:88eb879d-6736-44c5-a83f-b4fcd7f85804"
      },
      "status": "completed",
      "subject": {
        "reference": "urn:uuid:e8681707-935e-45e4-82e0-e47d8a9f0a18"
      },
      "context": {
        "reference": "urn:uuid:adaad0d3-f4d8-4858-9b0e-2f7cfcc7e2f3"
      },
      "authored": "2021-04-06T15:19:34+00:00",
      "item": [ {
        "linkId": "Tx221352",
        "text": "Have you got enough medication to last until the surgery opens?",
        "answer": [ {
          "valueString": "no"
        } ]
      } ]
    }
  }, {
    "fullUrl": "urn:uuid:88eb879d-6736-44c5-a83f-b4fcd7f85804",
    "resource": {
      "resourceType": "Questionnaire",
      "id": "88eb879d-6736-44c5-a83f-b4fcd7f85804",
      "identifier": [ {
        "value": "60319"
      } ],
      "version": "2021-04-06T15:19:34.083Z",
      "status": "active",
      "experimental": false,
      "date": "2021-04-06T15:19:34+00:00",
      "publisher": "User ID: 'HADFIELDR' User name: 'Ryan Hadfield' User skill set: 'T3'",
      "lastReviewDate": "2021-04-06",
      "contact": [ {
        "telecom": [ {
          "system": "phone",
          "value": "0111 111 1111"
        } ]
      } ],
      "subjectType": [ "Patient" ],
      "item": [ {
        "linkId": "60319",
        "prefix": "1500",
        "text": "Have you got enough medication to last until the surgery opens?",
        "type": "choice",
        "required": true,
        "repeats": false,
        "option": [ {
          "valueString": "yes, Selected: false"
        }, {
          "valueString": "not sure, Selected: false"
        }, {
          "valueString": "no, Selected: true"
        } ]
      } ]
    }
  }, {
    "fullUrl": "urn:uuid:b6573a21-0df7-49de-a05c-fbd8fc1ce943",
    "resource": {
      "resourceType": "QuestionnaireResponse",
      "id": "b6573a21-0df7-49de-a05c-fbd8fc1ce943",
      "identifier": {
        "value": "60319"
      },
      "questionnaire": {
        "reference": "urn:uuid:08b97814-8fc2-47f4-b3ea-af1d6a205811"
      },
      "status": "completed",
      "subject": {
        "reference": "urn:uuid:e8681707-935e-45e4-82e0-e47d8a9f0a18"
      },
      "context": {
        "reference": "urn:uuid:adaad0d3-f4d8-4858-9b0e-2f7cfcc7e2f3"
      },
      "authored": "2021-04-06T15:19:34+00:00"
    }
  }, {
    "fullUrl": "urn:uuid:08b97814-8fc2-47f4-b3ea-af1d6a205811",
    "resource": {
      "resourceType": "Questionnaire",
      "id": "08b97814-8fc2-47f4-b3ea-af1d6a205811",
      "identifier": [ {
        "value": "60319"
      } ],
      "version": "2021-04-06T15:19:34.083Z",
      "status": "active",
      "experimental": false,
      "date": "2021-04-06T15:19:34+00:00",
      "publisher": "User ID: 'HADFIELDR' User name: 'Ryan Hadfield' User skill set: 'T3'",
      "lastReviewDate": "2021-04-06",
      "contact": [ {
        "telecom": [ {
          "system": "phone",
          "value": "0111 111 1111"
        } ]
      } ],
      "subjectType": [ "Patient" ]
    }
  }, {
    "fullUrl": "urn:uuid:00b17cd4-1d23-4221-b759-ebabdab60129",
    "resource": {
      "resourceType": "QuestionnaireResponse",
      "id": "00b17cd4-1d23-4221-b759-ebabdab60129",
      "identifier": {
        "value": "60319"
      },
      "questionnaire": {
        "reference": "urn:uuid:1ee4f96a-9330-4bc9-88ab-f43a84589411"
      },
      "status": "completed",
      "subject": {
        "reference": "urn:uuid:e8681707-935e-45e4-82e0-e47d8a9f0a18"
      },
      "context": {
        "reference": "urn:uuid:adaad0d3-f4d8-4858-9b0e-2f7cfcc7e2f3"
      },
      "authored": "2021-04-06T15:19:34+00:00",
      "item": [ {
        "linkId": "Tx224231",
        "text": "FROM WHAT YOU HAVE HEARD IS A CONSULTATION WITH A PRESCRIBER NEEDED?",
        "answer": [ {
          "valueString": "no"
        } ]
      } ]
    }
  }, {
    "fullUrl": "urn:uuid:1ee4f96a-9330-4bc9-88ab-f43a84589411",
    "resource": {
      "resourceType": "Questionnaire",
      "id": "1ee4f96a-9330-4bc9-88ab-f43a84589411",
      "identifier": [ {
        "value": "60319"
      } ],
      "version": "2021-04-06T15:19:34.083Z",
      "status": "active",
      "experimental": false,
      "date": "2021-04-06T15:19:34+00:00",
      "publisher": "User ID: 'HADFIELDR' User name: 'Ryan Hadfield' User skill set: 'T3'",
      "lastReviewDate": "2021-04-06",
      "contact": [ {
        "telecom": [ {
          "system": "phone",
          "value": "0111 111 1111"
        } ]
      } ],
      "subjectType": [ "Patient" ],
      "item": [ {
        "linkId": "60319",
        "prefix": "0",
        "text": "FROM WHAT YOU HAVE HEARD IS A CONSULTATION WITH A PRESCRIBER NEEDED?",
        "type": "choice",
        "required": true,
        "repeats": false,
        "option": [ {
          "valueString": "yes, Selected: false"
        }, {
          "valueString": "not sure, Selected: false"
        }, {
          "valueString": "no, Selected: true"
        } ]
      } ]
    }
  }, {
    "fullUrl": "urn:uuid:c23a9025-e750-45ae-986a-839f5d3a2621",
    "resource": {
      "resourceType": "QuestionnaireResponse",
      "id": "c23a9025-e750-45ae-986a-839f5d3a2621",
      "identifier": {
        "value": "60319"
      },
      "questionnaire": {
        "reference": "urn:uuid:cb634e22-9b7d-4881-aad2-0e8f6fb29077"
      },
      "status": "completed",
      "subject": {
        "reference": "urn:uuid:e8681707-935e-45e4-82e0-e47d8a9f0a18"
      },
      "context": {
        "reference": "urn:uuid:adaad0d3-f4d8-4858-9b0e-2f7cfcc7e2f3"
      },
      "authored": "2021-04-06T15:19:34+00:00",
      "item": [ {
        "linkId": "Tx222687",
        "text": "Have you got any of the medication available at the moment?",
        "answer": [ {
          "valueString": "no"
        } ]
      } ]
    }
  }, {
    "fullUrl": "urn:uuid:cb634e22-9b7d-4881-aad2-0e8f6fb29077",
    "resource": {
      "resourceType": "Questionnaire",
      "id": "cb634e22-9b7d-4881-aad2-0e8f6fb29077",
      "identifier": [ {
        "value": "60319"
      } ],
      "version": "2021-04-06T15:19:34.083Z",
      "status": "active",
      "experimental": false,
      "date": "2021-04-06T15:19:34+00:00",
      "publisher": "User ID: 'HADFIELDR' User name: 'Ryan Hadfield' User skill set: 'T3'",
      "lastReviewDate": "2021-04-06",
      "contact": [ {
        "telecom": [ {
          "system": "phone",
          "value": "0111 111 1111"
        } ]
      } ],
      "subjectType": [ "Patient" ],
      "item": [ {
        "linkId": "60319",
        "prefix": "200",
        "text": "Have you got any of the medication available at the moment?",
        "type": "choice",
        "required": true,
        "repeats": false,
        "option": [ {
          "valueString": "yes, Selected: false"
        }, {
          "valueString": "not sure, Selected: false"
        }, {
          "valueString": "no, Selected: true"
        } ]
      } ]
    }
  }, {
    "fullUrl": "urn:uuid:b4f0143b-5f1f-4a8e-a6ac-46981308f53c",
    "resource": {
      "resourceType": "QuestionnaireResponse",
      "id": "b4f0143b-5f1f-4a8e-a6ac-46981308f53c",
      "identifier": {
        "value": "60319"
      },
      "questionnaire": {
        "reference": "urn:uuid:6c1719a0-4e60-43c9-9008-b111351ecc8f"
      },
      "status": "completed",
      "subject": {
        "reference": "urn:uuid:e8681707-935e-45e4-82e0-e47d8a9f0a18"
      },
      "context": {
        "reference": "urn:uuid:adaad0d3-f4d8-4858-9b0e-2f7cfcc7e2f3"
      },
      "authored": "2021-04-06T15:19:34+00:00",
      "item": [ {
        "linkId": "Tx221367",
        "text": "When is the next dose due?",
        "answer": [ {
          "valueString": "over 12 hours time"
        } ]
      } ]
    }
  }, {
    "fullUrl": "urn:uuid:6c1719a0-4e60-43c9-9008-b111351ecc8f",
    "resource": {
      "resourceType": "Questionnaire",
      "id": "6c1719a0-4e60-43c9-9008-b111351ecc8f",
      "identifier": [ {
        "value": "60319"
      } ],
      "version": "2021-04-06T15:19:34.083Z",
      "status": "active",
      "experimental": false,
      "date": "2021-04-06T15:19:34+00:00",
      "publisher": "User ID: 'HADFIELDR' User name: 'Ryan Hadfield' User skill set: 'T3'",
      "lastReviewDate": "2021-04-06",
      "contact": [ {
        "telecom": [ {
          "system": "phone",
          "value": "0111 111 1111"
        } ]
      } ],
      "subjectType": [ "Patient" ],
      "item": [ {
        "linkId": "60319",
        "prefix": "100",
        "text": "When is the next dose due?",
        "type": "choice",
        "required": true,
        "repeats": false,
        "option": [ {
          "valueString": "within the next 2 hours, Selected: false"
        }, {
          "valueString": "within the next 6 hours, Selected: false"
        }, {
          "valueString": "within the next 12 hours, Selected: false"
        }, {
          "valueString": "over 12 hours time, Selected: true"
        }, {
          "valueString": "not sure, Selected: false"
        } ]
      } ]
    }
  }, {
    "fullUrl": "urn:uuid:bb0cd619-5386-42b2-9be5-7790aa0ec932",
    "resource": {
      "resourceType": "QuestionnaireResponse",
      "id": "bb0cd619-5386-42b2-9be5-7790aa0ec932",
      "identifier": {
        "value": "60319"
      },
      "questionnaire": {
        "reference": "urn:uuid:b65772e6-b0db-4afc-b271-4720415dc5c8"
      },
      "status": "completed",
      "subject": {
        "reference": "urn:uuid:e8681707-935e-45e4-82e0-e47d8a9f0a18"
      },
      "context": {
        "reference": "urn:uuid:adaad0d3-f4d8-4858-9b0e-2f7cfcc7e2f3"
      },
      "authored": "2021-04-06T15:19:34+00:00",
      "item": [ {
        "linkId": "Tx223441",
        "text": "STRING:SDPCRepeatPrescription",
        "answer": [ {
          "valueString": "\"PC repeat prescription\""
        } ]
      } ]
    }
  }, {
    "fullUrl": "urn:uuid:b65772e6-b0db-4afc-b271-4720415dc5c8",
    "resource": {
      "resourceType": "Questionnaire",
      "id": "b65772e6-b0db-4afc-b271-4720415dc5c8",
      "identifier": [ {
        "value": "60319"
      } ],
      "version": "2021-04-06T15:19:34.083Z",
      "status": "active",
      "experimental": false,
      "date": "2021-04-06T15:19:34+00:00",
      "publisher": "User ID: 'HADFIELDR' User name: 'Ryan Hadfield' User skill set: 'T3'",
      "lastReviewDate": "2021-04-06",
      "contact": [ {
        "telecom": [ {
          "system": "phone",
          "value": "0111 111 1111"
        } ]
      } ],
      "subjectType": [ "Patient" ],
      "item": [ {
        "linkId": "60319",
        "prefix": "1100",
        "text": "STRING:SDPCRepeatPrescription",
        "type": "choice",
        "required": true,
        "repeats": false,
        "option": [ {
          "valueString": "\"PC repeat prescription\", Selected: true"
        } ]
      } ]
    }
  }, {
    "fullUrl": "urn:uuid:1a8a3722-30dd-4725-af06-214306204c14",
    "resource": {
      "resourceType": "QuestionnaireResponse",
      "id": "1a8a3722-30dd-4725-af06-214306204c14",
      "identifier": {
        "value": "60319"
      },
      "questionnaire": {
        "reference": "urn:uuid:508c36bc-07e2-4a78-8eb3-9656fc0461ab"
      },
      "status": "completed",
      "subject": {
        "reference": "urn:uuid:e8681707-935e-45e4-82e0-e47d8a9f0a18"
      },
      "context": {
        "reference": "urn:uuid:adaad0d3-f4d8-4858-9b0e-2f7cfcc7e2f3"
      },
      "authored": "2021-04-06T15:19:34+00:00"
    }
  }, {
    "fullUrl": "urn:uuid:508c36bc-07e2-4a78-8eb3-9656fc0461ab",
    "resource": {
      "resourceType": "Questionnaire",
      "id": "508c36bc-07e2-4a78-8eb3-9656fc0461ab",
      "identifier": [ {
        "value": "60319"
      } ],
      "version": "2021-04-06T15:19:34.083Z",
      "status": "active",
      "experimental": false,
      "date": "2021-04-06T15:19:34+00:00",
      "publisher": "User ID: 'HADFIELDR' User name: 'Ryan Hadfield' User skill set: 'T3'",
      "lastReviewDate": "2021-04-06",
      "contact": [ {
        "telecom": [ {
          "system": "phone",
          "value": "0111 111 1111"
        } ]
      } ],
      "subjectType": [ "Patient" ]
    }
  }, {
    "fullUrl": "urn:uuid:814663cf-0499-4ac5-bd60-d3bb75169038",
    "resource": {
      "resourceType": "QuestionnaireResponse",
      "id": "814663cf-0499-4ac5-bd60-d3bb75169038",
      "identifier": {
        "value": "60319"
      },
      "questionnaire": {
        "reference": "urn:uuid:6c5f0fc4-5596-4361-b1d7-4cb5c7342ece"
      },
      "status": "completed",
      "subject": {
        "reference": "urn:uuid:e8681707-935e-45e4-82e0-e47d8a9f0a18"
      },
      "context": {
        "reference": "urn:uuid:adaad0d3-f4d8-4858-9b0e-2f7cfcc7e2f3"
      },
      "authored": "2021-04-06T15:19:34+00:00"
    }
  }, {
    "fullUrl": "urn:uuid:6c5f0fc4-5596-4361-b1d7-4cb5c7342ece",
    "resource": {
      "resourceType": "Questionnaire",
      "id": "6c5f0fc4-5596-4361-b1d7-4cb5c7342ece",
      "identifier": [ {
        "value": "60319"
      } ],
      "version": "2021-04-06T15:19:34.083Z",
      "status": "active",
      "experimental": false,
      "date": "2021-04-06T15:19:34+00:00",
      "publisher": "User ID: 'HADFIELDR' User name: 'Ryan Hadfield' User skill set: 'T3'",
      "lastReviewDate": "2021-04-06",
      "contact": [ {
        "telecom": [ {
          "system": "phone",
          "value": "0111 111 1111"
        } ]
      } ],
      "subjectType": [ "Patient" ]
    }
  }, {
    "fullUrl": "urn:uuid:393aa17d-5db0-481a-93d6-dde316dd6f06",
    "resource": {
      "resourceType": "PractitionerRole",
      "id": "393aa17d-5db0-481a-93d6-dde316dd6f06",
      "practitioner": {
        "reference": "urn:uuid:4199385d-00c3-4ac7-8efd-a9b3bc54e6e4"
      },
      "organization": {
        "reference": "urn:uuid:24ad3a51-a9bf-47f3-982b-a3fd2d27bf14"
      },
      "code": [ {
        "coding": [ {
          "system": "2.16.840.1.113883.2.1.3.2.4.17.339",
          "code": "DOCTOR",
          "display": "Doctor"
        } ]
      } ]
    }
  }, {
    "fullUrl": "urn:uuid:24ad3a51-a9bf-47f3-982b-a3fd2d27bf14",
    "resource": {
      "resourceType": "Organization",
      "id": "24ad3a51-a9bf-47f3-982b-a3fd2d27bf14",
      "identifier": [ {
        "value": "RYE"
      } ],
      "name": "RepresentedOrg Name"
    }
  }, {
    "fullUrl": "urn:uuid:7ee8e9cf-6522-45d1-8c9e-94c8d91b3deb",
    "resource": {
      "resourceType": "PractitionerRole",
      "id": "7ee8e9cf-6522-45d1-8c9e-94c8d91b3deb",
      "practitioner": {
        "reference": "urn:uuid:fa384542-3aca-4b76-af5c-65c15f7381d2"
      },
      "organization": {
        "reference": "urn:uuid:d2626bc6-5cdb-4b07-9261-c41c8d7c3844"
      },
      "code": [ {
        "coding": [ {
          "system": "2.16.840.1.113883.2.1.3.2.4.17.196",
          "code": "R0010",
          "display": "Medical Director"
        } ]
      } ]
    }
  }, {
    "fullUrl": "urn:uuid:d2626bc6-5cdb-4b07-9261-c41c8d7c3844",
    "resource": {
      "resourceType": "Organization",
      "id": "d2626bc6-5cdb-4b07-9261-c41c8d7c3844",
      "identifier": [ {
        "value": "RYE"
      } ],
      "name": "RepresentedOrgNameRYE"
    }
  }, {
    "fullUrl": "urn:uuid:5a7a324a-6773-4ca0-81a9-917a057653df",
    "resource": {
      "resourceType": "RelatedPerson",
      "id": "5a7a324a-6773-4ca0-81a9-917a057653df",
      "patient": {
        "reference": "urn:uuid:e8681707-935e-45e4-82e0-e47d8a9f0a18"
      },
      "relationship": {
        "coding": [ {
          "system": "http://hl7.org/fhir/v2/0131",
          "code": "C",
          "display": "Emergency Contact"
        } ]
      },
      "telecom": [ {
        "system": "phone",
        "value": "tel:000000000000"
      } ]
    }
  }, {
    "fullUrl": "urn:uuid:5ecfd1a8-c1fe-4783-8e95-2bd85b2f9c8f",
    "resource": {
      "resourceType": "Device",
      "id": "5ecfd1a8-c1fe-4783-8e95-2bd85b2f9c8f",
      "model": "111 Adaptor",
      "version": "1.0.1"
    }
  }, {
    "fullUrl": "urn:uuid:4d6903b7-bad1-4c79-b57c-d6fbabd16155",
    "resource": {
      "resourceType": "List",
      "id": "4d6903b7-bad1-4c79-b57c-d6fbabd16155",
      "status": "current",
      "mode": "working",
      "title": "111 Report List",
      "code": {
        "coding": [ {
          "system": "http://snomed.info/sct",
          "code": "225390008",
          "display": "Triage"
        } ]
      },
      "subject": {
        "reference": "urn:uuid:e8681707-935e-45e4-82e0-e47d8a9f0a18"
      },
      "encounter": {
        "reference": "urn:uuid:adaad0d3-f4d8-4858-9b0e-2f7cfcc7e2f3"
      },
      "date": "2021-04-06T15:19:34+00:00",
      "source": {
        "reference": "urn:uuid:5ecfd1a8-c1fe-4783-8e95-2bd85b2f9c8f"
      },
      "orderedBy": {
        "coding": [ {
          "system": "http://hl7.org/fhir/list-order",
          "code": "event-date",
          "display": "Sorted by Event Date"
        } ]
      },
      "entry": [ {
        "item": {
          "reference": "urn:uuid:5a7a324a-6773-4ca0-81a9-917a057653df"
        }
      }, {
        "item": {
          "reference": "urn:uuid:58e8c04a-2ebe-4fc7-b10e-e044f9099762"
        }
      }, {
        "item": {
          "reference": "urn:uuid:12b836da-b13c-4547-a04f-a26c6c3426b9"
        }
      }, {
        "item": {
          "reference": "urn:uuid:24ad3a51-a9bf-47f3-982b-a3fd2d27bf14"
        }
      }, {
        "item": {
          "reference": "urn:uuid:4199385d-00c3-4ac7-8efd-a9b3bc54e6e4"
        }
      }, {
        "item": {
          "reference": "urn:uuid:fa384542-3aca-4b76-af5c-65c15f7381d2"
        }
      }, {
        "item": {
          "reference": "urn:uuid:8ca3bcf3-bac4-4c35-be33-2529d7b855e7"
        }
      }, {
        "item": {
          "reference": "urn:uuid:8d63f662-5ef1-4c82-b6e2-bc2bbc934081"
        }
      }, {
        "item": {
          "reference": "urn:uuid:d2626bc6-5cdb-4b07-9261-c41c8d7c3844"
        }
      }, {
        "item": {
          "reference": "urn:uuid:8005b3ad-278c-4e78-b721-fb44823cec5d"
        }
      }, {
        "item": {
          "reference": "urn:uuid:df572cad-f680-41e5-b046-3c6f8aa94e98"
        }
      }, {
        "item": {
          "reference": "urn:uuid:00b17cd4-1d23-4221-b759-ebabdab60129"
        }
      }, {
        "item": {
          "reference": "urn:uuid:88eb879d-6736-44c5-a83f-b4fcd7f85804"
        }
      }, {
        "item": {
          "reference": "urn:uuid:c7c3e757-7db8-424d-a6ad-5a98ae66a05d"
        }
      }, {
        "item": {
          "reference": "urn:uuid:508c36bc-07e2-4a78-8eb3-9656fc0461ab"
        }
      }, {
        "item": {
          "reference": "urn:uuid:b6b63971-ce0f-4af3-b4b6-434eaa030c1d"
        }
      }, {
        "item": {
          "reference": "urn:uuid:b65772e6-b0db-4afc-b271-4720415dc5c8"
        }
      }, {
        "item": {
          "reference": "urn:uuid:427ef082-5621-48d9-b199-86448d2019ca"
        }
      }, {
        "item": {
          "reference": "urn:uuid:1a8a3722-30dd-4725-af06-214306204c14"
        }
      }, {
        "item": {
          "reference": "urn:uuid:5ee2d118-ce32-4c8b-b5cb-c4cdf40f9933"
        }
      }, {
        "item": {
          "reference": "urn:uuid:6c1719a0-4e60-43c9-9008-b111351ecc8f"
        }
      }, {
        "item": {
          "reference": "urn:uuid:bc8d1154-ac72-47bd-9662-a6951769a57e"
        }
      }, {
        "item": {
          "reference": "urn:uuid:c23a9025-e750-45ae-986a-839f5d3a2621"
        }
      }, {
        "item": {
          "reference": "urn:uuid:9f2ba968-31a4-42ab-8711-951ab2a05a7c"
        }
      }, {
        "item": {
          "reference": "urn:uuid:930ba055-4c2f-40e0-9690-6a2fe7691fd5"
        }
      }, {
        "item": {
          "reference": "urn:uuid:08b97814-8fc2-47f4-b3ea-af1d6a205811"
        }
      }, {
        "item": {
          "reference": "urn:uuid:2890a28f-da38-406e-be4e-da5fcaa72020"
        }
      }, {
        "item": {
          "reference": "urn:uuid:1ee4f96a-9330-4bc9-88ab-f43a84589411"
        }
      }, {
        "item": {
          "reference": "urn:uuid:bb0cd619-5386-42b2-9be5-7790aa0ec932"
        }
      }, {
        "item": {
          "reference": "urn:uuid:814663cf-0499-4ac5-bd60-d3bb75169038"
        }
      }, {
        "item": {
          "reference": "urn:uuid:6c5f0fc4-5596-4361-b1d7-4cb5c7342ece"
        }
      }, {
        "item": {
          "reference": "urn:uuid:b4f0143b-5f1f-4a8e-a6ac-46981308f53c"
        }
      }, {
        "item": {
          "reference": "urn:uuid:962661a1-4cc7-47e3-be3e-7e1f7ee46086"
        }
      }, {
        "item": {
          "reference": "urn:uuid:cb634e22-9b7d-4881-aad2-0e8f6fb29077"
        }
      }, {
        "item": {
          "reference": "urn:uuid:01058bf6-f619-4645-bf9b-97bd0bf7d5ac"
        }
      }, {
        "item": {
          "reference": "urn:uuid:03d11ddd-57ff-456b-9531-0dec720b153c"
        }
      }, {
        "item": {
          "reference": "urn:uuid:f1d8f987-b37d-4c58-81b8-33240401b9de"
        }
      }, {
        "item": {
          "reference": "urn:uuid:ae4ec3f6-7bb0-4966-a961-7384ac0e2817"
        }
      }, {
        "item": {
          "reference": "urn:uuid:b6573a21-0df7-49de-a05c-fbd8fc1ce943"
        }
      }, {
        "item": {
          "reference": "urn:uuid:3e3d7838-072d-410c-aca5-5699353d9441"
        }
      } ]
    }
  } ]
}