{
  "resourceType": "Bundle",
  "identifier": {
    "type": {
      "text": "ClinicalDocument VersionNumber"
    },
    "value": "1"
  },
  "type": "message",
  "entry": [ {
    "fullUrl": "urn:uuid:F7916D36-4D5F-4A64-BD08-644E8A234AE2",
    "resource": {
      "resourceType": "MessageHeader",
      "id": "F7916D36-4D5F-4A64-BD08-644E8A234AE2",
      "event": {
        "system": "https://fhir.nhs.uk/STU3/CodeSystem/EventType-1",
        "code": "referral-1",
        "display": "Referral"
      },
      "destination": [ {
        "endpoint": "urn:nhs-uk:addressing:ods:NVE06:DOSServiceID:1335970392"
      } ],
      "timestamp": "2021-05-13T17:24:56.000+00:00",
      "source": {
        "name": "NHS 111 Adaptor",
        "endpoint": "http://localhost:8080/report"
      },
      "reason": {
        "coding": [ {
          "system": "urn:nhs-itk:ns:201005:interaction",
          "code": "urn:nhs-itk:interaction:primaryOutofHourRecipientNHS111CDADocument-v2-0"
        } ]
      }
    }
  }, {
    "fullUrl": "urn:uuid:73afc4c5-724c-49bd-b64e-d4ad7e86ca8e",
    "resource": {
      "resourceType": "Encounter",
      "id": "73afc4c5-724c-49bd-b64e-d4ad7e86ca8e",
      "identifier": [ {
        "system": "2.16.840.1.113883.2.1.3.2.4.18.34",
        "value": "2DBAE50F-F88C-4572-9866-F94FE0F1F25A"
      }, {
        "system": "2.16.840.1.113883.2.1.3.2.4.18.35",
        "value": "2100310450"
      } ],
      "status": "finished",
      "type": [ {
        "text": "111 Encounter Referral"
      } ],
      "subject": {
        "reference": "urn:uuid:a439dcbb-af31-457a-a533-dd817ab3e6a9"
      },
      "participant": [ {
        "type": [ {
          "coding": [ {
            "system": "http://hl7.org/fhir/ValueSet/encounter-participant-type",
            "code": "PPRF",
            "display": "Author"
          } ]
        } ],
        "individual": {
          "reference": "urn:uuid:47ca1543-9511-4dbb-9ced-6524a1165799"
        }
      }, {
        "type": [ {
          "text": "Informant"
        } ],
        "individual": {
          "reference": "urn:uuid:8960b955-9e1a-4386-bc20-08926c926513"
        }
      } ],
      "period": {
        "start": "2021-05-13T17:24:56+00:00"
      },
      "location": [ {
        "location": {
          "reference": "urn:uuid:a3339dad-a6ee-4185-882a-3a55cf5b2d56"
        },
        "status": "active"
      }, {
        "location": {
          "reference": "urn:uuid:fffbb492-ef75-4e81-a042-08ea98f03427"
        },
        "status": "completed"
      } ],
      "serviceProvider": {
        "reference": "urn:uuid:9a7e5571-ab6d-4112-9d7f-a17ae9ed524c"
      }
    }
  }, {
    "fullUrl": "urn:uuid:9a7e5571-ab6d-4112-9d7f-a17ae9ed524c",
    "resource": {
      "resourceType": "Organization",
      "id": "9a7e5571-ab6d-4112-9d7f-a17ae9ed524c",
      "active": true,
      "type": [ {
        "text": "CST"
      } ],
      "name": "Norfolk and Wisbech 111"
    }
  }, {
    "fullUrl": "urn:uuid:47ca1543-9511-4dbb-9ced-6524a1165799",
    "resource": {
      "resourceType": "Practitioner",
      "id": "47ca1543-9511-4dbb-9ced-6524a1165799",
      "active": true,
      "name": [ {
        "text": "Ben Smythson"
      } ]
    }
  }, {
    "fullUrl": "urn:uuid:8960b955-9e1a-4386-bc20-08926c926513",
    "resource": {
      "resourceType": "RelatedPerson",
      "id": "8960b955-9e1a-4386-bc20-08926c926513",
      "active": true,
      "patient": {
        "reference": "urn:uuid:a439dcbb-af31-457a-a533-dd817ab3e6a9"
      },
      "relationship": {
        "coding": [ {
          "system": "2.16.840.1.113883.2.1.3.2.4.16.45",
          "code": "21",
          "display": "Self"
        }, {
          "system": "http://hl7.org/fhir/v2/0131",
          "code": "C",
          "display": "Emergency Contact"
        } ]
      },
      "name": [ {
        "text": "Test Call Dx10 TEST CALL DX10"
      } ],
      "telecom": [ {
        "system": "phone",
        "value": "tel:01233123123"
      } ],
      "gender": "unknown"
    }
  }, {
    "fullUrl": "urn:uuid:a3339dad-a6ee-4185-882a-3a55cf5b2d56",
    "resource": {
      "resourceType": "Location",
      "id": "a3339dad-a6ee-4185-882a-3a55cf5b2d56",
      "managingOrganization": {
        "reference": "urn:uuid:56ab0586-12c8-406b-97eb-cd2d84f1c46d"
      }
    }
  }, {
    "fullUrl": "urn:uuid:56ab0586-12c8-406b-97eb-cd2d84f1c46d",
    "resource": {
      "resourceType": "Organization",
      "id": "56ab0586-12c8-406b-97eb-cd2d84f1c46d",
      "identifier": [ {
        "value": "Z10000"
      } ],
      "type": [ {
        "text": "GP Practice"
      } ],
      "name": "UNKNOWN"
    }
  }, {
    "fullUrl": "urn:uuid:fffbb492-ef75-4e81-a042-08ea98f03427",
    "resource": {
      "resourceType": "Location",
      "id": "fffbb492-ef75-4e81-a042-08ea98f03427",
      "address": {
        "type": "physical",
        "line": [ "313 VICTORIA ROAD", "LOWESTOFT" ],
        "postalCode": "NR33 9LS"
      }
    }
  }, {
    "fullUrl": "urn:uuid:a439dcbb-af31-457a-a533-dd817ab3e6a9",
    "resource": {
      "resourceType": "Patient",
      "id": "a439dcbb-af31-457a-a533-dd817ab3e6a9",
      "language": "en",
      "active": true,
      "name": [ {
        "use": "official",
        "family": "TEST CALL DX10",
        "given": [ "Test Call Dx10" ]
      } ],
      "telecom": [ {
        "system": "phone",
        "value": "tel:01233123123"
      } ],
      "gender": "male",
      "birthDate": "1996-03-25",
      "address": [ {
        "use": "home",
        "line": [ "313 VICTORIA ROAD", "LOWESTOFT" ],
        "postalCode": "NR33 9LS"
      }, {
        "type": "physical",
        "line": [ "313 VICTORIA ROAD", "LOWESTOFT" ],
        "postalCode": "NR33 9LS"
      } ],
      "generalPractitioner": [ {
        "reference": "urn:uuid:b81ef1ae-b7de-4fe3-be9b-1471d162118d"
      } ]
    }
  }, {
    "fullUrl": "urn:uuid:b81ef1ae-b7de-4fe3-be9b-1471d162118d",
    "resource": {
      "resourceType": "Organization",
      "id": "b81ef1ae-b7de-4fe3-be9b-1471d162118d",
      "identifier": [ {
        "value": "Z10000"
      } ],
      "type": [ {
        "text": "GP Practice"
      } ],
      "name": "UNKNOWN"
    }
  }, {
    "fullUrl": "urn:uuid:380ff8da-3e1a-4b28-a93b-35b01ae79e3e",
    "resource": {
      "resourceType": "HealthcareService",
      "id": "380ff8da-3e1a-4b28-a93b-35b01ae79e3e",
      "active": true,
      "providedBy": {
        "reference": "urn:uuid:9a980abe-93f7-483f-bf90-13ae19bda84b"
      },
      "location": [ {
        "reference": "urn:uuid:4ce20a61-0664-49c6-b997-05ce048afa85"
      } ],
      "name": "Out of Hours GP Service (Waveney) - Kirkley Mill Health Centre, Lowestoft"
    }
  }, {
    "fullUrl": "urn:uuid:4ce20a61-0664-49c6-b997-05ce048afa85",
    "resource": {
      "resourceType": "Location",
      "id": "4ce20a61-0664-49c6-b997-05ce048afa85",
      "managingOrganization": {
        "reference": "urn:uuid:9a980abe-93f7-483f-bf90-13ae19bda84b"
      }
    }
  }, {
    "fullUrl": "urn:uuid:9a980abe-93f7-483f-bf90-13ae19bda84b",
    "resource": {
      "resourceType": "Organization",
      "id": "9a980abe-93f7-483f-bf90-13ae19bda84b",
      "identifier": [ {
        "value": "NVE06"
      } ],
      "type": [ {
        "coding": [ {
          "code": "PRCP",
          "display": "Out of Hours GP Service (Waveney) - Kirkley Mill Health Centre, Lowestoft"
        } ]
      } ],
      "name": "Out of Hours GP Service (Waveney) - Kirkley Mill Health Centre, Lowestoft"
    }
  }, {
    "fullUrl": "urn:uuid:18a9b791-3436-475e-85b6-e3263eed68d2",
    "resource": {
      "resourceType": "ReferralRequest",
      "id": "18a9b791-3436-475e-85b6-e3263eed68d2",
      "status": "active",
      "intent": "plan",
      "priority": "routine",
      "subject": {
        "reference": "urn:uuid:a439dcbb-af31-457a-a533-dd817ab3e6a9"
      },
      "context": {
        "reference": "urn:uuid:73afc4c5-724c-49bd-b64e-d4ad7e86ca8e"
      },
      "occurrencePeriod": {
        "start": "2021-09-15T09:16:07+00:00",
        "end": "2021-09-15T10:16:07+00:00"
      },
      "authoredOn": "2021-05-13T17:24:56+00:00",
      "requester": {
        "agent": {
          "reference": "urn:uuid:646690a9-abf5-4a46-a1f9-d2ee8c276fc6"
        },
        "onBehalfOf": {
          "reference": "urn:uuid:9a7e5571-ab6d-4112-9d7f-a17ae9ed524c"
        }
      },
      "recipient": [ {
        "reference": "urn:uuid:6f6b4ce0-c8f7-46ad-8b1c-4f36214f6516"
      }, {
        "reference": "urn:uuid:380ff8da-3e1a-4b28-a93b-35b01ae79e3e"
      } ],
      "reasonReference": [ {
        "reference": "urn:uuid:512eabb2-3a80-42a7-98f5-5c1cdf9a029b"
      } ],
      "supportingInfo": [ {
        "reference": "urn:uuid:baf836ab-a59d-411e-9bfb-5247bc6e5079"
      } ]
    }
  }, {
    "fullUrl": "urn:uuid:baf836ab-a59d-411e-9bfb-5247bc6e5079",
    "resource": {
      "resourceType": "ProcedureRequest",
      "id": "baf836ab-a59d-411e-9bfb-5247bc6e5079",
      "status": "active",
      "intent": "plan",
      "priority": "routine",
      "doNotPerform": false,
      "code": {
        "coding": [ {
          "system": "2.16.840.1.113883.2.1.3.2.4.17.325",
          "code": "Dx10",
          "display": "MUST contact a local service for a Non-Urgent Appointment"
        } ]
      },
      "subject": {
        "reference": "urn:uuid:a439dcbb-af31-457a-a533-dd817ab3e6a9"
      },
      "occurrencePeriod": {
        "start": "2021-09-15T09:16:07+00:00",
        "end": "2021-09-15T10:16:07+00:00"
      },
      "reasonReference": [ {
        "reference": "urn:uuid:512eabb2-3a80-42a7-98f5-5c1cdf9a029b"
      } ]
    }
  }, {
    "fullUrl": "urn:uuid:6f6b4ce0-c8f7-46ad-8b1c-4f36214f6516",
    "resource": {
      "resourceType": "Practitioner",
      "id": "6f6b4ce0-c8f7-46ad-8b1c-4f36214f6516",
      "active": true,
      "telecom": [ {
        "system": "phone",
        "value": "tel:01233505450"
      } ],
      "address": [ {
        "type": "physical",
        "line": [ "Kingston House", "The Long Barrow", "Orbital Park", "Ashford", "Kent" ],
        "postalCode": "TN24 0GP"
      } ]
    }
  }, {
    "fullUrl": "urn:uuid:300b78cb-74ad-4b9b-a80c-648def439741",
    "resource": {
      "resourceType": "Composition",
      "id": "300b78cb-74ad-4b9b-a80c-648def439741",
      "identifier": {
        "use": "usual",
        "value": "895062D0-60A8-4EB4-9017-5F489D53694D"
      },
      "status": "final",
      "type": {
        "coding": [ {
          "system": "http://snomed.info/sct",
          "code": "371531000",
          "display": "Report of clinical encounter (record artifact)"
        } ]
      },
      "subject": {
        "reference": "urn:uuid:a439dcbb-af31-457a-a533-dd817ab3e6a9"
      },
      "encounter": {
        "reference": "urn:uuid:73afc4c5-724c-49bd-b64e-d4ad7e86ca8e"
      },
      "date": "2021-09-15T09:16:07+00:00",
      "author": [ {
        "reference": "urn:uuid:47ca1543-9511-4dbb-9ced-6524a1165799"
      } ],
      "title": "111 Report",
      "confidentiality": "R",
      "section": [ {
        "section": [ {
          "title": "Patient's Reported Condition",
          "text": {
            "status": "generated",
            "div": "<div xmlns=\"http://www.w3.org/1999/xhtml\">&lt;xml-fragment mediaType=&quot;text/x-hl7-text+xml&quot; xmlns:xsd=&quot;http://www.w3.org/2001/XMLSchema&quot; xmlns:xsi=&quot;http://www.w3.org/2001/XMLSchema-instance&quot;&gt;\n                                                    &lt;urn:content xmlns:urn=&quot;urn:hl7-org:v3&quot;&gt;&amp;lt;CLEO Ref: 2100310450&gt; Test Call &lt;urn:br/&gt;\n                                                    &lt;/urn:content&gt;\n                                                &lt;/xml-fragment&gt;</div>"
          }
        }, {
          "title": "Pathways Disposition",
          "text": {
            "status": "generated",
            "div": "<div xmlns=\"http://www.w3.org/1999/xhtml\">&lt;xml-fragment mediaType=&quot;text/x-hl7-text+xml&quot; xmlns:xsd=&quot;http://www.w3.org/2001/XMLSchema&quot; xmlns:xsi=&quot;http://www.w3.org/2001/XMLSchema-instance&quot;&gt;\n                                                    &lt;urn:content xmlns:urn=&quot;urn:hl7-org:v3&quot;&gt;If a pharmacy service is not available contact the GP practice during normal working hours. (Dx10)&lt;/urn:content&gt;\n                                                    &lt;urn:br xmlns:urn=&quot;urn:hl7-org:v3&quot;/&gt;\n                                                    &lt;urn:br xmlns:urn=&quot;urn:hl7-org:v3&quot;/&gt;\n                                                    &lt;urn:content xmlns:urn=&quot;urn:hl7-org:v3&quot;&gt;Selected Service: 1335970392, Out of Hours GP Service (Waveney) - Kirkley Mill Health Centre, Lowestoft, 111&lt;/urn:content&gt;\n                                                    &lt;urn:br xmlns:urn=&quot;urn:hl7-org:v3&quot;/&gt;\n                                                &lt;/xml-fragment&gt;</div>"
          }
        }, {
          "title": "Consultation Summary",
          "text": {
            "status": "generated",
            "div": "<div xmlns=\"http://www.w3.org/1999/xhtml\">&lt;xml-fragment mediaType=&quot;text/x-hl7-text+xml&quot; xmlns:xsd=&quot;http://www.w3.org/2001/XMLSchema&quot; xmlns:xsi=&quot;http://www.w3.org/2001/XMLSchema-instance&quot;&gt;\n                                                    &lt;urn:content xmlns:urn=&quot;urn:hl7-org:v3&quot;&gt;\n                                                        &lt;urn:content&gt;Worst acne feature, blackheads or whiteheads&lt;/urn:content&gt;\n                                                        &lt;urn:br/&gt;\n                                                        &lt;urn:content&gt;Acne&lt;/urn:content&gt;\n                                                        &lt;urn:br/&gt;\n                                                        &lt;urn:content&gt;Warm to touch&lt;/urn:content&gt;\n                                                        &lt;urn:br/&gt;\n                                                        &lt;urn:content&gt;Illness - test&lt;/urn:content&gt;\n                                                        &lt;urn:br/&gt;\n                                                    &lt;/urn:content&gt;\n                                                &lt;/xml-fragment&gt;</div>"
          }
        }, {
          "title": "Pathways Assessment",
          "text": {
            "status": "generated",
            "div": "<div xmlns=\"http://www.w3.org/1999/xhtml\">&lt;xml-fragment mediaType=&quot;text/x-hl7-text+xml&quot; xmlns:xsd=&quot;http://www.w3.org/2001/XMLSchema&quot; xmlns:xsi=&quot;http://www.w3.org/2001/XMLSchema-instance&quot;&gt;\n                                                    &lt;urn:content xmlns:urn=&quot;urn:hl7-org:v3&quot;&gt;An injury or health problem was the reason for the contact.&lt;/urn:content&gt;\n                                                    &lt;urn:br xmlns:urn=&quot;urn:hl7-org:v3&quot;/&gt;\n                                                    &lt;urn:content xmlns:urn=&quot;urn:hl7-org:v3&quot;&gt;Heavy bleeding had not occurred in the previous 2 hours.&lt;/urn:content&gt;\n                                                    &lt;urn:br xmlns:urn=&quot;urn:hl7-org:v3&quot;/&gt;\n                                                    &lt;urn:content xmlns:urn=&quot;urn:hl7-org:v3&quot;&gt;An illness or health problem was the main problem. - test&lt;/urn:content&gt;\n                                                    &lt;urn:br xmlns:urn=&quot;urn:hl7-org:v3&quot;/&gt;\n                                                    &lt;urn:content xmlns:urn=&quot;urn:hl7-org:v3&quot;&gt;The individual was not fighting for breath.&lt;/urn:content&gt;\n                                                    &lt;urn:br xmlns:urn=&quot;urn:hl7-org:v3&quot;/&gt;\n                                                    &lt;urn:content xmlns:urn=&quot;urn:hl7-org:v3&quot;&gt;The main reason for the assessment was not an allergic reaction, heart attack, chest/upper back pain, probable stroke, recent fit/seizure or suicide attempt.&lt;/urn:content&gt;\n                                                    &lt;urn:br xmlns:urn=&quot;urn:hl7-org:v3&quot;/&gt;\n                                                    &lt;urn:content xmlns:urn=&quot;urn:hl7-org:v3&quot;&gt;The main reason for contact was not new confusion, declared diabetic hypo/hyperglycaemia, or ICD shock.&lt;/urn:content&gt;\n                                                    &lt;urn:br xmlns:urn=&quot;urn:hl7-org:v3&quot;/&gt;\n                                                    &lt;urn:content xmlns:urn=&quot;urn:hl7-org:v3&quot;&gt;The skin on the torso felt normal, warm or hot.&lt;/urn:content&gt;\n                                                    &lt;urn:br xmlns:urn=&quot;urn:hl7-org:v3&quot;/&gt;\n                                                    &lt;urn:content xmlns:urn=&quot;urn:hl7-org:v3&quot;&gt;The main problem was not a rash, itch, jaundice, skin lumps or abnormal bruising.&lt;/urn:content&gt;\n                                                    &lt;urn:br xmlns:urn=&quot;urn:hl7-org:v3&quot;/&gt;\n                                                    &lt;urn:content xmlns:urn=&quot;urn:hl7-org:v3&quot;&gt;The main problem was acne, spots or pimples.&lt;/urn:content&gt;\n                                                    &lt;urn:br xmlns:urn=&quot;urn:hl7-org:v3&quot;/&gt;\n                                                    &lt;urn:content xmlns:urn=&quot;urn:hl7-org:v3&quot;&gt;The worst problem with the acne was blackheads or white heads.&lt;/urn:content&gt;\n                                                    &lt;urn:br xmlns:urn=&quot;urn:hl7-org:v3&quot;/&gt;\n                                                    &lt;urn:content xmlns:urn=&quot;urn:hl7-org:v3&quot;&gt;The problem had not persisted for 3 months or got worse over that time.&lt;/urn:content&gt;\n                                                    &lt;urn:br xmlns:urn=&quot;urn:hl7-org:v3&quot;/&gt;\n                                                &lt;/xml-fragment&gt;</div>"
          }
        }, {
          "title": "Advice Given",
          "text": {
            "status": "generated",
            "div": "<div xmlns=\"http://www.w3.org/1999/xhtml\">&lt;xml-fragment mediaType=&quot;text/x-hl7-text+xml&quot; xmlns:xsd=&quot;http://www.w3.org/2001/XMLSchema&quot; xmlns:xsi=&quot;http://www.w3.org/2001/XMLSchema-instance&quot;&gt;\n                                                    &lt;urn:content xmlns:urn=&quot;urn:hl7-org:v3&quot;&gt;Speak to a pharmacist for advice on suitable treatment.&lt;/urn:content&gt;\n                                                    &lt;urn:br xmlns:urn=&quot;urn:hl7-org:v3&quot;/&gt;\n                                                    &lt;urn:content xmlns:urn=&quot;urn:hl7-org:v3&quot;&gt;If there are any new symptoms, or if the condition gets worse, changes or you have any other concerns, call us back.&lt;/urn:content&gt;\n                                                    &lt;urn:br xmlns:urn=&quot;urn:hl7-org:v3&quot;/&gt;\n                                                &lt;/xml-fragment&gt;</div>"
          }
        }, {
          "title": "SCR Consent",
          "text": {
            "status": "generated",
            "div": "<div xmlns=\"http://www.w3.org/1999/xhtml\">&lt;xml-fragment mediaType=&quot;text/x-hl7-text+xml&quot; xmlns:xsd=&quot;http://www.w3.org/2001/XMLSchema&quot; xmlns:xsi=&quot;http://www.w3.org/2001/XMLSchema-instance&quot;&gt;\n                                                    &lt;urn:content xmlns:urn=&quot;urn:hl7-org:v3&quot;&gt;Consent given for SCR sharing&lt;urn:br/&gt;\n                                                        &lt;urn:br/&gt;\n                                                    &lt;/urn:content&gt;\n                                                &lt;/xml-fragment&gt;</div>"
          }
        } ]
      }, {
        "title": "ReferralRequest",
        "entry": [ {
          "reference": "urn:uuid:18a9b791-3436-475e-85b6-e3263eed68d2"
        } ]
      } ]
    }
  }, {
    "fullUrl": "urn:uuid:f1f4229f-8f7c-4a0e-902c-8e7868c73c10",
    "resource": {
      "resourceType": "Consent",
      "id": "f1f4229f-8f7c-4a0e-902c-8e7868c73c10",
      "identifier": {
        "use": "usual",
        "value": "895062D0-60A8-4EB4-9017-5F489D53694D"
      },
      "status": "active",
      "patient": {
        "reference": "urn:uuid:a439dcbb-af31-457a-a533-dd817ab3e6a9"
      },
      "period": {
        "start": "2021-05-13T17:24:56+00:00"
      },
      "consentingParty": [ {
        "reference": "urn:uuid:a439dcbb-af31-457a-a533-dd817ab3e6a9"
      } ],
      "action": [ {
        "coding": [ {
          "system": "http://snomed.info/sct",
          "code": "425691002",
          "display": "Consent given for electronic record sharing"
        } ],
        "text": "Consent given for electronic record sharing"
      } ],
      "organization": [ {
        "reference": "urn:uuid:9a7e5571-ab6d-4112-9d7f-a17ae9ed524c"
      } ],
      "policyRule": "http://hl7.org/fhir/ConsentPolicy/opt-out",
      "data": [ {
        "meaning": "related",
        "reference": {
          "reference": "urn:uuid:73afc4c5-724c-49bd-b64e-d4ad7e86ca8e"
        }
      } ]
    }
  }, {
    "fullUrl": "urn:uuid:512eabb2-3a80-42a7-98f5-5c1cdf9a029b",
    "resource": {
      "resourceType": "Condition",
      "id": "512eabb2-3a80-42a7-98f5-5c1cdf9a029b",
      "clinicalStatus": "active",
      "verificationStatus": "unknown",
      "subject": {
        "reference": "urn:uuid:a439dcbb-af31-457a-a533-dd817ab3e6a9"
      },
      "context": {
        "reference": "urn:uuid:73afc4c5-724c-49bd-b64e-d4ad7e86ca8e"
      }
    }
  }, {
    "fullUrl": "urn:uuid:ac82fa7b-a7f5-49f4-8592-dd2c3233f095",
    "resource": {
      "resourceType": "Observation",
      "id": "ac82fa7b-a7f5-49f4-8592-dd2c3233f095",
      "status": "final",
      "code": {
        "coding": [ {
          "system": "http://snomed.info/sct",
          "code": "33962009",
          "display": "Presenting complaint"
        } ]
      },
      "subject": {
        "reference": "urn:uuid:a439dcbb-af31-457a-a533-dd817ab3e6a9"
      },
      "context": {
        "reference": "urn:uuid:73afc4c5-724c-49bd-b64e-d4ad7e86ca8e"
      },
      "valueString": "<CLEO Ref: 2100310450> Test Call "
    }
  }, {
    "fullUrl": "urn:uuid:1ff7686c-9776-4ad2-b65f-7c1920c6aaa5",
    "resource": {
      "resourceType": "PractitionerRole",
      "id": "1ff7686c-9776-4ad2-b65f-7c1920c6aaa5",
      "practitioner": {
        "reference": "urn:uuid:47ca1543-9511-4dbb-9ced-6524a1165799"
      },
      "organization": {
        "reference": "urn:uuid:032873b9-e0ba-47a5-9559-383b4e056abe"
      },
      "code": [ {
        "coding": [ {
          "system": "2.16.840.1.113883.2.1.3.2.4.17.196",
          "code": "NR1690",
          "display": "Call Operator"
        } ]
      } ]
    }
  }, {
    "fullUrl": "urn:uuid:032873b9-e0ba-47a5-9559-383b4e056abe",
    "resource": {
      "resourceType": "Organization",
      "id": "032873b9-e0ba-47a5-9559-383b4e056abe",
      "identifier": [ {
        "value": "NTN08"
      } ],
      "name": "Norfolk and Wisbech 111"
    }
  }, {
    "fullUrl": "urn:uuid:990dbff2-897e-4803-aed3-ae860798d7f2",
    "resource": {
      "resourceType": "RelatedPerson",
      "id": "990dbff2-897e-4803-aed3-ae860798d7f2",
      "patient": {
        "reference": "urn:uuid:a439dcbb-af31-457a-a533-dd817ab3e6a9"
      },
      "relationship": {
        "coding": [ {
          "system": "http://hl7.org/fhir/v2/0131",
          "code": "C",
          "display": "Emergency Contact"
        } ]
      },
      "telecom": [ {
        "system": "phone",
        "value": "tel:01233123123"
      } ]
    }
  }, {
    "fullUrl": "urn:uuid:646690a9-abf5-4a46-a1f9-d2ee8c276fc6",
    "resource": {
      "resourceType": "Device",
      "id": "646690a9-abf5-4a46-a1f9-d2ee8c276fc6",
      "model": "111 Adaptor",
      "version": "0.9.0"
    }
  }, {
    "fullUrl": "urn:uuid:40ef4fd6-5d8f-4aa7-bda2-05b27320d4ee",
    "resource": {
      "resourceType": "List",
      "id": "40ef4fd6-5d8f-4aa7-bda2-05b27320d4ee",
      "status": "current",
      "mode": "working",
      "title": "111 Report List",
      "code": {
        "coding": [ {
          "system": "http://snomed.info/sct",
          "code": "225390008",
          "display": "Triage"
        } ]
      },
      "subject": {
        "reference": "urn:uuid:a439dcbb-af31-457a-a533-dd817ab3e6a9"
      },
      "encounter": {
        "reference": "urn:uuid:73afc4c5-724c-49bd-b64e-d4ad7e86ca8e"
      },
      "date": "2021-09-15T09:16:07+00:00",
      "source": {
        "reference": "urn:uuid:646690a9-abf5-4a46-a1f9-d2ee8c276fc6"
      },
      "orderedBy": {
        "coding": [ {
          "system": "http://hl7.org/fhir/list-order",
          "code": "event-date",
          "display": "Sorted by Event Date"
        } ]
      },
      "entry": [ {
        "item": {
          "reference": "urn:uuid:6f6b4ce0-c8f7-46ad-8b1c-4f36214f6516"
        }
      }, {
        "item": {
          "reference": "urn:uuid:990dbff2-897e-4803-aed3-ae860798d7f2"
        }
      }, {
        "item": {
          "reference": "urn:uuid:9a980abe-93f7-483f-bf90-13ae19bda84b"
        }
      }, {
        "item": {
          "reference": "urn:uuid:8960b955-9e1a-4386-bc20-08926c926513"
        }
      }, {
        "item": {
          "reference": "urn:uuid:032873b9-e0ba-47a5-9559-383b4e056abe"
        }
      }, {
        "item": {
          "reference": "urn:uuid:ac82fa7b-a7f5-49f4-8592-dd2c3233f095"
        }
      }, {
        "item": {
          "reference": "urn:uuid:b81ef1ae-b7de-4fe3-be9b-1471d162118d"
        }
      }, {
        "item": {
          "reference": "urn:uuid:9a7e5571-ab6d-4112-9d7f-a17ae9ed524c"
        }
      }, {
        "item": {
          "reference": "urn:uuid:512eabb2-3a80-42a7-98f5-5c1cdf9a029b"
        }
      }, {
        "item": {
          "reference": "urn:uuid:47ca1543-9511-4dbb-9ced-6524a1165799"
        }
      }, {
        "item": {
          "reference": "urn:uuid:56ab0586-12c8-406b-97eb-cd2d84f1c46d"
        }
      }, {
        "item": {
          "reference": "urn:uuid:18a9b791-3436-475e-85b6-e3263eed68d2"
        }
      } ]
    }
  } ]
}