{
  "resourceType": "Bundle",
  "identifier": {
    "type": {
      "text": "ClinicalDocument VersionNumber"
    },
    "value": "1"
  },
  "type": "message",
  "entry": [ {
    "fullUrl": "urn:uuid:F7916D36-4D5F-4A64-BD08-644E8A234AE2",
    "resource": {
      "resourceType": "MessageHeader",
      "id": "F7916D36-4D5F-4A64-BD08-644E8A234AE2",
      "event": {
        "system": "https://fhir.nhs.uk/STU3/CodeSystem/EventType-1",
        "code": "referral-1",
        "display": "Referral"
      },
      "destination": [ {
        "endpoint": "urn:nhs-uk:addressing:ods:NVE06:DOSServiceID:1335970392"
      } ],
      "timestamp": "2021-05-13T17:24:56.000+00:00",
      "source": {
        "name": "NHS 111 Adaptor",
        "endpoint": "http://localhost:8080/report"
      },
      "reason": {
        "coding": [ {
          "system": "urn:nhs-itk:ns:201005:interaction",
          "code": "urn:nhs-itk:interaction:primaryOutofHourRecipientNHS111CDADocument-v2-0"
        } ]
      }
    },
    "response": {
      "status": "success",
      "lastModified": "2022-05-05T12:27:59.394+00:00"
    }
  }, {
    "fullUrl": "urn:uuid:61945cd0-d29e-4684-af6f-8c7761480a03",
    "resource": {
      "resourceType": "Encounter",
      "id": "61945cd0-d29e-4684-af6f-8c7761480a03",
      "identifier": [ {
        "system": "2.16.840.1.113883.2.1.3.2.4.18.34",
        "value": "2DBAE50F-F88C-4572-9866-F94FE0F1F25A"
      }, {
        "system": "2.16.840.1.113883.2.1.3.2.4.18.35",
        "value": "2100310450"
      } ],
      "status": "finished",
      "type": [ {
        "text": "111 Encounter Referral"
      } ],
      "subject": {
        "reference": "urn:uuid:9f7fcbf1-4c78-4cbe-b855-db02e864c911"
      },
      "participant": [ {
        "type": [ {
          "coding": [ {
            "system": "http://hl7.org/fhir/ValueSet/encounter-participant-type",
            "code": "PPRF",
            "display": "Author"
          } ]
        } ],
        "individual": {
          "reference": "urn:uuid:3f8207e6-5ad9-48f3-b808-8cda125644c6"
        }
      }, {
        "type": [ {
          "text": "Informant"
        } ],
        "individual": {
          "reference": "urn:uuid:4e245bf2-8e6b-4e62-af56-a539ef0073f4"
        }
      } ],
      "period": {
        "start": "2021-05-13T16:47:24+00:00",
        "end": "2021-05-13T17:24:56+00:00"
      },
      "location": [ {
        "location": {
          "reference": "urn:uuid:211cb544-e9ab-462d-a07b-716c674c9b1f"
        },
        "status": "active"
      }, {
        "location": {
          "reference": "urn:uuid:554724fe-dfbe-4ed3-b395-a21df3ba2220"
        },
        "status": "completed"
      } ],
      "serviceProvider": {
        "reference": "urn:uuid:f03c18d9-b7d3-4022-b672-c75090a973b4"
      }
    }
  }, {
    "fullUrl": "urn:uuid:f03c18d9-b7d3-4022-b672-c75090a973b4",
    "resource": {
      "resourceType": "Organization",
      "id": "f03c18d9-b7d3-4022-b672-c75090a973b4",
      "active": true,
      "type": [ {
        "text": "CST"
      } ],
      "name": "Norfolk and Wisbech 111"
    }
  }, {
    "fullUrl": "urn:uuid:3f8207e6-5ad9-48f3-b808-8cda125644c6",
    "resource": {
      "resourceType": "Practitioner",
      "id": "3f8207e6-5ad9-48f3-b808-8cda125644c6",
      "active": true,
      "name": [ {
        "text": "Ben Smythson"
      } ]
    }
  }, {
    "fullUrl": "urn:uuid:4e245bf2-8e6b-4e62-af56-a539ef0073f4",
    "resource": {
      "resourceType": "RelatedPerson",
      "id": "4e245bf2-8e6b-4e62-af56-a539ef0073f4",
      "active": true,
      "patient": {
        "reference": "urn:uuid:9f7fcbf1-4c78-4cbe-b855-db02e864c911"
      },
      "relationship": {
        "coding": [ {
          "system": "2.16.840.1.113883.2.1.3.2.4.16.45",
          "code": "21",
          "display": "Self"
        }, {
          "system": "http://hl7.org/fhir/v2/0131",
          "code": "C",
          "display": "Emergency Contact"
        } ]
      },
      "name": [ {
        "text": "Test Call Dx10 TEST CALL DX10"
      } ],
      "telecom": [ {
        "system": "phone",
        "value": "tel:01233123123"
      } ],
      "gender": "unknown"
    }
  }, {
    "fullUrl": "urn:uuid:211cb544-e9ab-462d-a07b-716c674c9b1f",
    "resource": {
      "resourceType": "Location",
      "id": "211cb544-e9ab-462d-a07b-716c674c9b1f",
      "managingOrganization": {
        "reference": "urn:uuid:86236087-a856-43fd-8095-eee8252a904c"
      }
    }
  }, {
    "fullUrl": "urn:uuid:86236087-a856-43fd-8095-eee8252a904c",
    "resource": {
      "resourceType": "Organization",
      "id": "86236087-a856-43fd-8095-eee8252a904c",
      "identifier": [ {
        "value": "Z10000"
      } ],
      "type": [ {
        "text": "GP Practice"
      } ],
      "name": "UNKNOWN"
    }
  }, {
    "fullUrl": "urn:uuid:554724fe-dfbe-4ed3-b395-a21df3ba2220",
    "resource": {
      "resourceType": "Location",
      "id": "554724fe-dfbe-4ed3-b395-a21df3ba2220",
      "address": {
        "type": "physical",
        "line": [ "313 VICTORIA ROAD", "LOWESTOFT" ],
        "postalCode": "NR33 9LS"
      }
    }
  }, {
    "fullUrl": "urn:uuid:9f7fcbf1-4c78-4cbe-b855-db02e864c911",
    "resource": {
      "resourceType": "Patient",
      "id": "9f7fcbf1-4c78-4cbe-b855-db02e864c911",
      "language": "en",
      "active": true,
      "name": [ {
        "use": "official",
        "family": "TEST CALL DX10",
        "given": [ "Test Call Dx10" ]
      } ],
      "telecom": [ {
        "system": "phone",
        "value": "tel:01233123123"
      } ],
      "gender": "male",
      "birthDate": "1996-03-25",
      "address": [ {
        "use": "home",
        "line": [ "313 VICTORIA ROAD", "LOWESTOFT" ],
        "postalCode": "NR33 9LS"
      }, {
        "type": "physical",
        "line": [ "313 VICTORIA ROAD", "LOWESTOFT" ],
        "postalCode": "NR33 9LS"
      } ],
      "generalPractitioner": [ {
        "reference": "urn:uuid:17bd085b-5ed5-4c90-872b-444e87f50e95"
      } ]
    }
  }, {
    "fullUrl": "urn:uuid:17bd085b-5ed5-4c90-872b-444e87f50e95",
    "resource": {
      "resourceType": "Organization",
      "id": "17bd085b-5ed5-4c90-872b-444e87f50e95",
      "identifier": [ {
        "value": "Z10000"
      } ],
      "type": [ {
        "text": "GP Practice"
      } ],
      "name": "UNKNOWN"
    }
  }, {
    "fullUrl": "urn:uuid:835a4aa4-27fc-4d13-ae6c-cc30bd4e7d2a",
    "resource": {
      "resourceType": "HealthcareService",
      "id": "835a4aa4-27fc-4d13-ae6c-cc30bd4e7d2a",
      "active": true,
      "providedBy": {
        "reference": "urn:uuid:da99204d-35a3-451f-af3d-555f19812841"
      },
      "location": [ {
        "reference": "urn:uuid:3543cae3-a992-44f3-9a45-6286c390b40e"
      } ],
      "name": "Out of Hours GP Service (Waveney) - Kirkley Mill Health Centre, Lowestoft"
    }
  }, {
    "fullUrl": "urn:uuid:3543cae3-a992-44f3-9a45-6286c390b40e",
    "resource": {
      "resourceType": "Location",
      "id": "3543cae3-a992-44f3-9a45-6286c390b40e",
      "managingOrganization": {
        "reference": "urn:uuid:da99204d-35a3-451f-af3d-555f19812841"
      }
    }
  }, {
    "fullUrl": "urn:uuid:da99204d-35a3-451f-af3d-555f19812841",
    "resource": {
      "resourceType": "Organization",
      "id": "da99204d-35a3-451f-af3d-555f19812841",
      "identifier": [ {
        "value": "NVE06"
      } ],
      "type": [ {
        "coding": [ {
          "code": "PRCP",
          "display": "Out of Hours GP Service (Waveney) - Kirkley Mill Health Centre, Lowestoft"
        } ]
      } ],
      "name": "Out of Hours GP Service (Waveney) - Kirkley Mill Health Centre, Lowestoft"
    }
  }, {
    "fullUrl": "urn:uuid:ed4a1ba9-c2f6-4a35-95ea-a6102623313e",
    "resource": {
      "resourceType": "ReferralRequest",
      "id": "ed4a1ba9-c2f6-4a35-95ea-a6102623313e",
      "status": "active",
      "intent": "plan",
      "priority": "routine",
      "subject": {
        "reference": "urn:uuid:9f7fcbf1-4c78-4cbe-b855-db02e864c911"
      },
      "context": {
        "reference": "urn:uuid:61945cd0-d29e-4684-af6f-8c7761480a03"
      },
      "occurrencePeriod": {
        "start": "2021-05-13T17:24:56+00:00"
      },
      "authoredOn": "2021-05-13T17:24:56+00:00",
      "requester": {
        "agent": {
          "reference": "urn:uuid:b8e26773-974c-4553-b5a6-8ef889def963"
        },
        "onBehalfOf": {
          "reference": "urn:uuid:f03c18d9-b7d3-4022-b672-c75090a973b4"
        }
      },
      "recipient": [ {
        "reference": "urn:uuid:131154ef-ea63-4164-a2db-b8cbf6c48449"
      }, {
        "reference": "urn:uuid:835a4aa4-27fc-4d13-ae6c-cc30bd4e7d2a"
      } ],
      "reasonReference": [ {
        "reference": "urn:uuid:7ab5cf71-be26-4d71-8c44-9abb63892d64"
      } ],
      "supportingInfo": [ {
        "reference": "urn:uuid:895835b3-3954-4b69-831d-3936a273b35a"
      } ]
    }
  }, {
    "fullUrl": "urn:uuid:895835b3-3954-4b69-831d-3936a273b35a",
    "resource": {
      "resourceType": "ProcedureRequest",
      "id": "895835b3-3954-4b69-831d-3936a273b35a",
      "status": "active",
      "intent": "plan",
      "priority": "routine",
      "doNotPerform": false,
      "code": {
        "coding": [ {
          "system": "2.16.840.1.113883.2.1.3.2.4.17.325",
          "code": "Dx10",
          "display": "MUST contact a local service for a Non-Urgent Appointment"
        } ]
      },
      "subject": {
        "reference": "urn:uuid:9f7fcbf1-4c78-4cbe-b855-db02e864c911"
      },
      "occurrencePeriod": {
        "start": "2021-05-13T17:24:56+00:00"
      },
      "reasonReference": [ {
        "reference": "urn:uuid:7ab5cf71-be26-4d71-8c44-9abb63892d64"
      } ]
    }
  }, {
    "fullUrl": "urn:uuid:131154ef-ea63-4164-a2db-b8cbf6c48449",
    "resource": {
      "resourceType": "Practitioner",
      "id": "131154ef-ea63-4164-a2db-b8cbf6c48449",
      "active": true,
      "telecom": [ {
        "system": "phone",
        "value": "tel:01233505450"
      } ],
      "address": [ {
        "type": "physical",
        "line": [ "Kingston House", "The Long Barrow", "Orbital Park", "Ashford", "Kent" ],
        "postalCode": "TN24 0GP"
      } ]
    }
  }, {
    "fullUrl": "urn:uuid:b636d64d-28ac-4129-8d86-52bbeadc96ef",
    "resource": {
      "resourceType": "Composition",
      "id": "b636d64d-28ac-4129-8d86-52bbeadc96ef",
      "identifier": {
        "use": "usual",
        "value": "895062D0-60A8-4EB4-9017-5F489D53694D"
      },
      "status": "final",
      "type": {
        "coding": [ {
          "system": "http://snomed.info/sct",
          "code": "371531000",
          "display": "Report of clinical encounter (record artifact)"
        } ]
      },
      "subject": {
        "reference": "urn:uuid:9f7fcbf1-4c78-4cbe-b855-db02e864c911"
      },
      "encounter": {
        "reference": "urn:uuid:61945cd0-d29e-4684-af6f-8c7761480a03"
      },
      "date": "2021-05-13T17:24:56+00:00",
      "author": [ {
        "reference": "urn:uuid:3f8207e6-5ad9-48f3-b808-8cda125644c6"
      } ],
      "title": "111 Report",
      "confidentiality": "R",
      "section": [ {
        "section": [ {
          "title": "Patient's Reported Condition",
          "text": {
            "status": "generated",
            "div": "<div xmlns=\"http://www.w3.org/1999/xhtml\">&lt;content&gt;&amp;lt;CLEO Ref: 2100310450&amp;gt; Test Call &lt;br/&gt;\n                                                    &lt;/content&gt;</div>"
          }
        }, {
          "title": "Pathways Disposition",
          "text": {
            "status": "generated",
            "div": "<div xmlns=\"http://www.w3.org/1999/xhtml\">&lt;content&gt;If a pharmacy service is not available contact the GP practice during normal working hours. (Dx10)&lt;/content&gt;\n                                                    &lt;br/&gt;\n                                                    &lt;br/&gt;\n                                                    &lt;content&gt;Selected Service: 1335970392, Out of Hours GP Service (Waveney) - Kirkley Mill Health Centre, Lowestoft, 111&lt;/content&gt;\n                                                    &lt;br/&gt;</div>"
          }
        }, {
          "title": "Consultation Summary",
          "text": {
            "status": "generated",
            "div": "<div xmlns=\"http://www.w3.org/1999/xhtml\">&lt;content&gt;\n                                                        &lt;content&gt;Worst acne feature, blackheads or whiteheads&lt;/content&gt;\n                                                        &lt;br/&gt;\n                                                        &lt;content&gt;Acne&lt;/content&gt;\n                                                        &lt;br/&gt;\n                                                        &lt;content&gt;Warm to touch&lt;/content&gt;\n                                                        &lt;br/&gt;\n                                                        &lt;content&gt;Illness - test&lt;/content&gt;\n                                                        &lt;br/&gt;\n                                                    &lt;/content&gt;</div>"
          }
        }, {
          "title": "Pathways Assessment",
          "text": {
            "status": "generated",
            "div": "<div xmlns=\"http://www.w3.org/1999/xhtml\">&lt;content&gt;An injury or health problem was the reason for the contact.&lt;/content&gt;\n                                                    &lt;br/&gt;\n                                                    &lt;content&gt;Heavy bleeding had not occurred in the previous 2 hours.&lt;/content&gt;\n                                                    &lt;br/&gt;\n                                                    &lt;content&gt;An illness or health problem was the main problem. - test&lt;/content&gt;\n                                                    &lt;br/&gt;\n                                                    &lt;content&gt;The individual was not fighting for breath.&lt;/content&gt;\n                                                    &lt;br/&gt;\n                                                    &lt;content&gt;The main reason for the assessment was not an allergic reaction, heart attack, chest/upper back pain, probable stroke, recent fit/seizure or suicide attempt.&lt;/content&gt;\n                                                    &lt;br/&gt;\n                                                    &lt;content&gt;The main reason for contact was not new confusion, declared diabetic hypo/hyperglycaemia, or ICD shock.&lt;/content&gt;\n                                                    &lt;br/&gt;\n                                                    &lt;content&gt;The skin on the torso felt normal, warm or hot.&lt;/content&gt;\n                                                    &lt;br/&gt;\n                                                    &lt;content&gt;The main problem was not a rash, itch, jaundice, skin lumps or abnormal bruising.&lt;/content&gt;\n                                                    &lt;br/&gt;\n                                                    &lt;content&gt;The main problem was acne, spots or pimples.&lt;/content&gt;\n                                                    &lt;br/&gt;\n                                                    &lt;content&gt;The worst problem with the acne was blackheads or white heads.&lt;/content&gt;\n                                                    &lt;br/&gt;\n                                                    &lt;content&gt;The problem had not persisted for 3 months or got worse over that time.&lt;/content&gt;\n                                                    &lt;br/&gt;</div>"
          }
        }, {
          "title": "Advice Given",
          "text": {
            "status": "generated",
            "div": "<div xmlns=\"http://www.w3.org/1999/xhtml\">&lt;content&gt;Speak to a pharmacist for advice on suitable treatment.&lt;/content&gt;\n                                                    &lt;br/&gt;\n                                                    &lt;content&gt;If there are any new symptoms, or if the condition gets worse, changes or you have any other concerns, call us back.&lt;/content&gt;\n                                                    &lt;br/&gt;</div>"
          }
        }, {
          "title": "SCR Consent",
          "text": {
            "status": "generated",
            "div": "<div xmlns=\"http://www.w3.org/1999/xhtml\">&lt;content&gt;Consent given for SCR sharing&lt;br/&gt;\n                                                        &lt;br/&gt;\n                                                    &lt;/content&gt;</div>"
          }
        } ]
      }, {
        "title": "ReferralRequest",
        "entry": [ {
          "reference": "urn:uuid:ed4a1ba9-c2f6-4a35-95ea-a6102623313e"
        } ]
      } ]
    }
  }, {
    "fullUrl": "urn:uuid:6056ef02-d904-4a77-aba2-f9fec01e2057",
    "resource": {
      "resourceType": "Consent",
      "id": "6056ef02-d904-4a77-aba2-f9fec01e2057",
      "identifier": {
        "use": "usual",
        "value": "895062D0-60A8-4EB4-9017-5F489D53694D"
      },
      "status": "active",
      "patient": {
        "reference": "urn:uuid:9f7fcbf1-4c78-4cbe-b855-db02e864c911"
      },
      "period": {
        "start": "2021-05-13T16:47:24+00:00",
        "end": "2021-05-13T17:24:56+00:00"
      },
      "consentingParty": [ {
        "reference": "urn:uuid:9f7fcbf1-4c78-4cbe-b855-db02e864c911"
      } ],
      "action": [ {
        "coding": [ {
          "system": "http://snomed.info/sct",
          "code": "425691002",
          "display": "Consent given for electronic record sharing"
        } ],
        "text": "Consent given for electronic record sharing"
      } ],
      "organization": [ {
        "reference": "urn:uuid:f03c18d9-b7d3-4022-b672-c75090a973b4"
      } ],
      "policyRule": "http://hl7.org/fhir/ConsentPolicy/opt-out",
      "data": [ {
        "meaning": "related",
        "reference": {
          "reference": "urn:uuid:61945cd0-d29e-4684-af6f-8c7761480a03"
        }
      } ]
    }
  }, {
    "fullUrl": "urn:uuid:7ab5cf71-be26-4d71-8c44-9abb63892d64",
    "resource": {
      "resourceType": "Condition",
      "id": "7ab5cf71-be26-4d71-8c44-9abb63892d64",
      "clinicalStatus": "active",
      "verificationStatus": "unknown",
      "subject": {
        "reference": "urn:uuid:9f7fcbf1-4c78-4cbe-b855-db02e864c911"
      },
      "context": {
        "reference": "urn:uuid:61945cd0-d29e-4684-af6f-8c7761480a03"
      }
    }
  }, {
    "fullUrl": "urn:uuid:b9c48f6f-81c1-4dfd-90bc-bfb8a94415fb",
    "resource": {
      "resourceType": "Observation",
      "id": "b9c48f6f-81c1-4dfd-90bc-bfb8a94415fb",
      "status": "final",
      "code": {
        "coding": [ {
          "system": "http://snomed.info/sct",
          "code": "33962009",
          "display": "Presenting complaint"
        } ]
      },
      "subject": {
        "reference": "urn:uuid:9f7fcbf1-4c78-4cbe-b855-db02e864c911"
      },
      "context": {
        "reference": "urn:uuid:61945cd0-d29e-4684-af6f-8c7761480a03"
      },
      "valueString": "<CLEO Ref: 2100310450> Test Call "
    }
  }, {
    "fullUrl": "urn:uuid:7d89a8ea-734c-45e5-a75e-90c335de05f3",
    "resource": {
      "resourceType": "PractitionerRole",
      "id": "7d89a8ea-734c-45e5-a75e-90c335de05f3",
      "practitioner": {
        "reference": "urn:uuid:3f8207e6-5ad9-48f3-b808-8cda125644c6"
      },
      "organization": {
        "reference": "urn:uuid:d40b0401-a353-42ba-97e2-d656355ce731"
      },
      "code": [ {
        "coding": [ {
          "system": "2.16.840.1.113883.2.1.3.2.4.17.196",
          "code": "NR1690",
          "display": "Call Operator"
        } ]
      } ]
    }
  }, {
    "fullUrl": "urn:uuid:d40b0401-a353-42ba-97e2-d656355ce731",
    "resource": {
      "resourceType": "Organization",
      "id": "d40b0401-a353-42ba-97e2-d656355ce731",
      "identifier": [ {
        "value": "NTN08"
      } ],
      "name": "Norfolk and Wisbech 111"
    }
  }, {
    "fullUrl": "urn:uuid:5eaa13e0-d3a7-4c6a-8112-bcb6db69b7d8",
    "resource": {
      "resourceType": "RelatedPerson",
      "id": "5eaa13e0-d3a7-4c6a-8112-bcb6db69b7d8",
      "patient": {
        "reference": "urn:uuid:9f7fcbf1-4c78-4cbe-b855-db02e864c911"
      },
      "relationship": {
        "coding": [ {
          "system": "http://hl7.org/fhir/v2/0131",
          "code": "C",
          "display": "Emergency Contact"
        } ]
      },
      "telecom": [ {
        "system": "phone",
        "value": "tel:01233123123"
      } ]
    }
  }, {
    "fullUrl": "urn:uuid:b8e26773-974c-4553-b5a6-8ef889def963",
    "resource": {
      "resourceType": "Device",
      "id": "b8e26773-974c-4553-b5a6-8ef889def963",
      "model": "111 Adaptor",
      "version": "1.0.1"
    }
  }, {
    "fullUrl": "urn:uuid:200ebae8-24ee-4c10-85d1-55e9d4116e8d",
    "resource": {
      "resourceType": "List",
      "id": "200ebae8-24ee-4c10-85d1-55e9d4116e8d",
      "status": "current",
      "mode": "working",
      "title": "111 Report List",
      "code": {
        "coding": [ {
          "system": "http://snomed.info/sct",
          "code": "225390008",
          "display": "Triage"
        } ]
      },
      "subject": {
        "reference": "urn:uuid:9f7fcbf1-4c78-4cbe-b855-db02e864c911"
      },
      "encounter": {
        "reference": "urn:uuid:61945cd0-d29e-4684-af6f-8c7761480a03"
      },
      "date": "2021-05-13T17:24:56+00:00",
      "source": {
        "reference": "urn:uuid:b8e26773-974c-4553-b5a6-8ef889def963"
      },
      "orderedBy": {
        "coding": [ {
          "system": "http://hl7.org/fhir/list-order",
          "code": "event-date",
          "display": "Sorted by Event Date"
        } ]
      },
      "entry": [ {
        "item": {
          "reference": "urn:uuid:86236087-a856-43fd-8095-eee8252a904c"
        }
      }, {
        "item": {
          "reference": "urn:uuid:da99204d-35a3-451f-af3d-555f19812841"
        }
      }, {
        "item": {
          "reference": "urn:uuid:b9c48f6f-81c1-4dfd-90bc-bfb8a94415fb"
        }
      }, {
        "item": {
          "reference": "urn:uuid:3f8207e6-5ad9-48f3-b808-8cda125644c6"
        }
      }, {
        "item": {
          "reference": "urn:uuid:131154ef-ea63-4164-a2db-b8cbf6c48449"
        }
      }, {
        "item": {
          "reference": "urn:uuid:7ab5cf71-be26-4d71-8c44-9abb63892d64"
        }
      }, {
        "item": {
          "reference": "urn:uuid:d40b0401-a353-42ba-97e2-d656355ce731"
        }
      }, {
        "item": {
          "reference": "urn:uuid:5eaa13e0-d3a7-4c6a-8112-bcb6db69b7d8"
        }
      }, {
        "item": {
          "reference": "urn:uuid:f03c18d9-b7d3-4022-b672-c75090a973b4"
        }
      }, {
        "item": {
          "reference": "urn:uuid:17bd085b-5ed5-4c90-872b-444e87f50e95"
        }
      }, {
        "item": {
          "reference": "urn:uuid:4e245bf2-8e6b-4e62-af56-a539ef0073f4"
        }
      }, {
        "item": {
          "reference": "urn:uuid:ed4a1ba9-c2f6-4a35-95ea-a6102623313e"
        }
      } ]
    }
  } ]
}