{
  "resourceType": "Bundle",
  "meta": {
    "lastUpdated": "2022-05-12T06:46:16.790+00:00"
  },
  "identifier": {
    "type": {
      "text": "ClinicalDocument VersionNumber"
    },
    "value": "1"
  },
  "type": "message",
  "entry": [ {
    "fullUrl": "urn:uuid:F7916D36-4D5F-4A64-BD08-644E8A234AE2",
    "resource": {
      "resourceType": "MessageHeader",
      "id": "F7916D36-4D5F-4A64-BD08-644E8A234AE2",
      "event": {
        "system": "https://fhir.nhs.uk/STU3/CodeSystem/EventType-1",
        "code": "referral-1",
        "display": "Referral"
      },
      "destination": [ {
        "endpoint": "urn:nhs-uk:addressing:ods:NVE06:DOSServiceID:1335970392"
      } ],
      "timestamp": "2021-05-13T17:24:56.000+00:00",
      "source": {
        "name": "NHS 111 Adaptor",
        "endpoint": "http://localhost:8080/report"
      },
      "reason": {
        "coding": [ {
          "system": "urn:nhs-itk:ns:201005:interaction",
          "code": "urn:nhs-itk:interaction:primaryOutofHourRecipientNHS111CDADocument-v2-0"
        } ]
      }
    }
  }, {
    "fullUrl": "urn:uuid:6ffb96a6-3bf4-49b0-82de-04f729754afa",
    "resource": {
      "resourceType": "Encounter",
      "id": "6ffb96a6-3bf4-49b0-82de-04f729754afa",
      "identifier": [ {
        "system": "2.16.840.1.113883.2.1.3.2.4.18.34",
        "value": "2DBAE50F-F88C-4572-9866-F94FE0F1F25A"
      }, {
        "system": "2.16.840.1.113883.2.1.3.2.4.18.35",
        "value": "2100310450"
      } ],
      "status": "finished",
      "type": [ {
        "text": "111 Encounter Referral"
      } ],
      "subject": {
        "reference": "urn:uuid:8e86ba4a-44f0-4cdd-9eb0-ef820f17711c"
      },
      "participant": [ {
        "type": [ {
          "coding": [ {
            "system": "http://hl7.org/fhir/ValueSet/encounter-participant-type",
            "code": "PPRF",
            "display": "Author"
          } ]
        } ],
        "individual": {
          "reference": "urn:uuid:c8c7e68a-9a5a-4fa0-96e2-90b79f648e7d"
        }
      }, {
        "type": [ {
          "text": "Informant"
        } ],
        "individual": {
          "reference": "urn:uuid:8c65493e-037f-47a8-b7ac-b6ca1e990217"
        }
      } ],
      "period": {
        "start": "2021-05-13T16:47:24+00:00",
        "end": "2021-05-13T17:24:56+00:00"
      },
      "location": [ {
        "location": {
          "reference": "urn:uuid:bcec9cd8-e532-4618-ae32-19bfaa9215d0"
        },
        "status": "active"
      }, {
        "location": {
          "reference": "urn:uuid:7c96afc6-d18c-4511-a5db-b54dce1f0f6c"
        },
        "status": "completed"
      } ],
      "serviceProvider": {
        "reference": "urn:uuid:b7be42b4-5d2c-4c25-8434-dcd885a7d0b8"
      }
    }
  }, {
    "fullUrl": "urn:uuid:b7be42b4-5d2c-4c25-8434-dcd885a7d0b8",
    "resource": {
      "resourceType": "Organization",
      "id": "b7be42b4-5d2c-4c25-8434-dcd885a7d0b8",
      "active": true,
      "type": [ {
        "text": "CST"
      } ],
      "name": "Norfolk and Wisbech 111"
    }
  }, {
    "fullUrl": "urn:uuid:c8c7e68a-9a5a-4fa0-96e2-90b79f648e7d",
    "resource": {
      "resourceType": "Practitioner",
      "id": "c8c7e68a-9a5a-4fa0-96e2-90b79f648e7d",
      "active": true,
      "name": [ {
        "text": "Ben Smythson"
      } ]
    }
  }, {
    "fullUrl": "urn:uuid:8c65493e-037f-47a8-b7ac-b6ca1e990217",
    "resource": {
      "resourceType": "RelatedPerson",
      "id": "8c65493e-037f-47a8-b7ac-b6ca1e990217",
      "active": true,
      "patient": {
        "reference": "urn:uuid:8e86ba4a-44f0-4cdd-9eb0-ef820f17711c"
      },
      "relationship": {
        "coding": [ {
          "system": "2.16.840.1.113883.2.1.3.2.4.16.45",
          "code": "21",
          "display": "Self"
        }, {
          "system": "http://hl7.org/fhir/v2/0131",
          "code": "C",
          "display": "Emergency Contact"
        } ]
      },
      "name": [ {
        "text": "Test Call Dx10 TEST CALL DX10"
      } ],
      "telecom": [ {
        "system": "phone",
        "value": "tel:01233123123"
      } ],
      "gender": "unknown"
    }
  }, {
    "fullUrl": "urn:uuid:bcec9cd8-e532-4618-ae32-19bfaa9215d0",
    "resource": {
      "resourceType": "Location",
      "id": "bcec9cd8-e532-4618-ae32-19bfaa9215d0",
      "managingOrganization": {
        "reference": "urn:uuid:e94ed2ab-c5c4-46fa-82c6-2f17065ebc78"
      }
    }
  }, {
    "fullUrl": "urn:uuid:e94ed2ab-c5c4-46fa-82c6-2f17065ebc78",
    "resource": {
      "resourceType": "Organization",
      "id": "e94ed2ab-c5c4-46fa-82c6-2f17065ebc78",
      "identifier": [ {
        "value": "Z10000"
      } ],
      "type": [ {
        "text": "GP Practice"
      } ],
      "name": "UNKNOWN"
    }
  }, {
    "fullUrl": "urn:uuid:7c96afc6-d18c-4511-a5db-b54dce1f0f6c",
    "resource": {
      "resourceType": "Location",
      "id": "7c96afc6-d18c-4511-a5db-b54dce1f0f6c",
      "address": {
        "type": "physical",
        "line": [ "313 VICTORIA ROAD", "LOWESTOFT" ],
        "postalCode": "NR33 9LS"
      }
    }
  }, {
    "fullUrl": "urn:uuid:8e86ba4a-44f0-4cdd-9eb0-ef820f17711c",
    "resource": {
      "resourceType": "Patient",
      "id": "8e86ba4a-44f0-4cdd-9eb0-ef820f17711c",
      "language": "en",
      "active": true,
      "name": [ {
        "use": "official",
        "family": "TEST CALL DX10",
        "given": [ "Test Call Dx10" ]
      } ],
      "telecom": [ {
        "system": "phone",
        "value": "tel:01233123123"
      } ],
      "gender": "male",
      "birthDate": "1996-03-25",
      "address": [ {
        "use": "home",
        "line": [ "313 VICTORIA ROAD", "LOWESTOFT" ],
        "postalCode": "NR33 9LS"
      }, {
        "type": "physical",
        "line": [ "313 VICTORIA ROAD", "LOWESTOFT" ],
        "postalCode": "NR33 9LS"
      } ],
      "generalPractitioner": [ {
        "reference": "urn:uuid:050c37b6-c38e-4b3d-8200-1069627e7c94"
      } ]
    }
  }, {
    "fullUrl": "urn:uuid:050c37b6-c38e-4b3d-8200-1069627e7c94",
    "resource": {
      "resourceType": "Organization",
      "id": "050c37b6-c38e-4b3d-8200-1069627e7c94",
      "identifier": [ {
        "value": "Z10000"
      } ],
      "type": [ {
        "text": "GP Practice"
      } ],
      "name": "UNKNOWN"
    }
  }, {
    "fullUrl": "urn:uuid:85246b88-2c24-42e9-a22d-7050d4f04a8a",
    "resource": {
      "resourceType": "HealthcareService",
      "id": "85246b88-2c24-42e9-a22d-7050d4f04a8a",
      "active": true,
      "providedBy": {
        "reference": "urn:uuid:0e2af67e-ff56-4764-aa19-feef82614a51"
      },
      "location": [ {
        "reference": "urn:uuid:bf275bf6-4414-4da9-b158-14905ff01a40"
      } ],
      "name": "Out of Hours GP Service (Waveney) - Kirkley Mill Health Centre, Lowestoft"
    }
  }, {
    "fullUrl": "urn:uuid:bf275bf6-4414-4da9-b158-14905ff01a40",
    "resource": {
      "resourceType": "Location",
      "id": "bf275bf6-4414-4da9-b158-14905ff01a40",
      "managingOrganization": {
        "reference": "urn:uuid:0e2af67e-ff56-4764-aa19-feef82614a51"
      }
    }
  }, {
    "fullUrl": "urn:uuid:0e2af67e-ff56-4764-aa19-feef82614a51",
    "resource": {
      "resourceType": "Organization",
      "id": "0e2af67e-ff56-4764-aa19-feef82614a51",
      "identifier": [ {
        "value": "NVE06"
      } ],
      "type": [ {
        "coding": [ {
          "code": "PRCP",
          "display": "Out of Hours GP Service (Waveney) - Kirkley Mill Health Centre, Lowestoft"
        } ]
      } ],
      "name": "Out of Hours GP Service (Waveney) - Kirkley Mill Health Centre, Lowestoft"
    }
  }, {
    "fullUrl": "urn:uuid:6fae4491-86f7-448a-8ec4-61b9a9322910",
    "resource": {
      "resourceType": "ReferralRequest",
      "id": "6fae4491-86f7-448a-8ec4-61b9a9322910",
      "status": "active",
      "intent": "plan",
      "priority": "routine",
      "subject": {
        "reference": "urn:uuid:8e86ba4a-44f0-4cdd-9eb0-ef820f17711c"
      },
      "context": {
        "reference": "urn:uuid:6ffb96a6-3bf4-49b0-82de-04f729754afa"
      },
      "occurrencePeriod": {
        "start": "2021-05-13T17:24:56+00:00"
      },
      "authoredOn": "2021-05-13T17:24:56+00:00",
      "requester": {
        "agent": {
          "reference": "urn:uuid:5a3168ba-01fc-48b9-ab5a-43e5c57df737"
        },
        "onBehalfOf": {
          "reference": "urn:uuid:b7be42b4-5d2c-4c25-8434-dcd885a7d0b8"
        }
      },
      "recipient": [ {
        "reference": "urn:uuid:6afc9e12-a6ed-4da6-8a91-ffe82ded3da1"
      }, {
        "reference": "urn:uuid:85246b88-2c24-42e9-a22d-7050d4f04a8a"
      } ],
      "reasonReference": [ {
        "reference": "urn:uuid:c7b93455-7093-423e-99e8-cd2c61590c82"
      } ],
      "supportingInfo": [ {
        "reference": "urn:uuid:8a7c20b1-d3aa-46ef-8bd4-982356f7af1a"
      } ]
    }
  }, {
    "fullUrl": "urn:uuid:8a7c20b1-d3aa-46ef-8bd4-982356f7af1a",
    "resource": {
      "resourceType": "ProcedureRequest",
      "id": "8a7c20b1-d3aa-46ef-8bd4-982356f7af1a",
      "status": "active",
      "intent": "plan",
      "priority": "routine",
      "doNotPerform": false,
      "code": {
        "coding": [ {
          "system": "2.16.840.1.113883.2.1.3.2.4.17.325",
          "code": "Dx10",
          "display": "MUST contact a local service for a Non-Urgent Appointment"
        } ]
      },
      "subject": {
        "reference": "urn:uuid:8e86ba4a-44f0-4cdd-9eb0-ef820f17711c"
      },
      "occurrencePeriod": {
        "start": "2021-05-13T17:24:56+00:00"
      },
      "reasonReference": [ {
        "reference": "urn:uuid:c7b93455-7093-423e-99e8-cd2c61590c82"
      } ]
    }
  }, {
    "fullUrl": "urn:uuid:6afc9e12-a6ed-4da6-8a91-ffe82ded3da1",
    "resource": {
      "resourceType": "Practitioner",
      "id": "6afc9e12-a6ed-4da6-8a91-ffe82ded3da1",
      "active": true,
      "telecom": [ {
        "system": "phone",
        "value": "tel:01233505450"
      } ],
      "address": [ {
        "type": "physical",
        "line": [ "Kingston House", "The Long Barrow", "Orbital Park", "Ashford", "Kent" ],
        "postalCode": "TN24 0GP"
      } ]
    }
  }, {
    "fullUrl": "urn:uuid:52914176-42c1-4424-bae8-b1a1d8c5dd1b",
    "resource": {
      "resourceType": "Composition",
      "id": "52914176-42c1-4424-bae8-b1a1d8c5dd1b",
      "identifier": {
        "use": "usual",
        "value": "895062D0-60A8-4EB4-9017-5F489D53694D"
      },
      "status": "final",
      "type": {
        "coding": [ {
          "system": "http://snomed.info/sct",
          "code": "371531000",
          "display": "Report of clinical encounter (record artifact)"
        } ]
      },
      "subject": {
        "reference": "urn:uuid:8e86ba4a-44f0-4cdd-9eb0-ef820f17711c"
      },
      "encounter": {
        "reference": "urn:uuid:6ffb96a6-3bf4-49b0-82de-04f729754afa"
      },
      "date": "2021-05-13T17:24:56+00:00",
      "author": [ {
        "reference": "urn:uuid:c8c7e68a-9a5a-4fa0-96e2-90b79f648e7d"
      } ],
      "title": "111 Report",
      "confidentiality": "R",
      "section": [ {
        "section": [ {
          "title": "Patient's Reported Condition",
          "text": {
            "status": "generated",
            "div": "<div xmlns=\"http://www.w3.org/1999/xhtml\">&lt;content&gt;&amp;lt;CLEO Ref: 2100310450&amp;gt; Test Call &lt;br/&gt;\n                                                    &lt;/content&gt;</div>"
          }
        }, {
          "title": "Pathways Disposition",
          "text": {
            "status": "generated",
            "div": "<div xmlns=\"http://www.w3.org/1999/xhtml\">&lt;content&gt;If a pharmacy service is not available contact the GP practice during normal working hours. (Dx10)&lt;/content&gt;\n                                                    &lt;br/&gt;\n                                                    &lt;br/&gt;\n                                                    &lt;content&gt;Selected Service: 1335970392, Out of Hours GP Service (Waveney) - Kirkley Mill Health Centre, Lowestoft, 111&lt;/content&gt;\n                                                    &lt;br/&gt;</div>"
          }
        }, {
          "title": "Consultation Summary",
          "text": {
            "status": "generated",
            "div": "<div xmlns=\"http://www.w3.org/1999/xhtml\">&lt;content&gt;\n                                                        &lt;content&gt;Worst acne feature, blackheads or whiteheads&lt;/content&gt;\n                                                        &lt;br/&gt;\n                                                        &lt;content&gt;Acne&lt;/content&gt;\n                                                        &lt;br/&gt;\n                                                        &lt;content&gt;Warm to touch&lt;/content&gt;\n                                                        &lt;br/&gt;\n                                                        &lt;content&gt;Illness - test&lt;/content&gt;\n                                                        &lt;br/&gt;\n                                                    &lt;/content&gt;</div>"
          }
        }, {
          "title": "Pathways Assessment",
          "text": {
            "status": "generated",
            "div": "<div xmlns=\"http://www.w3.org/1999/xhtml\">&lt;content&gt;An injury or health problem was the reason for the contact.&lt;/content&gt;\n                                                    &lt;br/&gt;\n                                                    &lt;content&gt;Heavy bleeding had not occurred in the previous 2 hours.&lt;/content&gt;\n                                                    &lt;br/&gt;\n                                                    &lt;content&gt;An illness or health problem was the main problem. - test&lt;/content&gt;\n                                                    &lt;br/&gt;\n                                                    &lt;content&gt;The individual was not fighting for breath.&lt;/content&gt;\n                                                    &lt;br/&gt;\n                                                    &lt;content&gt;The main reason for the assessment was not an allergic reaction, heart attack, chest/upper back pain, probable stroke, recent fit/seizure or suicide attempt.&lt;/content&gt;\n                                                    &lt;br/&gt;\n                                                    &lt;content&gt;The main reason for contact was not new confusion, declared diabetic hypo/hyperglycaemia, or ICD shock.&lt;/content&gt;\n                                                    &lt;br/&gt;\n                                                    &lt;content&gt;The skin on the torso felt normal, warm or hot.&lt;/content&gt;\n                                                    &lt;br/&gt;\n                                                    &lt;content&gt;The main problem was not a rash, itch, jaundice, skin lumps or abnormal bruising.&lt;/content&gt;\n                                                    &lt;br/&gt;\n                                                    &lt;content&gt;The main problem was acne, spots or pimples.&lt;/content&gt;\n                                                    &lt;br/&gt;\n                                                    &lt;content&gt;The worst problem with the acne was blackheads or white heads.&lt;/content&gt;\n                                                    &lt;br/&gt;\n                                                    &lt;content&gt;The problem had not persisted for 3 months or got worse over that time.&lt;/content&gt;\n                                                    &lt;br/&gt;</div>"
          }
        }, {
          "title": "Advice Given",
          "text": {
            "status": "generated",
            "div": "<div xmlns=\"http://www.w3.org/1999/xhtml\">&lt;content&gt;Speak to a pharmacist for advice on suitable treatment.&lt;/content&gt;\n                                                    &lt;br/&gt;\n                                                    &lt;content&gt;If there are any new symptoms, or if the condition gets worse, changes or you have any other concerns, call us back.&lt;/content&gt;\n                                                    &lt;br/&gt;</div>"
          }
        }, {
          "title": "SCR Consent",
          "text": {
            "status": "generated",
            "div": "<div xmlns=\"http://www.w3.org/1999/xhtml\">&lt;content&gt;Consent given for SCR sharing&lt;br/&gt;\n                                                        &lt;br/&gt;\n                                                    &lt;/content&gt;</div>"
          }
        } ]
      }, {
        "title": "ReferralRequest",
        "entry": [ {
          "reference": "urn:uuid:6fae4491-86f7-448a-8ec4-61b9a9322910"
        } ]
      } ]
    }
  }, {
    "fullUrl": "urn:uuid:3f3e5022-ba7a-400a-bcc6-04de9636c36a",
    "resource": {
      "resourceType": "Consent",
      "id": "3f3e5022-ba7a-400a-bcc6-04de9636c36a",
      "identifier": {
        "use": "usual",
        "value": "895062D0-60A8-4EB4-9017-5F489D53694D"
      },
      "status": "active",
      "patient": {
        "reference": "urn:uuid:8e86ba4a-44f0-4cdd-9eb0-ef820f17711c"
      },
      "period": {
        "start": "2021-05-13T16:47:24+00:00",
        "end": "2021-05-13T17:24:56+00:00"
      },
      "consentingParty": [ {
        "reference": "urn:uuid:8e86ba4a-44f0-4cdd-9eb0-ef820f17711c"
      } ],
      "action": [ {
        "coding": [ {
          "system": "http://snomed.info/sct",
          "code": "425691002",
          "display": "Consent given for electronic record sharing"
        } ],
        "text": "Consent given for electronic record sharing"
      } ],
      "organization": [ {
        "reference": "urn:uuid:b7be42b4-5d2c-4c25-8434-dcd885a7d0b8"
      } ],
      "policyRule": "http://hl7.org/fhir/ConsentPolicy/opt-out",
      "data": [ {
        "meaning": "related",
        "reference": {
          "reference": "urn:uuid:6ffb96a6-3bf4-49b0-82de-04f729754afa"
        }
      } ]
    }
  }, {
    "fullUrl": "urn:uuid:c7b93455-7093-423e-99e8-cd2c61590c82",
    "resource": {
      "resourceType": "Condition",
      "id": "c7b93455-7093-423e-99e8-cd2c61590c82",
      "clinicalStatus": "active",
      "verificationStatus": "unknown",
      "subject": {
        "reference": "urn:uuid:8e86ba4a-44f0-4cdd-9eb0-ef820f17711c"
      },
      "context": {
        "reference": "urn:uuid:6ffb96a6-3bf4-49b0-82de-04f729754afa"
      }
    }
  }, {
    "fullUrl": "urn:uuid:ebfd1ff7-7f39-4398-9636-a8e1c4b9ebd4",
    "resource": {
      "resourceType": "Observation",
      "id": "ebfd1ff7-7f39-4398-9636-a8e1c4b9ebd4",
      "status": "final",
      "code": {
        "coding": [ {
          "system": "http://snomed.info/sct",
          "code": "33962009",
          "display": "Presenting complaint"
        } ]
      },
      "subject": {
        "reference": "urn:uuid:8e86ba4a-44f0-4cdd-9eb0-ef820f17711c"
      },
      "context": {
        "reference": "urn:uuid:6ffb96a6-3bf4-49b0-82de-04f729754afa"
      },
      "valueString": "<CLEO Ref: 2100310450> Test Call "
    }
  }, {
    "fullUrl": "urn:uuid:e59d35a6-66b6-4f5a-9e07-7121bad29651",
    "resource": {
      "resourceType": "PractitionerRole",
      "id": "e59d35a6-66b6-4f5a-9e07-7121bad29651",
      "practitioner": {
        "reference": "urn:uuid:c8c7e68a-9a5a-4fa0-96e2-90b79f648e7d"
      },
      "organization": {
        "reference": "urn:uuid:db8d4a08-9602-41ad-91c3-b8a0199423d6"
      },
      "code": [ {
        "coding": [ {
          "system": "2.16.840.1.113883.2.1.3.2.4.17.196",
          "code": "NR1690",
          "display": "Call Operator"
        } ]
      } ]
    }
  }, {
    "fullUrl": "urn:uuid:db8d4a08-9602-41ad-91c3-b8a0199423d6",
    "resource": {
      "resourceType": "Organization",
      "id": "db8d4a08-9602-41ad-91c3-b8a0199423d6",
      "identifier": [ {
        "value": "NTN08"
      } ],
      "name": "Norfolk and Wisbech 111"
    }
  }, {
    "fullUrl": "urn:uuid:dc7009c7-1ae6-4473-9ee4-5bad4c9e8c3d",
    "resource": {
      "resourceType": "RelatedPerson",
      "id": "dc7009c7-1ae6-4473-9ee4-5bad4c9e8c3d",
      "patient": {
        "reference": "urn:uuid:8e86ba4a-44f0-4cdd-9eb0-ef820f17711c"
      },
      "relationship": {
        "coding": [ {
          "system": "http://hl7.org/fhir/v2/0131",
          "code": "C",
          "display": "Emergency Contact"
        } ]
      },
      "telecom": [ {
        "system": "phone",
        "value": "tel:01233123123"
      } ]
    }
  }, {
    "fullUrl": "urn:uuid:5a3168ba-01fc-48b9-ab5a-43e5c57df737",
    "resource": {
      "resourceType": "Device",
      "id": "5a3168ba-01fc-48b9-ab5a-43e5c57df737",
      "model": "111 Adaptor",
      "version": "1.0.1"
    }
  }, {
    "fullUrl": "urn:uuid:9de8dffe-b647-45c1-9fd5-b651523aac3d",
    "resource": {
      "resourceType": "List",
      "id": "9de8dffe-b647-45c1-9fd5-b651523aac3d",
      "status": "current",
      "mode": "working",
      "title": "111 Report List",
      "code": {
        "coding": [ {
          "system": "http://snomed.info/sct",
          "code": "225390008",
          "display": "Triage"
        } ]
      },
      "subject": {
        "reference": "urn:uuid:8e86ba4a-44f0-4cdd-9eb0-ef820f17711c"
      },
      "encounter": {
        "reference": "urn:uuid:6ffb96a6-3bf4-49b0-82de-04f729754afa"
      },
      "date": "2021-05-13T17:24:56+00:00",
      "source": {
        "reference": "urn:uuid:5a3168ba-01fc-48b9-ab5a-43e5c57df737"
      },
      "orderedBy": {
        "coding": [ {
          "system": "http://hl7.org/fhir/list-order",
          "code": "event-date",
          "display": "Sorted by Event Date"
        } ]
      },
      "entry": [ {
        "item": {
          "reference": "urn:uuid:b7be42b4-5d2c-4c25-8434-dcd885a7d0b8"
        }
      }, {
        "item": {
          "reference": "urn:uuid:c7b93455-7093-423e-99e8-cd2c61590c82"
        }
      }, {
        "item": {
          "reference": "urn:uuid:ebfd1ff7-7f39-4398-9636-a8e1c4b9ebd4"
        }
      }, {
        "item": {
          "reference": "urn:uuid:8c65493e-037f-47a8-b7ac-b6ca1e990217"
        }
      }, {
        "item": {
          "reference": "urn:uuid:c8c7e68a-9a5a-4fa0-96e2-90b79f648e7d"
        }
      }, {
        "item": {
          "reference": "urn:uuid:050c37b6-c38e-4b3d-8200-1069627e7c94"
        }
      }, {
        "item": {
          "reference": "urn:uuid:e94ed2ab-c5c4-46fa-82c6-2f17065ebc78"
        }
      }, {
        "item": {
          "reference": "urn:uuid:dc7009c7-1ae6-4473-9ee4-5bad4c9e8c3d"
        }
      }, {
        "item": {
          "reference": "urn:uuid:0e2af67e-ff56-4764-aa19-feef82614a51"
        }
      }, {
        "item": {
          "reference": "urn:uuid:6afc9e12-a6ed-4da6-8a91-ffe82ded3da1"
        }
      }, {
        "item": {
          "reference": "urn:uuid:db8d4a08-9602-41ad-91c3-b8a0199423d6"
        }
      }, {
        "item": {
          "reference": "urn:uuid:6fae4491-86f7-448a-8ec4-61b9a9322910"
        }
      } ]
    }
  } ]
}