{
  "resourceType": "Bundle",
  "identifier": {
    "type": {
      "text": "ClinicalDocument VersionNumber"
    },
    "value": "1"
  },
  "type": "message",
  "entry": [ {
    "fullUrl": "urn:uuid:F7916D36-4D5F-4A64-BD08-644E8A234AE2",
    "resource": {
      "resourceType": "MessageHeader",
      "id": "F7916D36-4D5F-4A64-BD08-644E8A234AE2",
      "event": {
        "system": "https://fhir.nhs.uk/STU3/CodeSystem/EventType-1",
        "code": "referral-1",
        "display": "Referral"
      },
      "destination": [ {
        "endpoint": "urn:nhs-uk:addressing:ods:NVE06:DOSServiceID:1335970392"
      } ],
      "timestamp": "2021-05-13T17:24:56.000+00:00",
      "source": {
        "name": "NHS 111 Adaptor",
        "endpoint": "http://localhost:8080/report"
      },
      "reason": {
        "coding": [ {
          "system": "urn:nhs-itk:ns:201005:interaction",
          "code": "urn:nhs-itk:interaction:primaryOutofHourRecipientNHS111CDADocument-v2-0"
        } ]
      }
    }
  }, {
    "fullUrl": "urn:uuid:83677293-8d82-4182-a2ff-480eb244e779",
    "resource": {
      "resourceType": "Encounter",
      "id": "83677293-8d82-4182-a2ff-480eb244e779",
      "identifier": [ {
        "system": "2.16.840.1.113883.2.1.3.2.4.18.34",
        "value": "2DBAE50F-F88C-4572-9866-F94FE0F1F25A"
      }, {
        "system": "2.16.840.1.113883.2.1.3.2.4.18.35",
        "value": "2100310450"
      } ],
      "status": "finished",
      "type": [ {
        "text": "111 Encounter Referral"
      } ],
      "subject": {
        "reference": "urn:uuid:2f9db83e-4aad-4904-bbc1-5fb9815b5f73"
      },
      "participant": [ {
        "type": [ {
          "coding": [ {
            "system": "http://hl7.org/fhir/ValueSet/encounter-participant-type",
            "code": "PPRF",
            "display": "Author"
          } ]
        } ],
        "individual": {
          "reference": "urn:uuid:6ff7107c-8b6c-48ed-9f23-5a81568053d0"
        }
      }, {
        "type": [ {
          "text": "Informant"
        } ],
        "individual": {
          "reference": "urn:uuid:47277825-caf6-42b6-b049-014b524511de"
        }
      } ],
      "period": {
        "start": "2021-05-13T17:24:56+00:00"
      },
      "location": [ {
        "location": {
          "reference": "urn:uuid:dff47e95-0ba1-4f3b-9390-460ba3b4bd7f"
        },
        "status": "active"
      }, {
        "location": {
          "reference": "urn:uuid:e459e047-c563-42c8-a309-143fe1e32882"
        },
        "status": "completed"
      } ],
      "serviceProvider": {
        "reference": "urn:uuid:ea6232dd-3baa-4721-8887-5d73fab84d4b"
      }
    }
  }, {
    "fullUrl": "urn:uuid:ea6232dd-3baa-4721-8887-5d73fab84d4b",
    "resource": {
      "resourceType": "Organization",
      "id": "ea6232dd-3baa-4721-8887-5d73fab84d4b",
      "active": true,
      "type": [ {
        "text": "CST"
      } ],
      "name": "Norfolk and Wisbech 111"
    }
  }, {
    "fullUrl": "urn:uuid:6ff7107c-8b6c-48ed-9f23-5a81568053d0",
    "resource": {
      "resourceType": "Practitioner",
      "id": "6ff7107c-8b6c-48ed-9f23-5a81568053d0",
      "active": true,
      "name": [ {
        "text": "Ben Smythson"
      } ]
    }
  }, {
    "fullUrl": "urn:uuid:47277825-caf6-42b6-b049-014b524511de",
    "resource": {
      "resourceType": "RelatedPerson",
      "id": "47277825-caf6-42b6-b049-014b524511de",
      "active": true,
      "patient": {
        "reference": "urn:uuid:2f9db83e-4aad-4904-bbc1-5fb9815b5f73"
      },
      "relationship": {
        "coding": [ {
          "system": "2.16.840.1.113883.2.1.3.2.4.16.45",
          "code": "21",
          "display": "Self"
        }, {
          "system": "http://hl7.org/fhir/v2/0131",
          "code": "C",
          "display": "Emergency Contact"
        } ]
      },
      "name": [ {
        "text": "Test Call Dx10 TEST CALL DX10"
      } ],
      "telecom": [ {
        "system": "phone",
        "value": "tel:01233123123"
      } ],
      "gender": "unknown"
    }
  }, {
    "fullUrl": "urn:uuid:dff47e95-0ba1-4f3b-9390-460ba3b4bd7f",
    "resource": {
      "resourceType": "Location",
      "id": "dff47e95-0ba1-4f3b-9390-460ba3b4bd7f",
      "managingOrganization": {
        "reference": "urn:uuid:b3c1c0b5-ae3f-4d5b-97cf-03242cf9a4af"
      }
    }
  }, {
    "fullUrl": "urn:uuid:b3c1c0b5-ae3f-4d5b-97cf-03242cf9a4af",
    "resource": {
      "resourceType": "Organization",
      "id": "b3c1c0b5-ae3f-4d5b-97cf-03242cf9a4af",
      "identifier": [ {
        "value": "Z10000"
      } ],
      "type": [ {
        "text": "GP Practice"
      } ],
      "name": "UNKNOWN"
    }
  }, {
    "fullUrl": "urn:uuid:e459e047-c563-42c8-a309-143fe1e32882",
    "resource": {
      "resourceType": "Location",
      "id": "e459e047-c563-42c8-a309-143fe1e32882",
      "address": {
        "type": "physical",
        "line": [ "313 VICTORIA ROAD", "LOWESTOFT" ],
        "postalCode": "NR33 9LS"
      }
    }
  }, {
    "fullUrl": "urn:uuid:2f9db83e-4aad-4904-bbc1-5fb9815b5f73",
    "resource": {
      "resourceType": "Patient",
      "id": "2f9db83e-4aad-4904-bbc1-5fb9815b5f73",
      "language": "en",
      "active": true,
      "name": [ {
        "use": "official",
        "family": "TEST CALL DX10",
        "given": [ "Test Call Dx10" ]
      } ],
      "telecom": [ {
        "system": "phone",
        "value": "tel:01233123123"
      } ],
      "gender": "male",
      "birthDate": "1996-03-25",
      "address": [ {
        "use": "home",
        "line": [ "313 VICTORIA ROAD", "LOWESTOFT" ],
        "postalCode": "NR33 9LS"
      }, {
        "type": "physical",
        "line": [ "313 VICTORIA ROAD", "LOWESTOFT" ],
        "postalCode": "NR33 9LS"
      } ],
      "generalPractitioner": [ {
        "reference": "urn:uuid:0003ad9a-0430-4097-a122-02905f311602"
      } ]
    }
  }, {
    "fullUrl": "urn:uuid:0003ad9a-0430-4097-a122-02905f311602",
    "resource": {
      "resourceType": "Organization",
      "id": "0003ad9a-0430-4097-a122-02905f311602",
      "identifier": [ {
        "value": "Z10000"
      } ],
      "type": [ {
        "text": "GP Practice"
      } ],
      "name": "UNKNOWN"
    }
  }, {
    "fullUrl": "urn:uuid:4846509a-88c6-41e8-8a5b-823c40fe5751",
    "resource": {
      "resourceType": "HealthcareService",
      "id": "4846509a-88c6-41e8-8a5b-823c40fe5751",
      "active": true,
      "providedBy": {
        "reference": "urn:uuid:7af9437b-191e-4b32-a295-efb11e9428c8"
      },
      "location": [ {
        "reference": "urn:uuid:faa4aa0a-d1e6-47d8-a9b9-df6d7ec083bd"
      } ],
      "name": "Out of Hours GP Service (Waveney) - Kirkley Mill Health Centre, Lowestoft"
    }
  }, {
    "fullUrl": "urn:uuid:faa4aa0a-d1e6-47d8-a9b9-df6d7ec083bd",
    "resource": {
      "resourceType": "Location",
      "id": "faa4aa0a-d1e6-47d8-a9b9-df6d7ec083bd",
      "managingOrganization": {
        "reference": "urn:uuid:7af9437b-191e-4b32-a295-efb11e9428c8"
      }
    }
  }, {
    "fullUrl": "urn:uuid:7af9437b-191e-4b32-a295-efb11e9428c8",
    "resource": {
      "resourceType": "Organization",
      "id": "7af9437b-191e-4b32-a295-efb11e9428c8",
      "identifier": [ {
        "value": "NVE06"
      } ],
      "type": [ {
        "coding": [ {
          "code": "PRCP",
          "display": "Out of Hours GP Service (Waveney) - Kirkley Mill Health Centre, Lowestoft"
        } ]
      } ],
      "name": "Out of Hours GP Service (Waveney) - Kirkley Mill Health Centre, Lowestoft"
    }
  }, {
    "fullUrl": "urn:uuid:b8c3b200-56ac-4abe-97bb-cf012ff05bb2",
    "resource": {
      "resourceType": "ReferralRequest",
      "id": "b8c3b200-56ac-4abe-97bb-cf012ff05bb2",
      "status": "active",
      "intent": "plan",
      "priority": "routine",
      "subject": {
        "reference": "urn:uuid:2f9db83e-4aad-4904-bbc1-5fb9815b5f73"
      },
      "context": {
        "reference": "urn:uuid:83677293-8d82-4182-a2ff-480eb244e779"
      },
      "occurrencePeriod": {
        "start": "2021-09-14T09:23:28+00:00",
        "end": "2021-09-14T10:23:28+00:00"
      },
      "authoredOn": "2021-05-13T17:24:56+00:00",
      "requester": {
        "agent": {
          "reference": "urn:uuid:1519c357-30fa-462e-9715-17fe8cb0b27c"
        },
        "onBehalfOf": {
          "reference": "urn:uuid:ea6232dd-3baa-4721-8887-5d73fab84d4b"
        }
      },
      "recipient": [ {
        "reference": "urn:uuid:82a99537-bc0b-4530-a492-7eef1ac57b25"
      }, {
        "reference": "urn:uuid:4846509a-88c6-41e8-8a5b-823c40fe5751"
      } ],
      "reasonReference": [ {
        "reference": "urn:uuid:f5c01ef8-9338-482d-983c-3eebdbae4d7c"
      } ],
      "supportingInfo": [ {
        "reference": "urn:uuid:329893c1-6c4b-4e1f-ab0e-4e10a328935d"
      } ]
    }
  }, {
    "fullUrl": "urn:uuid:329893c1-6c4b-4e1f-ab0e-4e10a328935d",
    "resource": {
      "resourceType": "ProcedureRequest",
      "id": "329893c1-6c4b-4e1f-ab0e-4e10a328935d",
      "status": "active",
      "intent": "plan",
      "priority": "routine",
      "doNotPerform": false,
      "code": {
        "coding": [ {
          "system": "2.16.840.1.113883.2.1.3.2.4.17.325",
          "code": "Dx10",
          "display": "MUST contact a local service for a Non-Urgent Appointment"
        } ]
      },
      "subject": {
        "reference": "urn:uuid:2f9db83e-4aad-4904-bbc1-5fb9815b5f73"
      },
      "occurrencePeriod": {
        "start": "2021-09-14T09:23:28+00:00",
        "end": "2021-09-14T10:23:28+00:00"
      },
      "reasonReference": [ {
        "reference": "urn:uuid:f5c01ef8-9338-482d-983c-3eebdbae4d7c"
      } ]
    }
  }, {
    "fullUrl": "urn:uuid:82a99537-bc0b-4530-a492-7eef1ac57b25",
    "resource": {
      "resourceType": "Practitioner",
      "id": "82a99537-bc0b-4530-a492-7eef1ac57b25",
      "active": true,
      "telecom": [ {
        "system": "phone",
        "value": "tel:01233505450"
      } ],
      "address": [ {
        "type": "physical",
        "line": [ "Kingston House", "The Long Barrow", "Orbital Park", "Ashford", "Kent" ],
        "postalCode": "TN24 0GP"
      } ]
    }
  }, {
    "fullUrl": "urn:uuid:e542b065-baee-4f36-ab4b-33607988d037",
    "resource": {
      "resourceType": "Composition",
      "id": "e542b065-baee-4f36-ab4b-33607988d037",
      "identifier": {
        "use": "usual",
        "value": "895062D0-60A8-4EB4-9017-5F489D53694D"
      },
      "status": "final",
      "type": {
        "coding": [ {
          "system": "http://snomed.info/sct",
          "code": "371531000",
          "display": "Report of clinical encounter (record artifact)"
        } ]
      },
      "subject": {
        "reference": "urn:uuid:2f9db83e-4aad-4904-bbc1-5fb9815b5f73"
      },
      "encounter": {
        "reference": "urn:uuid:83677293-8d82-4182-a2ff-480eb244e779"
      },
      "date": "2021-09-14T09:23:28+00:00",
      "author": [ {
        "reference": "urn:uuid:6ff7107c-8b6c-48ed-9f23-5a81568053d0"
      } ],
      "title": "111 Report",
      "confidentiality": "R",
      "section": [ {
        "section": [ {
          "title": "Patient's Reported Condition",
          "text": {
            "status": "generated",
            "div": "<div xmlns=\"http://www.w3.org/1999/xhtml\">&lt;xml-fragment mediaType=&quot;text/x-hl7-text+xml&quot; xmlns:xsd=&quot;http://www.w3.org/2001/XMLSchema&quot; xmlns:xsi=&quot;http://www.w3.org/2001/XMLSchema-instance&quot;&gt;\n                                                    &lt;urn:content xmlns:urn=&quot;urn:hl7-org:v3&quot;&gt;&amp;lt;CLEO Ref: 2100310450&gt; Test Call &lt;urn:br/&gt;\n                                                    &lt;/urn:content&gt;\n                                                &lt;/xml-fragment&gt;</div>"
          }
        }, {
          "title": "Pathways Disposition",
          "text": {
            "status": "generated",
            "div": "<div xmlns=\"http://www.w3.org/1999/xhtml\">&lt;xml-fragment mediaType=&quot;text/x-hl7-text+xml&quot; xmlns:xsd=&quot;http://www.w3.org/2001/XMLSchema&quot; xmlns:xsi=&quot;http://www.w3.org/2001/XMLSchema-instance&quot;&gt;\n                                                    &lt;urn:content xmlns:urn=&quot;urn:hl7-org:v3&quot;&gt;If a pharmacy service is not available contact the GP practice during normal working hours. (Dx10)&lt;/urn:content&gt;\n                                                    &lt;urn:br xmlns:urn=&quot;urn:hl7-org:v3&quot;/&gt;\n                                                    &lt;urn:br xmlns:urn=&quot;urn:hl7-org:v3&quot;/&gt;\n                                                    &lt;urn:content xmlns:urn=&quot;urn:hl7-org:v3&quot;&gt;Selected Service: 1335970392, Out of Hours GP Service (Waveney) - Kirkley Mill Health Centre, Lowestoft, 111&lt;/urn:content&gt;\n                                                    &lt;urn:br xmlns:urn=&quot;urn:hl7-org:v3&quot;/&gt;\n                                                &lt;/xml-fragment&gt;</div>"
          }
        }, {
          "title": "Consultation Summary",
          "text": {
            "status": "generated",
            "div": "<div xmlns=\"http://www.w3.org/1999/xhtml\">&lt;xml-fragment mediaType=&quot;text/x-hl7-text+xml&quot; xmlns:xsd=&quot;http://www.w3.org/2001/XMLSchema&quot; xmlns:xsi=&quot;http://www.w3.org/2001/XMLSchema-instance&quot;&gt;\n                                                    &lt;urn:content xmlns:urn=&quot;urn:hl7-org:v3&quot;&gt;\n                                                        &lt;urn:content&gt;Worst acne feature, blackheads or whiteheads&lt;/urn:content&gt;\n                                                        &lt;urn:br/&gt;\n                                                        &lt;urn:content&gt;Acne&lt;/urn:content&gt;\n                                                        &lt;urn:br/&gt;\n                                                        &lt;urn:content&gt;Warm to touch&lt;/urn:content&gt;\n                                                        &lt;urn:br/&gt;\n                                                        &lt;urn:content&gt;Illness - test&lt;/urn:content&gt;\n                                                        &lt;urn:br/&gt;\n                                                    &lt;/urn:content&gt;\n                                                &lt;/xml-fragment&gt;</div>"
          }
        }, {
          "title": "Pathways Assessment",
          "text": {
            "status": "generated",
            "div": "<div xmlns=\"http://www.w3.org/1999/xhtml\">&lt;xml-fragment mediaType=&quot;text/x-hl7-text+xml&quot; xmlns:xsd=&quot;http://www.w3.org/2001/XMLSchema&quot; xmlns:xsi=&quot;http://www.w3.org/2001/XMLSchema-instance&quot;&gt;\n                                                    &lt;urn:content xmlns:urn=&quot;urn:hl7-org:v3&quot;&gt;An injury or health problem was the reason for the contact.&lt;/urn:content&gt;\n                                                    &lt;urn:br xmlns:urn=&quot;urn:hl7-org:v3&quot;/&gt;\n                                                    &lt;urn:content xmlns:urn=&quot;urn:hl7-org:v3&quot;&gt;Heavy bleeding had not occurred in the previous 2 hours.&lt;/urn:content&gt;\n                                                    &lt;urn:br xmlns:urn=&quot;urn:hl7-org:v3&quot;/&gt;\n                                                    &lt;urn:content xmlns:urn=&quot;urn:hl7-org:v3&quot;&gt;An illness or health problem was the main problem. - test&lt;/urn:content&gt;\n                                                    &lt;urn:br xmlns:urn=&quot;urn:hl7-org:v3&quot;/&gt;\n                                                    &lt;urn:content xmlns:urn=&quot;urn:hl7-org:v3&quot;&gt;The individual was not fighting for breath.&lt;/urn:content&gt;\n                                                    &lt;urn:br xmlns:urn=&quot;urn:hl7-org:v3&quot;/&gt;\n                                                    &lt;urn:content xmlns:urn=&quot;urn:hl7-org:v3&quot;&gt;The main reason for the assessment was not an allergic reaction, heart attack, chest/upper back pain, probable stroke, recent fit/seizure or suicide attempt.&lt;/urn:content&gt;\n                                                    &lt;urn:br xmlns:urn=&quot;urn:hl7-org:v3&quot;/&gt;\n                                                    &lt;urn:content xmlns:urn=&quot;urn:hl7-org:v3&quot;&gt;The main reason for contact was not new confusion, declared diabetic hypo/hyperglycaemia, or ICD shock.&lt;/urn:content&gt;\n                                                    &lt;urn:br xmlns:urn=&quot;urn:hl7-org:v3&quot;/&gt;\n                                                    &lt;urn:content xmlns:urn=&quot;urn:hl7-org:v3&quot;&gt;The skin on the torso felt normal, warm or hot.&lt;/urn:content&gt;\n                                                    &lt;urn:br xmlns:urn=&quot;urn:hl7-org:v3&quot;/&gt;\n                                                    &lt;urn:content xmlns:urn=&quot;urn:hl7-org:v3&quot;&gt;The main problem was not a rash, itch, jaundice, skin lumps or abnormal bruising.&lt;/urn:content&gt;\n                                                    &lt;urn:br xmlns:urn=&quot;urn:hl7-org:v3&quot;/&gt;\n                                                    &lt;urn:content xmlns:urn=&quot;urn:hl7-org:v3&quot;&gt;The main problem was acne, spots or pimples.&lt;/urn:content&gt;\n                                                    &lt;urn:br xmlns:urn=&quot;urn:hl7-org:v3&quot;/&gt;\n                                                    &lt;urn:content xmlns:urn=&quot;urn:hl7-org:v3&quot;&gt;The worst problem with the acne was blackheads or white heads.&lt;/urn:content&gt;\n                                                    &lt;urn:br xmlns:urn=&quot;urn:hl7-org:v3&quot;/&gt;\n                                                    &lt;urn:content xmlns:urn=&quot;urn:hl7-org:v3&quot;&gt;The problem had not persisted for 3 months or got worse over that time.&lt;/urn:content&gt;\n                                                    &lt;urn:br xmlns:urn=&quot;urn:hl7-org:v3&quot;/&gt;\n                                                &lt;/xml-fragment&gt;</div>"
          }
        }, {
          "title": "Advice Given",
          "text": {
            "status": "generated",
            "div": "<div xmlns=\"http://www.w3.org/1999/xhtml\">&lt;xml-fragment mediaType=&quot;text/x-hl7-text+xml&quot; xmlns:xsd=&quot;http://www.w3.org/2001/XMLSchema&quot; xmlns:xsi=&quot;http://www.w3.org/2001/XMLSchema-instance&quot;&gt;\n                                                    &lt;urn:content xmlns:urn=&quot;urn:hl7-org:v3&quot;&gt;Speak to a pharmacist for advice on suitable treatment.&lt;/urn:content&gt;\n                                                    &lt;urn:br xmlns:urn=&quot;urn:hl7-org:v3&quot;/&gt;\n                                                    &lt;urn:content xmlns:urn=&quot;urn:hl7-org:v3&quot;&gt;If there are any new symptoms, or if the condition gets worse, changes or you have any other concerns, call us back.&lt;/urn:content&gt;\n                                                    &lt;urn:br xmlns:urn=&quot;urn:hl7-org:v3&quot;/&gt;\n                                                &lt;/xml-fragment&gt;</div>"
          }
        }, {
          "title": "SCR Consent",
          "text": {
            "status": "generated",
            "div": "<div xmlns=\"http://www.w3.org/1999/xhtml\">&lt;xml-fragment mediaType=&quot;text/x-hl7-text+xml&quot; xmlns:xsd=&quot;http://www.w3.org/2001/XMLSchema&quot; xmlns:xsi=&quot;http://www.w3.org/2001/XMLSchema-instance&quot;&gt;\n                                                    &lt;urn:content xmlns:urn=&quot;urn:hl7-org:v3&quot;&gt;Consent given for SCR sharing&lt;urn:br/&gt;\n                                                        &lt;urn:br/&gt;\n                                                    &lt;/urn:content&gt;\n                                                &lt;/xml-fragment&gt;</div>"
          }
        } ]
      }, {
        "title": "ReferralRequest",
        "entry": [ {
          "reference": "urn:uuid:b8c3b200-56ac-4abe-97bb-cf012ff05bb2"
        } ]
      } ]
    }
  }, {
    "fullUrl": "urn:uuid:3e2dec04-f4d4-4271-8f14-0eaf22bb4ea9",
    "resource": {
      "resourceType": "Consent",
      "id": "3e2dec04-f4d4-4271-8f14-0eaf22bb4ea9",
      "identifier": {
        "use": "usual",
        "value": "895062D0-60A8-4EB4-9017-5F489D53694D"
      },
      "status": "active",
      "patient": {
        "reference": "urn:uuid:2f9db83e-4aad-4904-bbc1-5fb9815b5f73"
      },
      "period": {
        "start": "2021-05-13T17:24:56+00:00"
      },
      "consentingParty": [ {
        "reference": "urn:uuid:2f9db83e-4aad-4904-bbc1-5fb9815b5f73"
      } ],
      "action": [ {
        "coding": [ {
          "system": "http://snomed.info/sct",
          "code": "425691002",
          "display": "Consent given for electronic record sharing"
        } ],
        "text": "Consent given for electronic record sharing"
      } ],
      "organization": [ {
        "reference": "urn:uuid:ea6232dd-3baa-4721-8887-5d73fab84d4b"
      } ],
      "policyRule": "http://hl7.org/fhir/ConsentPolicy/opt-out",
      "data": [ {
        "meaning": "related",
        "reference": {
          "reference": "urn:uuid:83677293-8d82-4182-a2ff-480eb244e779"
        }
      } ]
    }
  }, {
    "fullUrl": "urn:uuid:f5c01ef8-9338-482d-983c-3eebdbae4d7c",
    "resource": {
      "resourceType": "Condition",
      "id": "f5c01ef8-9338-482d-983c-3eebdbae4d7c",
      "clinicalStatus": "active",
      "verificationStatus": "unknown",
      "subject": {
        "reference": "urn:uuid:2f9db83e-4aad-4904-bbc1-5fb9815b5f73"
      },
      "context": {
        "reference": "urn:uuid:83677293-8d82-4182-a2ff-480eb244e779"
      }
    }
  }, {
    "fullUrl": "urn:uuid:77f38bbd-b94d-49b0-92bd-5107e56dd43c",
    "resource": {
      "resourceType": "Observation",
      "id": "77f38bbd-b94d-49b0-92bd-5107e56dd43c",
      "status": "final",
      "code": {
        "coding": [ {
          "system": "http://snomed.info/sct",
          "code": "33962009",
          "display": "Presenting complaint"
        } ]
      },
      "subject": {
        "reference": "urn:uuid:2f9db83e-4aad-4904-bbc1-5fb9815b5f73"
      },
      "context": {
        "reference": "urn:uuid:83677293-8d82-4182-a2ff-480eb244e779"
      },
      "valueString": "<CLEO Ref: 2100310450> Test Call "
    }
  }, {
    "fullUrl": "urn:uuid:c0b4734f-bdbc-47aa-a6e7-df5b3fb0dc9a",
    "resource": {
      "resourceType": "PractitionerRole",
      "id": "c0b4734f-bdbc-47aa-a6e7-df5b3fb0dc9a",
      "practitioner": {
        "reference": "urn:uuid:6ff7107c-8b6c-48ed-9f23-5a81568053d0"
      },
      "organization": {
        "reference": "urn:uuid:555af3d1-6299-458e-9a18-9af60295e70c"
      },
      "code": [ {
        "coding": [ {
          "system": "2.16.840.1.113883.2.1.3.2.4.17.196",
          "code": "NR1690",
          "display": "Call Operator"
        } ]
      } ]
    }
  }, {
    "fullUrl": "urn:uuid:555af3d1-6299-458e-9a18-9af60295e70c",
    "resource": {
      "resourceType": "Organization",
      "id": "555af3d1-6299-458e-9a18-9af60295e70c",
      "identifier": [ {
        "value": "NTN08"
      } ],
      "name": "Norfolk and Wisbech 111"
    }
  }, {
    "fullUrl": "urn:uuid:dba64ae4-cb1d-4ec5-83b0-22609bbf93fb",
    "resource": {
      "resourceType": "RelatedPerson",
      "id": "dba64ae4-cb1d-4ec5-83b0-22609bbf93fb",
      "patient": {
        "reference": "urn:uuid:2f9db83e-4aad-4904-bbc1-5fb9815b5f73"
      },
      "relationship": {
        "coding": [ {
          "system": "http://hl7.org/fhir/v2/0131",
          "code": "C",
          "display": "Emergency Contact"
        } ]
      },
      "telecom": [ {
        "system": "phone",
        "value": "tel:01233123123"
      } ]
    }
  }, {
    "fullUrl": "urn:uuid:1519c357-30fa-462e-9715-17fe8cb0b27c",
    "resource": {
      "resourceType": "Device",
      "id": "1519c357-30fa-462e-9715-17fe8cb0b27c",
      "model": "111 Adaptor",
      "version": "0.8.0"
    }
  }, {
    "fullUrl": "urn:uuid:6bac1381-ff17-438c-84b4-ad4eca85c416",
    "resource": {
      "resourceType": "List",
      "id": "6bac1381-ff17-438c-84b4-ad4eca85c416",
      "status": "current",
      "mode": "working",
      "title": "111 Report List",
      "code": {
        "coding": [ {
          "system": "http://snomed.info/sct",
          "code": "225390008",
          "display": "Triage"
        } ]
      },
      "subject": {
        "reference": "urn:uuid:2f9db83e-4aad-4904-bbc1-5fb9815b5f73"
      },
      "encounter": {
        "reference": "urn:uuid:83677293-8d82-4182-a2ff-480eb244e779"
      },
      "date": "2021-09-14T09:23:28+00:00",
      "source": {
        "reference": "urn:uuid:1519c357-30fa-462e-9715-17fe8cb0b27c"
      },
      "orderedBy": {
        "coding": [ {
          "system": "http://hl7.org/fhir/list-order",
          "code": "event-date",
          "display": "Sorted by Event Date"
        } ]
      },
      "entry": [ {
        "item": {
          "reference": "urn:uuid:82a99537-bc0b-4530-a492-7eef1ac57b25"
        }
      }, {
        "item": {
          "reference": "urn:uuid:ea6232dd-3baa-4721-8887-5d73fab84d4b"
        }
      }, {
        "item": {
          "reference": "urn:uuid:555af3d1-6299-458e-9a18-9af60295e70c"
        }
      }, {
        "item": {
          "reference": "urn:uuid:47277825-caf6-42b6-b049-014b524511de"
        }
      }, {
        "item": {
          "reference": "urn:uuid:f5c01ef8-9338-482d-983c-3eebdbae4d7c"
        }
      }, {
        "item": {
          "reference": "urn:uuid:dba64ae4-cb1d-4ec5-83b0-22609bbf93fb"
        }
      }, {
        "item": {
          "reference": "urn:uuid:7af9437b-191e-4b32-a295-efb11e9428c8"
        }
      }, {
        "item": {
          "reference": "urn:uuid:0003ad9a-0430-4097-a122-02905f311602"
        }
      }, {
        "item": {
          "reference": "urn:uuid:77f38bbd-b94d-49b0-92bd-5107e56dd43c"
        }
      }, {
        "item": {
          "reference": "urn:uuid:6ff7107c-8b6c-48ed-9f23-5a81568053d0"
        }
      }, {
        "item": {
          "reference": "urn:uuid:b3c1c0b5-ae3f-4d5b-97cf-03242cf9a4af"
        }
      }, {
        "item": {
          "reference": "urn:uuid:b8c3b200-56ac-4abe-97bb-cf012ff05bb2"
        }
      } ]
    }
  } ]
}