{
  "resourceType": "Bundle",
  "identifier": {
    "type": {
      "text": "ClinicalDocument VersionNumber"
    },
    "value": "1"
  },
  "type": "message",
  "entry": [ {
    "fullUrl": "urn:uuid:F7916D36-4D5F-4A64-BD08-644E8A234AE2",
    "resource": {
      "resourceType": "MessageHeader",
      "id": "F7916D36-4D5F-4A64-BD08-644E8A234AE2",
      "event": {
        "system": "https://fhir.nhs.uk/STU3/CodeSystem/EventType-1",
        "code": "referral-1",
        "display": "Referral"
      },
      "destination": [ {
        "endpoint": "urn:nhs-uk:addressing:ods:NVE06:DOSServiceID:1335970392"
      } ],
      "timestamp": "2021-05-13T17:24:56.000+00:00",
      "source": {
        "name": "NHS 111 Adaptor",
        "endpoint": "http://localhost:8080/report"
      },
      "reason": {
        "coding": [ {
          "system": "urn:nhs-itk:ns:201005:interaction",
          "code": "urn:nhs-itk:interaction:primaryOutofHourRecipientNHS111CDADocument-v2-0"
        } ]
      }
    }
  }, {
    "fullUrl": "urn:uuid:3cdc2682-ecfa-4c28-9e7e-9d5a28a4b9c4",
    "resource": {
      "resourceType": "Encounter",
      "id": "3cdc2682-ecfa-4c28-9e7e-9d5a28a4b9c4",
      "identifier": [ {
        "system": "2.16.840.1.113883.2.1.3.2.4.18.34",
        "value": "2DBAE50F-F88C-4572-9866-F94FE0F1F25A"
      }, {
        "system": "2.16.840.1.113883.2.1.3.2.4.18.35",
        "value": "2100310450"
      } ],
      "status": "finished",
      "type": [ {
        "text": "111 Encounter Referral"
      } ],
      "subject": {
        "reference": "urn:uuid:fd3fc1d0-d19e-4ab7-85c7-9bd1b5769dc1"
      },
      "participant": [ {
        "type": [ {
          "coding": [ {
            "system": "http://hl7.org/fhir/ValueSet/encounter-participant-type",
            "code": "PPRF",
            "display": "Author"
          } ]
        } ],
        "individual": {
          "reference": "urn:uuid:2aac7773-717b-4804-af5a-b0890fdfee87"
        }
      }, {
        "type": [ {
          "text": "Informant"
        } ],
        "individual": {
          "reference": "urn:uuid:c33dafef-53c3-4ec8-a06d-5c38cb47656d"
        }
      } ],
      "period": {
        "start": "2021-05-13T17:24:56+00:00"
      },
      "location": [ {
        "location": {
          "reference": "urn:uuid:0ad34858-e938-4acc-ab0d-352b01b353d9"
        },
        "status": "active"
      }, {
        "location": {
          "reference": "urn:uuid:e71526d2-5f8b-4c1c-931c-bf2ca91b6a65"
        },
        "status": "completed"
      } ],
      "serviceProvider": {
        "reference": "urn:uuid:c7fd4b30-ede6-472d-9a82-57805557fca9"
      }
    }
  }, {
    "fullUrl": "urn:uuid:c7fd4b30-ede6-472d-9a82-57805557fca9",
    "resource": {
      "resourceType": "Organization",
      "id": "c7fd4b30-ede6-472d-9a82-57805557fca9",
      "active": true,
      "type": [ {
        "text": "CST"
      } ],
      "name": "Norfolk and Wisbech 111"
    }
  }, {
    "fullUrl": "urn:uuid:2aac7773-717b-4804-af5a-b0890fdfee87",
    "resource": {
      "resourceType": "Practitioner",
      "id": "2aac7773-717b-4804-af5a-b0890fdfee87",
      "active": true,
      "name": [ {
        "text": "Ben Smythson"
      } ]
    }
  }, {
    "fullUrl": "urn:uuid:c33dafef-53c3-4ec8-a06d-5c38cb47656d",
    "resource": {
      "resourceType": "RelatedPerson",
      "id": "c33dafef-53c3-4ec8-a06d-5c38cb47656d",
      "active": true,
      "patient": {
        "reference": "urn:uuid:fd3fc1d0-d19e-4ab7-85c7-9bd1b5769dc1"
      },
      "relationship": {
        "coding": [ {
          "system": "2.16.840.1.113883.2.1.3.2.4.16.45",
          "code": "21",
          "display": "Self"
        }, {
          "system": "http://hl7.org/fhir/v2/0131",
          "code": "C",
          "display": "Emergency Contact"
        } ]
      },
      "name": [ {
        "text": "Test Call Dx10 TEST CALL DX10"
      } ],
      "telecom": [ {
        "system": "phone",
        "value": "tel:01233123123"
      } ],
      "gender": "unknown"
    }
  }, {
    "fullUrl": "urn:uuid:0ad34858-e938-4acc-ab0d-352b01b353d9",
    "resource": {
      "resourceType": "Location",
      "id": "0ad34858-e938-4acc-ab0d-352b01b353d9",
      "managingOrganization": {
        "reference": "urn:uuid:0fffd8f3-0c7d-4c6d-b0a9-ba994522f3c9"
      }
    }
  }, {
    "fullUrl": "urn:uuid:0fffd8f3-0c7d-4c6d-b0a9-ba994522f3c9",
    "resource": {
      "resourceType": "Organization",
      "id": "0fffd8f3-0c7d-4c6d-b0a9-ba994522f3c9",
      "identifier": [ {
        "value": "Z10000"
      } ],
      "type": [ {
        "text": "GP Practice"
      } ],
      "name": "UNKNOWN"
    }
  }, {
    "fullUrl": "urn:uuid:e71526d2-5f8b-4c1c-931c-bf2ca91b6a65",
    "resource": {
      "resourceType": "Location",
      "id": "e71526d2-5f8b-4c1c-931c-bf2ca91b6a65",
      "address": {
        "type": "physical",
        "line": [ "313 VICTORIA ROAD", "LOWESTOFT" ],
        "postalCode": "NR33 9LS"
      }
    }
  }, {
    "fullUrl": "urn:uuid:fd3fc1d0-d19e-4ab7-85c7-9bd1b5769dc1",
    "resource": {
      "resourceType": "Patient",
      "id": "fd3fc1d0-d19e-4ab7-85c7-9bd1b5769dc1",
      "language": "en",
      "active": true,
      "name": [ {
        "use": "official",
        "family": "TEST CALL DX10",
        "given": [ "Test Call Dx10" ]
      } ],
      "telecom": [ {
        "system": "phone",
        "value": "tel:01233123123"
      } ],
      "gender": "male",
      "birthDate": "1996-03-25",
      "address": [ {
        "use": "home",
        "line": [ "313 VICTORIA ROAD", "LOWESTOFT" ],
        "postalCode": "NR33 9LS"
      }, {
        "type": "physical",
        "line": [ "313 VICTORIA ROAD", "LOWESTOFT" ],
        "postalCode": "NR33 9LS"
      } ],
      "generalPractitioner": [ {
        "reference": "urn:uuid:0bb4a6d7-71fc-4f31-95d4-1c5f02c8b36f"
      } ]
    }
  }, {
    "fullUrl": "urn:uuid:0bb4a6d7-71fc-4f31-95d4-1c5f02c8b36f",
    "resource": {
      "resourceType": "Organization",
      "id": "0bb4a6d7-71fc-4f31-95d4-1c5f02c8b36f",
      "identifier": [ {
        "value": "Z10000"
      } ],
      "type": [ {
        "text": "GP Practice"
      } ],
      "name": "UNKNOWN"
    }
  }, {
    "fullUrl": "urn:uuid:dadf9c2e-f1ba-469c-b4d1-c5072ac00dd3",
    "resource": {
      "resourceType": "HealthcareService",
      "id": "dadf9c2e-f1ba-469c-b4d1-c5072ac00dd3",
      "active": true,
      "providedBy": {
        "reference": "urn:uuid:f5d2a639-89e1-4617-b671-20163a3882e4"
      },
      "location": [ {
        "reference": "urn:uuid:26e3b172-ab75-4489-9cf4-5cdb6feb20d4"
      } ],
      "name": "Out of Hours GP Service (Waveney) - Kirkley Mill Health Centre, Lowestoft"
    }
  }, {
    "fullUrl": "urn:uuid:26e3b172-ab75-4489-9cf4-5cdb6feb20d4",
    "resource": {
      "resourceType": "Location",
      "id": "26e3b172-ab75-4489-9cf4-5cdb6feb20d4",
      "managingOrganization": {
        "reference": "urn:uuid:f5d2a639-89e1-4617-b671-20163a3882e4"
      }
    }
  }, {
    "fullUrl": "urn:uuid:f5d2a639-89e1-4617-b671-20163a3882e4",
    "resource": {
      "resourceType": "Organization",
      "id": "f5d2a639-89e1-4617-b671-20163a3882e4",
      "identifier": [ {
        "value": "NVE06"
      } ],
      "type": [ {
        "coding": [ {
          "code": "PRCP",
          "display": "Out of Hours GP Service (Waveney) - Kirkley Mill Health Centre, Lowestoft"
        } ]
      } ],
      "name": "Out of Hours GP Service (Waveney) - Kirkley Mill Health Centre, Lowestoft"
    }
  }, {
    "fullUrl": "urn:uuid:012f0641-aec7-4d66-b636-15f81400a0f5",
    "resource": {
      "resourceType": "ReferralRequest",
      "id": "012f0641-aec7-4d66-b636-15f81400a0f5",
      "status": "active",
      "intent": "plan",
      "priority": "routine",
      "subject": {
        "reference": "urn:uuid:fd3fc1d0-d19e-4ab7-85c7-9bd1b5769dc1"
      },
      "context": {
        "reference": "urn:uuid:3cdc2682-ecfa-4c28-9e7e-9d5a28a4b9c4"
      },
      "occurrencePeriod": {
        "start": "2022-04-07T07:52:14+00:00",
        "end": "2022-04-07T08:52:14+00:00"
      },
      "authoredOn": "2021-05-13T17:24:56+00:00",
      "requester": {
        "agent": {
          "reference": "urn:uuid:ff46b56b-2e55-4bc7-8f79-74ad430fc065"
        },
        "onBehalfOf": {
          "reference": "urn:uuid:c7fd4b30-ede6-472d-9a82-57805557fca9"
        }
      },
      "recipient": [ {
        "reference": "urn:uuid:0f68c302-9b6d-4ae9-864a-e2242deb48a5"
      }, {
        "reference": "urn:uuid:dadf9c2e-f1ba-469c-b4d1-c5072ac00dd3"
      } ],
      "reasonReference": [ {
        "reference": "urn:uuid:d77da43a-99d8-4725-9590-5c96aa0e276a"
      } ],
      "supportingInfo": [ {
        "reference": "urn:uuid:d48c1068-14fd-48fa-84d9-00cb28e5385e"
      } ]
    }
  }, {
    "fullUrl": "urn:uuid:d48c1068-14fd-48fa-84d9-00cb28e5385e",
    "resource": {
      "resourceType": "ProcedureRequest",
      "id": "d48c1068-14fd-48fa-84d9-00cb28e5385e",
      "status": "active",
      "intent": "plan",
      "priority": "routine",
      "doNotPerform": false,
      "code": {
        "coding": [ {
          "system": "2.16.840.1.113883.2.1.3.2.4.17.325",
          "code": "Dx10",
          "display": "MUST contact a local service for a Non-Urgent Appointment"
        } ]
      },
      "subject": {
        "reference": "urn:uuid:fd3fc1d0-d19e-4ab7-85c7-9bd1b5769dc1"
      },
      "occurrencePeriod": {
        "start": "2022-04-07T07:52:14+00:00",
        "end": "2022-04-07T08:52:14+00:00"
      },
      "reasonReference": [ {
        "reference": "urn:uuid:d77da43a-99d8-4725-9590-5c96aa0e276a"
      } ]
    }
  }, {
    "fullUrl": "urn:uuid:0f68c302-9b6d-4ae9-864a-e2242deb48a5",
    "resource": {
      "resourceType": "Practitioner",
      "id": "0f68c302-9b6d-4ae9-864a-e2242deb48a5",
      "active": true,
      "telecom": [ {
        "system": "phone",
        "value": "tel:01233505450"
      } ],
      "address": [ {
        "type": "physical",
        "line": [ "Kingston House", "The Long Barrow", "Orbital Park", "Ashford", "Kent" ],
        "postalCode": "TN24 0GP"
      } ]
    }
  }, {
    "fullUrl": "urn:uuid:139e71b0-eb70-42d9-b9c6-26d72211b70b",
    "resource": {
      "resourceType": "Composition",
      "id": "139e71b0-eb70-42d9-b9c6-26d72211b70b",
      "identifier": {
        "use": "usual",
        "value": "895062D0-60A8-4EB4-9017-5F489D53694D"
      },
      "status": "final",
      "type": {
        "coding": [ {
          "system": "http://snomed.info/sct",
          "code": "371531000",
          "display": "Report of clinical encounter (record artifact)"
        } ]
      },
      "subject": {
        "reference": "urn:uuid:fd3fc1d0-d19e-4ab7-85c7-9bd1b5769dc1"
      },
      "encounter": {
        "reference": "urn:uuid:3cdc2682-ecfa-4c28-9e7e-9d5a28a4b9c4"
      },
      "date": "2022-04-07T07:52:14+00:00",
      "author": [ {
        "reference": "urn:uuid:2aac7773-717b-4804-af5a-b0890fdfee87"
      } ],
      "title": "111 Report",
      "confidentiality": "R",
      "section": [ {
        "section": [ {
          "title": "Patient's Reported Condition",
          "text": {
            "status": "generated",
            "div": "<div xmlns=\"http://www.w3.org/1999/xhtml\">&lt;content&gt;&amp;lt;CLEO Ref: 2100310450&amp;gt; Test Call &lt;br/&gt;\n                                                    &lt;/content&gt;</div>"
          }
        }, {
          "title": "Pathways Disposition",
          "text": {
            "status": "generated",
            "div": "<div xmlns=\"http://www.w3.org/1999/xhtml\">&lt;content&gt;If a pharmacy service is not available contact the GP practice during normal working hours. (Dx10)&lt;/content&gt;\n                                                    &lt;br/&gt;\n                                                    &lt;br/&gt;\n                                                    &lt;content&gt;Selected Service: 1335970392, Out of Hours GP Service (Waveney) - Kirkley Mill Health Centre, Lowestoft, 111&lt;/content&gt;\n                                                    &lt;br/&gt;</div>"
          }
        }, {
          "title": "Consultation Summary",
          "text": {
            "status": "generated",
            "div": "<div xmlns=\"http://www.w3.org/1999/xhtml\">&lt;content&gt;\n                                                        &lt;content&gt;Worst acne feature, blackheads or whiteheads&lt;/content&gt;\n                                                        &lt;br/&gt;\n                                                        &lt;content&gt;Acne&lt;/content&gt;\n                                                        &lt;br/&gt;\n                                                        &lt;content&gt;Warm to touch&lt;/content&gt;\n                                                        &lt;br/&gt;\n                                                        &lt;content&gt;Illness - test&lt;/content&gt;\n                                                        &lt;br/&gt;\n                                                    &lt;/content&gt;</div>"
          }
        }, {
          "title": "Pathways Assessment",
          "text": {
            "status": "generated",
            "div": "<div xmlns=\"http://www.w3.org/1999/xhtml\">&lt;content&gt;An injury or health problem was the reason for the contact.&lt;/content&gt;\n                                                    &lt;br/&gt;\n                                                    &lt;content&gt;Heavy bleeding had not occurred in the previous 2 hours.&lt;/content&gt;\n                                                    &lt;br/&gt;\n                                                    &lt;content&gt;An illness or health problem was the main problem. - test&lt;/content&gt;\n                                                    &lt;br/&gt;\n                                                    &lt;content&gt;The individual was not fighting for breath.&lt;/content&gt;\n                                                    &lt;br/&gt;\n                                                    &lt;content&gt;The main reason for the assessment was not an allergic reaction, heart attack, chest/upper back pain, probable stroke, recent fit/seizure or suicide attempt.&lt;/content&gt;\n                                                    &lt;br/&gt;\n                                                    &lt;content&gt;The main reason for contact was not new confusion, declared diabetic hypo/hyperglycaemia, or ICD shock.&lt;/content&gt;\n                                                    &lt;br/&gt;\n                                                    &lt;content&gt;The skin on the torso felt normal, warm or hot.&lt;/content&gt;\n                                                    &lt;br/&gt;\n                                                    &lt;content&gt;The main problem was not a rash, itch, jaundice, skin lumps or abnormal bruising.&lt;/content&gt;\n                                                    &lt;br/&gt;\n                                                    &lt;content&gt;The main problem was acne, spots or pimples.&lt;/content&gt;\n                                                    &lt;br/&gt;\n                                                    &lt;content&gt;The worst problem with the acne was blackheads or white heads.&lt;/content&gt;\n                                                    &lt;br/&gt;\n                                                    &lt;content&gt;The problem had not persisted for 3 months or got worse over that time.&lt;/content&gt;\n                                                    &lt;br/&gt;</div>"
          }
        }, {
          "title": "Advice Given",
          "text": {
            "status": "generated",
            "div": "<div xmlns=\"http://www.w3.org/1999/xhtml\">&lt;content&gt;Speak to a pharmacist for advice on suitable treatment.&lt;/content&gt;\n                                                    &lt;br/&gt;\n                                                    &lt;content&gt;If there are any new symptoms, or if the condition gets worse, changes or you have any other concerns, call us back.&lt;/content&gt;\n                                                    &lt;br/&gt;</div>"
          }
        }, {
          "title": "SCR Consent",
          "text": {
            "status": "generated",
            "div": "<div xmlns=\"http://www.w3.org/1999/xhtml\">&lt;content&gt;Consent given for SCR sharing&lt;br/&gt;\n                                                        &lt;br/&gt;\n                                                    &lt;/content&gt;</div>"
          }
        } ]
      }, {
        "title": "ReferralRequest",
        "entry": [ {
          "reference": "urn:uuid:012f0641-aec7-4d66-b636-15f81400a0f5"
        } ]
      } ]
    }
  }, {
    "fullUrl": "urn:uuid:8515fb04-7010-4af9-a584-ef31f53b1789",
    "resource": {
      "resourceType": "Consent",
      "id": "8515fb04-7010-4af9-a584-ef31f53b1789",
      "identifier": {
        "use": "usual",
        "value": "895062D0-60A8-4EB4-9017-5F489D53694D"
      },
      "status": "active",
      "patient": {
        "reference": "urn:uuid:fd3fc1d0-d19e-4ab7-85c7-9bd1b5769dc1"
      },
      "period": {
        "start": "2021-05-13T17:24:56+00:00"
      },
      "consentingParty": [ {
        "reference": "urn:uuid:fd3fc1d0-d19e-4ab7-85c7-9bd1b5769dc1"
      } ],
      "action": [ {
        "coding": [ {
          "system": "http://snomed.info/sct",
          "code": "425691002",
          "display": "Consent given for electronic record sharing"
        } ],
        "text": "Consent given for electronic record sharing"
      } ],
      "organization": [ {
        "reference": "urn:uuid:c7fd4b30-ede6-472d-9a82-57805557fca9"
      } ],
      "policyRule": "http://hl7.org/fhir/ConsentPolicy/opt-out",
      "data": [ {
        "meaning": "related",
        "reference": {
          "reference": "urn:uuid:3cdc2682-ecfa-4c28-9e7e-9d5a28a4b9c4"
        }
      } ]
    }
  }, {
    "fullUrl": "urn:uuid:d77da43a-99d8-4725-9590-5c96aa0e276a",
    "resource": {
      "resourceType": "Condition",
      "id": "d77da43a-99d8-4725-9590-5c96aa0e276a",
      "clinicalStatus": "active",
      "verificationStatus": "unknown",
      "subject": {
        "reference": "urn:uuid:fd3fc1d0-d19e-4ab7-85c7-9bd1b5769dc1"
      },
      "context": {
        "reference": "urn:uuid:3cdc2682-ecfa-4c28-9e7e-9d5a28a4b9c4"
      }
    }
  }, {
    "fullUrl": "urn:uuid:9cc80ac7-5db1-4244-a57e-eebbc3ca6bdf",
    "resource": {
      "resourceType": "Observation",
      "id": "9cc80ac7-5db1-4244-a57e-eebbc3ca6bdf",
      "status": "final",
      "code": {
        "coding": [ {
          "system": "http://snomed.info/sct",
          "code": "33962009",
          "display": "Presenting complaint"
        } ]
      },
      "subject": {
        "reference": "urn:uuid:fd3fc1d0-d19e-4ab7-85c7-9bd1b5769dc1"
      },
      "context": {
        "reference": "urn:uuid:3cdc2682-ecfa-4c28-9e7e-9d5a28a4b9c4"
      },
      "valueString": "<CLEO Ref: 2100310450> Test Call "
    }
  }, {
    "fullUrl": "urn:uuid:c9177205-18da-486f-89a6-dff484164a68",
    "resource": {
      "resourceType": "PractitionerRole",
      "id": "c9177205-18da-486f-89a6-dff484164a68",
      "practitioner": {
        "reference": "urn:uuid:2aac7773-717b-4804-af5a-b0890fdfee87"
      },
      "organization": {
        "reference": "urn:uuid:fe393dfe-f7fc-4752-8b1e-4a5c255ecf1f"
      },
      "code": [ {
        "coding": [ {
          "system": "2.16.840.1.113883.2.1.3.2.4.17.196",
          "code": "NR1690",
          "display": "Call Operator"
        } ]
      } ]
    }
  }, {
    "fullUrl": "urn:uuid:fe393dfe-f7fc-4752-8b1e-4a5c255ecf1f",
    "resource": {
      "resourceType": "Organization",
      "id": "fe393dfe-f7fc-4752-8b1e-4a5c255ecf1f",
      "identifier": [ {
        "value": "NTN08"
      } ],
      "name": "Norfolk and Wisbech 111"
    }
  }, {
    "fullUrl": "urn:uuid:6a41525e-ebfe-4690-8556-69896316c3e3",
    "resource": {
      "resourceType": "RelatedPerson",
      "id": "6a41525e-ebfe-4690-8556-69896316c3e3",
      "patient": {
        "reference": "urn:uuid:fd3fc1d0-d19e-4ab7-85c7-9bd1b5769dc1"
      },
      "relationship": {
        "coding": [ {
          "system": "http://hl7.org/fhir/v2/0131",
          "code": "C",
          "display": "Emergency Contact"
        } ]
      },
      "telecom": [ {
        "system": "phone",
        "value": "tel:01233123123"
      } ]
    }
  }, {
    "fullUrl": "urn:uuid:ff46b56b-2e55-4bc7-8f79-74ad430fc065",
    "resource": {
      "resourceType": "Device",
      "id": "ff46b56b-2e55-4bc7-8f79-74ad430fc065",
      "model": "111 Adaptor",
      "version": "1.0.1"
    }
  }, {
    "fullUrl": "urn:uuid:051271de-30fc-4d1a-9b71-e090c4c4cb47",
    "resource": {
      "resourceType": "List",
      "id": "051271de-30fc-4d1a-9b71-e090c4c4cb47",
      "status": "current",
      "mode": "working",
      "title": "111 Report List",
      "code": {
        "coding": [ {
          "system": "http://snomed.info/sct",
          "code": "225390008",
          "display": "Triage"
        } ]
      },
      "subject": {
        "reference": "urn:uuid:fd3fc1d0-d19e-4ab7-85c7-9bd1b5769dc1"
      },
      "encounter": {
        "reference": "urn:uuid:3cdc2682-ecfa-4c28-9e7e-9d5a28a4b9c4"
      },
      "date": "2022-04-07T07:52:14+00:00",
      "source": {
        "reference": "urn:uuid:ff46b56b-2e55-4bc7-8f79-74ad430fc065"
      },
      "orderedBy": {
        "coding": [ {
          "system": "http://hl7.org/fhir/list-order",
          "code": "event-date",
          "display": "Sorted by Event Date"
        } ]
      },
      "entry": [ {
        "item": {
          "reference": "urn:uuid:0bb4a6d7-71fc-4f31-95d4-1c5f02c8b36f"
        }
      }, {
        "item": {
          "reference": "urn:uuid:2aac7773-717b-4804-af5a-b0890fdfee87"
        }
      }, {
        "item": {
          "reference": "urn:uuid:6a41525e-ebfe-4690-8556-69896316c3e3"
        }
      }, {
        "item": {
          "reference": "urn:uuid:c33dafef-53c3-4ec8-a06d-5c38cb47656d"
        }
      }, {
        "item": {
          "reference": "urn:uuid:0f68c302-9b6d-4ae9-864a-e2242deb48a5"
        }
      }, {
        "item": {
          "reference": "urn:uuid:f5d2a639-89e1-4617-b671-20163a3882e4"
        }
      }, {
        "item": {
          "reference": "urn:uuid:fe393dfe-f7fc-4752-8b1e-4a5c255ecf1f"
        }
      }, {
        "item": {
          "reference": "urn:uuid:9cc80ac7-5db1-4244-a57e-eebbc3ca6bdf"
        }
      }, {
        "item": {
          "reference": "urn:uuid:d77da43a-99d8-4725-9590-5c96aa0e276a"
        }
      }, {
        "item": {
          "reference": "urn:uuid:0fffd8f3-0c7d-4c6d-b0a9-ba994522f3c9"
        }
      }, {
        "item": {
          "reference": "urn:uuid:c7fd4b30-ede6-472d-9a82-57805557fca9"
        }
      }, {
        "item": {
          "reference": "urn:uuid:012f0641-aec7-4d66-b636-15f81400a0f5"
        }
      } ]
    }
  } ]
}