{
  "resourceType": "Bundle",
  "identifier": {
    "type": {
      "text": "ClinicalDocument VersionNumber"
    },
    "value": "1"
  },
  "type": "message",
  "entry": [ {
    "fullUrl": "urn:uuid:05040617-33BA-4344-AA59-281CF2FE63CA",
    "resource": {
      "resourceType": "MessageHeader",
      "id": "05040617-33BA-4344-AA59-281CF2FE63CA",
      "event": {
        "system": "https://fhir.nhs.uk/STU3/CodeSystem/EventType-1",
        "code": "referral-1",
        "display": "Referral"
      },
      "destination": [ {
        "endpoint": "urn:nhs-uk:addressing:ods:FHR04RPX:DOSServiceID:2000038667"
      } ],
      "timestamp": "2021-04-06T15:19:34.000+00:00",
      "source": {
        "name": "NHS 111 Adaptor",
        "endpoint": "http://localhost:8080/report"
      },
      "reason": {
        "coding": [ {
          "system": "urn:nhs-itk:ns:201005:interaction",
          "code": "urn:nhs-itk:interaction:primaryOutofHourRecipientNHS111CDADocument-v2-0"
        } ]
      }
    }
  }, {
    "fullUrl": "urn:uuid:88131768-8b3f-4762-bfe6-c40526e43c88",
    "resource": {
      "resourceType": "Encounter",
      "id": "88131768-8b3f-4762-bfe6-c40526e43c88",
      "identifier": [ {
        "system": "2.16.840.1.113883.2.1.3.2.4.18.34",
        "value": "AdastraCaseGUID34"
      }, {
        "system": "2.16.840.1.113883.2.1.3.2.4.18.35",
        "value": "AdastraCaseID35"
      }, {
        "system": "2.16.840.1.113883.2.1.3.2.4.18.49",
        "value": "AdastraCaseGUID49"
      } ],
      "status": "finished",
      "type": [ {
        "text": "111 Encounter Referral"
      } ],
      "subject": {
        "reference": "urn:uuid:c98ac1e1-79c9-45a3-a376-c40138c3c099"
      },
      "participant": [ {
        "type": [ {
          "coding": [ {
            "system": "http://hl7.org/fhir/ValueSet/encounter-participant-type",
            "code": "PPRF",
            "display": "Author"
          } ]
        } ],
        "individual": {
          "reference": "urn:uuid:0e4c073a-6537-4896-a408-ef023047dcc9"
        }
      }, {
        "type": [ {
          "text": "Informant"
        } ],
        "individual": {
          "reference": "urn:uuid:0cb05fcc-25d4-4640-b7e4-4cfebc359b93"
        }
      }, {
        "type": [ {
          "coding": [ {
            "system": "http://hl7.org/fhir/ValueSet/encounter-participant-type",
            "code": "ATND",
            "display": "Responsible Party"
          } ]
        } ],
        "individual": {
          "reference": "urn:uuid:25505098-a5a7-4a97-b692-21d5d75c7a33"
        }
      } ],
      "period": {
        "start": "2021-04-06T15:19:34+00:00"
      },
      "location": [ {
        "location": {
          "reference": "urn:uuid:6b978706-ddf6-495f-99e6-4760902b4533"
        },
        "status": "completed"
      } ],
      "serviceProvider": {
        "reference": "urn:uuid:8ddbaa8b-d840-4428-ab8f-8883a92b9e2d"
      }
    }
  }, {
    "fullUrl": "urn:uuid:8ddbaa8b-d840-4428-ab8f-8883a92b9e2d",
    "resource": {
      "resourceType": "Organization",
      "id": "8ddbaa8b-d840-4428-ab8f-8883a92b9e2d",
      "active": true,
      "type": [ {
        "text": "CST"
      } ],
      "name": "CustodianName"
    }
  }, {
    "fullUrl": "urn:uuid:0e4c073a-6537-4896-a408-ef023047dcc9",
    "resource": {
      "resourceType": "Practitioner",
      "id": "0e4c073a-6537-4896-a408-ef023047dcc9",
      "active": true,
      "name": [ {
        "use": "official",
        "family": "AuthorAssignedPerson FamilyName",
        "given": [ "AuthorAssignedPerson GivenName" ]
      } ]
    }
  }, {
    "fullUrl": "urn:uuid:0cb05fcc-25d4-4640-b7e4-4cfebc359b93",
    "resource": {
      "resourceType": "RelatedPerson",
      "id": "0cb05fcc-25d4-4640-b7e4-4cfebc359b93",
      "active": true,
      "patient": {
        "reference": "urn:uuid:c98ac1e1-79c9-45a3-a376-c40138c3c099"
      },
      "relationship": {
        "coding": [ {
          "system": "2.16.840.1.113883.2.1.3.2.4.16.45",
          "code": "16",
          "display": "Relative"
        } ]
      },
      "name": [ {
        "text": "RelatedPerson Name"
      } ],
      "telecom": [ {
        "system": "phone",
        "value": "tel:01111111111",
        "use": "home"
      } ],
      "gender": "unknown"
    }
  }, {
    "fullUrl": "urn:uuid:25505098-a5a7-4a97-b692-21d5d75c7a33",
    "resource": {
      "resourceType": "Practitioner",
      "id": "25505098-a5a7-4a97-b692-21d5d75c7a33",
      "active": true,
      "name": [ {
        "use": "official",
        "family": "ResponsablePartyMD FamilyName",
        "given": [ "ResponsablePartyMD GivenName" ]
      } ]
    }
  }, {
    "fullUrl": "urn:uuid:6b978706-ddf6-495f-99e6-4760902b4533",
    "resource": {
      "resourceType": "Location",
      "id": "6b978706-ddf6-495f-99e6-4760902b4533",
      "name": "Incident Location",
      "address": {
        "type": "physical",
        "line": [ "HealthCareFacility AddressLine1", "HealthCareFacility AddressLine2", "HealthCareFacility AddressLine3", "HealthCareFacility AddressLine4", "HealthCareFacility AddressLine5" ],
        "postalCode": "LOH25 4NS"
      }
    }
  }, {
    "fullUrl": "urn:uuid:c98ac1e1-79c9-45a3-a376-c40138c3c099",
    "resource": {
      "resourceType": "Patient",
      "id": "c98ac1e1-79c9-45a3-a376-c40138c3c099",
      "active": true,
      "name": [ {
        "use": "official",
        "family": "Patient Family Name",
        "given": [ "Patient Given Name" ]
      } ],
      "telecom": [ {
        "system": "phone",
        "value": "tel:000000000000",
        "use": "home"
      }, {
        "system": "phone",
        "value": "tel:000000000000"
      } ],
      "gender": "other",
      "birthDate": "1990-02-02",
      "address": [ {
        "use": "home",
        "line": [ "Home Address Line 1", "Home Address Line 2", "Home Address Line 3", "Home Address Line 4", "Home Address Line 5" ],
        "postalCode": "HA25 4NS"
      }, {
        "type": "physical",
        "line": [ "Home Address Line 1", "Home Address Line 2", "Home Address Line 3", "Home Address Line 4", "Home Address Line 5" ],
        "postalCode": "PH25 4NS"
      } ]
    }
  }, {
    "fullUrl": "urn:uuid:e520d59c-a030-4a1b-93ed-f8a5463f5edb",
    "resource": {
      "resourceType": "HealthcareService",
      "id": "e520d59c-a030-4a1b-93ed-f8a5463f5edb",
      "active": true,
      "providedBy": {
        "reference": "urn:uuid:a1bc67e1-9f24-4ea8-80b4-3e3a4c82d6e1"
      },
      "location": [ {
        "reference": "urn:uuid:4bcc7b8d-74c7-427a-8512-48af9c3dc374"
      } ],
      "name": "InformationRecipient IntendedRecipient Name FHR0"
    }
  }, {
    "fullUrl": "urn:uuid:4bcc7b8d-74c7-427a-8512-48af9c3dc374",
    "resource": {
      "resourceType": "Location",
      "id": "4bcc7b8d-74c7-427a-8512-48af9c3dc374",
      "managingOrganization": {
        "reference": "urn:uuid:a1bc67e1-9f24-4ea8-80b4-3e3a4c82d6e1"
      }
    }
  }, {
    "fullUrl": "urn:uuid:a1bc67e1-9f24-4ea8-80b4-3e3a4c82d6e1",
    "resource": {
      "resourceType": "Organization",
      "id": "a1bc67e1-9f24-4ea8-80b4-3e3a4c82d6e1",
      "identifier": [ {
        "value": "FHR04RPX"
      } ],
      "type": [ {
        "coding": [ {
          "code": "PRCP",
          "display": "InformationRecipient IntendedRecipient Name FHR0"
        } ]
      } ],
      "name": "InformationRecipient IntendedRecipient Name FHR0"
    }
  }, {
    "fullUrl": "urn:uuid:e6817567-33d3-4f32-8039-dd137224cc9a",
    "resource": {
      "resourceType": "ReferralRequest",
      "id": "e6817567-33d3-4f32-8039-dd137224cc9a",
      "status": "active",
      "intent": "plan",
      "priority": "routine",
      "subject": {
        "reference": "urn:uuid:c98ac1e1-79c9-45a3-a376-c40138c3c099"
      },
      "context": {
        "reference": "urn:uuid:88131768-8b3f-4762-bfe6-c40526e43c88"
      },
      "occurrencePeriod": {
        "start": "2022-04-07T07:52:15+00:00",
        "end": "2022-04-07T08:52:15+00:00"
      },
      "authoredOn": "2021-04-06T15:19:29+00:00",
      "requester": {
        "agent": {
          "reference": "urn:uuid:435e9ad2-ba28-4e81-bc8d-578287fb23c1"
        },
        "onBehalfOf": {
          "reference": "urn:uuid:8ddbaa8b-d840-4428-ab8f-8883a92b9e2d"
        }
      },
      "recipient": [ {
        "reference": "urn:uuid:e520d59c-a030-4a1b-93ed-f8a5463f5edb"
      } ],
      "reasonReference": [ {
        "reference": "urn:uuid:d440daa1-d539-4398-b930-25d80b741f79"
      } ],
      "supportingInfo": [ {
        "reference": "urn:uuid:946e839e-587c-44fd-befe-612615f50bfa"
      } ]
    }
  }, {
    "fullUrl": "urn:uuid:946e839e-587c-44fd-befe-612615f50bfa",
    "resource": {
      "resourceType": "ProcedureRequest",
      "id": "946e839e-587c-44fd-befe-612615f50bfa",
      "status": "active",
      "intent": "plan",
      "priority": "routine",
      "doNotPerform": false,
      "code": {
        "coding": [ {
          "system": "2.16.840.1.113883.2.1.3.2.4.17.325",
          "code": "DispoCodeDx87",
          "display": "DispoName - Repeat Prescription required within 24 hours"
        } ]
      },
      "subject": {
        "reference": "urn:uuid:c98ac1e1-79c9-45a3-a376-c40138c3c099"
      },
      "occurrencePeriod": {
        "start": "2022-04-07T07:52:15+00:00",
        "end": "2022-04-07T08:52:15+00:00"
      },
      "reasonReference": [ {
        "reference": "urn:uuid:d440daa1-d539-4398-b930-25d80b741f79"
      } ]
    }
  }, {
    "fullUrl": "urn:uuid:1bc9ca05-7845-40f0-a779-ea857b7e07a9",
    "resource": {
      "resourceType": "Composition",
      "id": "1bc9ca05-7845-40f0-a779-ea857b7e07a9",
      "identifier": {
        "use": "usual",
        "value": "E2DF04F7-95CA-40AD-808D-797C0A89E39C"
      },
      "status": "final",
      "type": {
        "coding": [ {
          "system": "http://snomed.info/sct",
          "code": "371531000",
          "display": "Report of clinical encounter (record artifact)"
        } ]
      },
      "subject": {
        "reference": "urn:uuid:c98ac1e1-79c9-45a3-a376-c40138c3c099"
      },
      "encounter": {
        "reference": "urn:uuid:88131768-8b3f-4762-bfe6-c40526e43c88"
      },
      "date": "2022-04-07T07:52:15+00:00",
      "author": [ {
        "reference": "urn:uuid:0e4c073a-6537-4896-a408-ef023047dcc9"
      } ],
      "title": "111 Report",
      "confidentiality": "N",
      "section": [ {
        "section": [ {
          "title": "ComponentTitle - Patient's Reported Condition",
          "text": {
            "status": "generated",
            "div": "<div xmlns=\"http://www.w3.org/1999/xhtml\">&lt;content&gt;ComponentText - Pharmacy ITK Testing&lt;/content&gt;\n                                                    &lt;br/&gt;</div>"
          }
        }, {
          "title": "ComponentTitle - Pathways Disposition",
          "text": {
            "status": "generated",
            "div": "<div xmlns=\"http://www.w3.org/1999/xhtml\">ComponentText - Repeat Prescription required within 24 hours (Dx87)                                         &lt;br/&gt;\n                                                    &lt;br/&gt;                                         Selected service: Springvale, Fraser Road, Kings Worthy, Winchester&lt;br/&gt;</div>"
          }
        }, {
          "title": "ComponentTitle - Consultation Summary",
          "text": {
            "status": "generated",
            "div": "<div xmlns=\"http://www.w3.org/1999/xhtml\">ComponentText - Prescription request&lt;br/&gt;Not enough medication until surgery opens&lt;br/&gt;No medication available&lt;br/&gt;Next dose due in over 12 hours time&lt;br/&gt;</div>"
          }
        }, {
          "title": "ComponentTitle - Pathways Assessment",
          "text": {
            "status": "generated",
            "div": "<div xmlns=\"http://www.w3.org/1999/xhtml\">ComponentText - Reason for call menu - continued to next list.&lt;br/&gt;A prescription request was the main reason for the contact.&lt;br/&gt;The main reason for the contact was not a new or worsening illness.&lt;br/&gt;The individual did not have enough medication to last until the surgery next opened.&lt;br/&gt;The medication was suitable for repeat prescribing without further consultation.&lt;br/&gt;The individual had no medication available.&lt;br/&gt;The next dose was due in over 12 hours time.&lt;br/&gt;Instructions given were: The individual needs a repeat prescription.&lt;br/&gt;Directory of Services referral: Springvale, Fraser Road, Kings Worthy, Winchester&lt;br/&gt;</div>"
          }
        }, {
          "title": "ComponentTitle - Advice Given",
          "text": {
            "status": "generated",
            "div": "<div xmlns=\"http://www.w3.org/1999/xhtml\">ComponentText - I will arrange for a clinician or pharmacist to speak to the individual.&lt;br/&gt;IF THE RECOMMENDED TIMEFRAME FALLS OUTSIDE OPENING HOURS: I will arrange for a clinician to speak to the individual.&lt;br/&gt;\n                                                    &lt;br/&gt;</div>"
          }
        }, {
          "title": "ComponentTitle - Information And Advice Given"
        }, {
          "title": "ComponentTitle - Disposition",
          "text": {
            "status": "generated",
            "div": "<div xmlns=\"http://www.w3.org/1999/xhtml\">&lt;content&gt;ComponentText - Repeat Prescription required within 24 hours&lt;br/&gt;\n                                                    &lt;/content&gt;\n                                                    &lt;br/&gt;\n                                                    &lt;br/&gt;</div>"
          }
        } ]
      }, {
        "title": "CarePlan",
        "entry": [ {
          "reference": "urn:uuid:d1a54342-2bf9-41bb-9958-afbd3b612544"
        } ]
      }, {
        "title": "ReferralRequest",
        "entry": [ {
          "reference": "urn:uuid:e6817567-33d3-4f32-8039-dd137224cc9a"
        } ]
      }, {
        "title": "QuestionnaireResponse",
        "entry": [ {
          "reference": "urn:uuid:59eecd20-7724-4400-9be4-942ca070507b"
        } ]
      }, {
        "title": "QuestionnaireResponse",
        "entry": [ {
          "reference": "urn:uuid:8811b555-b83c-4c41-8584-99cf1014e8ce"
        } ]
      }, {
        "title": "QuestionnaireResponse",
        "entry": [ {
          "reference": "urn:uuid:0b8f65f3-c2c2-408f-9bab-900d66523af0"
        } ]
      }, {
        "title": "QuestionnaireResponse",
        "entry": [ {
          "reference": "urn:uuid:553e673c-eb23-41ac-915a-3bc34707b58d"
        } ]
      }, {
        "title": "QuestionnaireResponse",
        "entry": [ {
          "reference": "urn:uuid:8d107ee8-b882-405b-a34e-b4604dfb505c"
        } ]
      }, {
        "title": "QuestionnaireResponse",
        "entry": [ {
          "reference": "urn:uuid:d7193b23-1faa-4a45-b2fa-005d604d6639"
        } ]
      }, {
        "title": "QuestionnaireResponse",
        "entry": [ {
          "reference": "urn:uuid:cd6c4124-e790-4e00-a6cf-bed95fd3381a"
        } ]
      }, {
        "title": "QuestionnaireResponse",
        "entry": [ {
          "reference": "urn:uuid:2a29f8d8-179d-43b0-9229-f7c23519ef6f"
        } ]
      }, {
        "title": "QuestionnaireResponse",
        "entry": [ {
          "reference": "urn:uuid:9491c5e1-c280-4edb-8e3a-7559051eafec"
        } ]
      }, {
        "title": "QuestionnaireResponse",
        "entry": [ {
          "reference": "urn:uuid:b748c564-17fd-46e0-a4b5-9af11e1c6dc1"
        } ]
      }, {
        "title": "QuestionnaireResponse",
        "entry": [ {
          "reference": "urn:uuid:2e608c18-3c71-4e78-9280-958796d7cea7"
        } ]
      }, {
        "title": "QuestionnaireResponse",
        "entry": [ {
          "reference": "urn:uuid:4acf96a1-fe4a-44e4-bd20-0757d3c858d3"
        } ]
      }, {
        "title": "QuestionnaireResponse",
        "entry": [ {
          "reference": "urn:uuid:fafd4f2d-56b4-4b82-920b-17080f8a9109"
        } ]
      }, {
        "title": "QuestionnaireResponse",
        "entry": [ {
          "reference": "urn:uuid:643b689b-fcf8-4a58-82b1-5130c30c7170"
        } ]
      }, {
        "title": "QuestionnaireResponse",
        "entry": [ {
          "reference": "urn:uuid:83a223da-ad25-4a15-bf28-3e18da0169ec"
        } ]
      } ]
    }
  }, {
    "fullUrl": "urn:uuid:d1a54342-2bf9-41bb-9958-afbd3b612544",
    "resource": {
      "resourceType": "CarePlan",
      "id": "d1a54342-2bf9-41bb-9958-afbd3b612544",
      "status": "completed",
      "intent": "plan",
      "title": "ComponentTitle - Information And Advice Given",
      "subject": {
        "reference": "urn:uuid:c98ac1e1-79c9-45a3-a376-c40138c3c099"
      },
      "context": {
        "reference": "urn:uuid:88131768-8b3f-4762-bfe6-c40526e43c88"
      },
      "period": {
        "start": "2021-04-06T15:19:34+00:00"
      },
      "addresses": [ {
        "reference": "urn:uuid:d440daa1-d539-4398-b930-25d80b741f79"
      } ]
    }
  }, {
    "fullUrl": "urn:uuid:d8e81dda-56d5-4299-a69b-71d170d25597",
    "resource": {
      "resourceType": "Consent",
      "id": "d8e81dda-56d5-4299-a69b-71d170d25597",
      "identifier": {
        "use": "usual",
        "value": "E2DF04F7-95CA-40AD-808D-797C0A89E39C"
      },
      "status": "active",
      "patient": {
        "reference": "urn:uuid:c98ac1e1-79c9-45a3-a376-c40138c3c099"
      },
      "period": {
        "start": "2021-04-06T15:19:34+00:00"
      },
      "consentingParty": [ {
        "reference": "urn:uuid:c98ac1e1-79c9-45a3-a376-c40138c3c099"
      } ],
      "action": [ {
        "coding": [ {
          "system": "http://snomed.info/sct",
          "code": "425691002",
          "display": "Consent given for electronic record sharing"
        } ],
        "text": "Consent given for electronic record sharing"
      } ],
      "organization": [ {
        "reference": "urn:uuid:8ddbaa8b-d840-4428-ab8f-8883a92b9e2d"
      } ],
      "policyRule": "http://hl7.org/fhir/ConsentPolicy/opt-out",
      "data": [ {
        "meaning": "related",
        "reference": {
          "reference": "urn:uuid:88131768-8b3f-4762-bfe6-c40526e43c88"
        }
      } ]
    }
  }, {
    "fullUrl": "urn:uuid:d440daa1-d539-4398-b930-25d80b741f79",
    "resource": {
      "resourceType": "Condition",
      "id": "d440daa1-d539-4398-b930-25d80b741f79",
      "clinicalStatus": "active",
      "verificationStatus": "unknown",
      "subject": {
        "reference": "urn:uuid:c98ac1e1-79c9-45a3-a376-c40138c3c099"
      },
      "context": {
        "reference": "urn:uuid:88131768-8b3f-4762-bfe6-c40526e43c88"
      },
      "evidence": [ {
        "detail": [ {
          "reference": "urn:uuid:59eecd20-7724-4400-9be4-942ca070507b"
        } ]
      }, {
        "detail": [ {
          "reference": "urn:uuid:8811b555-b83c-4c41-8584-99cf1014e8ce"
        } ]
      }, {
        "detail": [ {
          "reference": "urn:uuid:0b8f65f3-c2c2-408f-9bab-900d66523af0"
        } ]
      }, {
        "detail": [ {
          "reference": "urn:uuid:553e673c-eb23-41ac-915a-3bc34707b58d"
        } ]
      }, {
        "detail": [ {
          "reference": "urn:uuid:8d107ee8-b882-405b-a34e-b4604dfb505c"
        } ]
      }, {
        "detail": [ {
          "reference": "urn:uuid:d7193b23-1faa-4a45-b2fa-005d604d6639"
        } ]
      }, {
        "detail": [ {
          "reference": "urn:uuid:cd6c4124-e790-4e00-a6cf-bed95fd3381a"
        } ]
      }, {
        "detail": [ {
          "reference": "urn:uuid:2a29f8d8-179d-43b0-9229-f7c23519ef6f"
        } ]
      }, {
        "detail": [ {
          "reference": "urn:uuid:9491c5e1-c280-4edb-8e3a-7559051eafec"
        } ]
      }, {
        "detail": [ {
          "reference": "urn:uuid:b748c564-17fd-46e0-a4b5-9af11e1c6dc1"
        } ]
      }, {
        "detail": [ {
          "reference": "urn:uuid:2e608c18-3c71-4e78-9280-958796d7cea7"
        } ]
      }, {
        "detail": [ {
          "reference": "urn:uuid:4acf96a1-fe4a-44e4-bd20-0757d3c858d3"
        } ]
      }, {
        "detail": [ {
          "reference": "urn:uuid:fafd4f2d-56b4-4b82-920b-17080f8a9109"
        } ]
      }, {
        "detail": [ {
          "reference": "urn:uuid:643b689b-fcf8-4a58-82b1-5130c30c7170"
        } ]
      }, {
        "detail": [ {
          "reference": "urn:uuid:83a223da-ad25-4a15-bf28-3e18da0169ec"
        } ]
      } ]
    }
  }, {
    "fullUrl": "urn:uuid:59eecd20-7724-4400-9be4-942ca070507b",
    "resource": {
      "resourceType": "QuestionnaireResponse",
      "id": "59eecd20-7724-4400-9be4-942ca070507b",
      "identifier": {
        "value": "60319"
      },
      "questionnaire": {
        "reference": "urn:uuid:718d3d62-d778-4e09-9ca3-af6e2b51df4c"
      },
      "status": "completed",
      "subject": {
        "reference": "urn:uuid:c98ac1e1-79c9-45a3-a376-c40138c3c099"
      },
      "context": {
        "reference": "urn:uuid:88131768-8b3f-4762-bfe6-c40526e43c88"
      },
      "authored": "2021-04-06T15:19:34+00:00",
      "item": [ {
        "linkId": "Tx220109",
        "text": "What is the reason for the contact?",
        "answer": [ {
          "valueString": "more"
        } ]
      } ]
    }
  }, {
    "fullUrl": "urn:uuid:718d3d62-d778-4e09-9ca3-af6e2b51df4c",
    "resource": {
      "resourceType": "Questionnaire",
      "id": "718d3d62-d778-4e09-9ca3-af6e2b51df4c",
      "identifier": [ {
        "value": "60319"
      } ],
      "version": "2021-04-06T15:19:34.083Z",
      "status": "active",
      "experimental": false,
      "date": "2021-04-06T15:19:34+00:00",
      "publisher": "User ID: 'HADFIELDR' User name: 'Ryan Hadfield' User skill set: 'T3'",
      "lastReviewDate": "2021-04-06",
      "contact": [ {
        "telecom": [ {
          "system": "phone",
          "value": "0111 111 1111"
        } ]
      } ],
      "subjectType": [ "Patient" ],
      "item": [ {
        "linkId": "60319",
        "prefix": "5",
        "text": "What is the reason for the contact?",
        "type": "choice",
        "required": true,
        "repeats": false,
        "option": [ {
          "valueString": "an injury or other health problem, Selected: false"
        }, {
          "valueString": "a need to access another healthcare service, Selected: false"
        }, {
          "valueString": "a healthcare professional requesting contact with another clinician, Selected: false"
        }, {
          "valueString": "a report of results or tests, Selected: false"
        }, {
          "valueString": "more, Selected: true"
        } ]
      } ]
    }
  }, {
    "fullUrl": "urn:uuid:8811b555-b83c-4c41-8584-99cf1014e8ce",
    "resource": {
      "resourceType": "QuestionnaireResponse",
      "id": "8811b555-b83c-4c41-8584-99cf1014e8ce",
      "identifier": {
        "value": "60319"
      },
      "questionnaire": {
        "reference": "urn:uuid:c21fd3d6-2519-4e0b-9b93-3762141b5306"
      },
      "status": "completed",
      "subject": {
        "reference": "urn:uuid:c98ac1e1-79c9-45a3-a376-c40138c3c099"
      },
      "context": {
        "reference": "urn:uuid:88131768-8b3f-4762-bfe6-c40526e43c88"
      },
      "authored": "2021-04-06T15:19:34+00:00",
      "item": [ {
        "linkId": "Tx221793",
        "text": "STRING:to'Social&information'-further'Callreason'menu",
        "answer": [ {
          "valueString": "\"present\""
        } ]
      } ]
    }
  }, {
    "fullUrl": "urn:uuid:c21fd3d6-2519-4e0b-9b93-3762141b5306",
    "resource": {
      "resourceType": "Questionnaire",
      "id": "c21fd3d6-2519-4e0b-9b93-3762141b5306",
      "identifier": [ {
        "value": "60319"
      } ],
      "version": "2021-04-06T15:19:34.083Z",
      "status": "active",
      "experimental": false,
      "date": "2021-04-06T15:19:34+00:00",
      "publisher": "User ID: 'HADFIELDR' User name: 'Ryan Hadfield' User skill set: 'T3'",
      "lastReviewDate": "2021-04-06",
      "contact": [ {
        "telecom": [ {
          "system": "phone",
          "value": "0111 111 1111"
        } ]
      } ],
      "subjectType": [ "Patient" ],
      "item": [ {
        "linkId": "60319",
        "prefix": "600",
        "text": "STRING:to'Social&information'-further'Callreason'menu",
        "type": "choice",
        "required": true,
        "repeats": false,
        "option": [ {
          "valueString": "\"present\", Selected: true"
        } ]
      } ]
    }
  }, {
    "fullUrl": "urn:uuid:0b8f65f3-c2c2-408f-9bab-900d66523af0",
    "resource": {
      "resourceType": "QuestionnaireResponse",
      "id": "0b8f65f3-c2c2-408f-9bab-900d66523af0",
      "identifier": {
        "value": "60319"
      },
      "questionnaire": {
        "reference": "urn:uuid:77aee948-06b7-463f-a578-c05ed8da67ec"
      },
      "status": "completed",
      "subject": {
        "reference": "urn:uuid:c98ac1e1-79c9-45a3-a376-c40138c3c099"
      },
      "context": {
        "reference": "urn:uuid:88131768-8b3f-4762-bfe6-c40526e43c88"
      },
      "authored": "2021-04-06T15:19:34+00:00"
    }
  }, {
    "fullUrl": "urn:uuid:77aee948-06b7-463f-a578-c05ed8da67ec",
    "resource": {
      "resourceType": "Questionnaire",
      "id": "77aee948-06b7-463f-a578-c05ed8da67ec",
      "identifier": [ {
        "value": "60319"
      } ],
      "version": "2021-04-06T15:19:34.083Z",
      "status": "active",
      "experimental": false,
      "date": "2021-04-06T15:19:34+00:00",
      "publisher": "User ID: 'HADFIELDR' User name: 'Ryan Hadfield' User skill set: 'T3'",
      "lastReviewDate": "2021-04-06",
      "contact": [ {
        "telecom": [ {
          "system": "phone",
          "value": "0111 111 1111"
        } ]
      } ],
      "subjectType": [ "Patient" ]
    }
  }, {
    "fullUrl": "urn:uuid:553e673c-eb23-41ac-915a-3bc34707b58d",
    "resource": {
      "resourceType": "QuestionnaireResponse",
      "id": "553e673c-eb23-41ac-915a-3bc34707b58d",
      "identifier": {
        "value": "60319"
      },
      "questionnaire": {
        "reference": "urn:uuid:30498cef-6bba-4142-8cac-cab901f98d40"
      },
      "status": "completed",
      "subject": {
        "reference": "urn:uuid:c98ac1e1-79c9-45a3-a376-c40138c3c099"
      },
      "context": {
        "reference": "urn:uuid:88131768-8b3f-4762-bfe6-c40526e43c88"
      },
      "authored": "2021-04-06T15:19:34+00:00",
      "item": [ {
        "linkId": "Tx221804",
        "text": "STRING:transfertofurthermenuquestionestablishedinEntryFlow",
        "answer": [ {
          "valueString": "\"present\""
        } ]
      } ]
    }
  }, {
    "fullUrl": "urn:uuid:30498cef-6bba-4142-8cac-cab901f98d40",
    "resource": {
      "resourceType": "Questionnaire",
      "id": "30498cef-6bba-4142-8cac-cab901f98d40",
      "identifier": [ {
        "value": "60319"
      } ],
      "version": "2021-04-06T15:19:34.083Z",
      "status": "active",
      "experimental": false,
      "date": "2021-04-06T15:19:34+00:00",
      "publisher": "User ID: 'HADFIELDR' User name: 'Ryan Hadfield' User skill set: 'T3'",
      "lastReviewDate": "2021-04-06",
      "contact": [ {
        "telecom": [ {
          "system": "phone",
          "value": "0111 111 1111"
        } ]
      } ],
      "subjectType": [ "Patient" ],
      "item": [ {
        "linkId": "60319",
        "prefix": "41",
        "text": "STRING:transfertofurthermenuquestionestablishedinEntryFlow",
        "type": "choice",
        "required": true,
        "repeats": false,
        "option": [ {
          "valueString": "\"present\", Selected: true"
        } ]
      } ]
    }
  }, {
    "fullUrl": "urn:uuid:8d107ee8-b882-405b-a34e-b4604dfb505c",
    "resource": {
      "resourceType": "QuestionnaireResponse",
      "id": "8d107ee8-b882-405b-a34e-b4604dfb505c",
      "identifier": {
        "value": "60319"
      },
      "questionnaire": {
        "reference": "urn:uuid:6e95732f-e926-4ffd-b840-a884ecd11f14"
      },
      "status": "completed",
      "subject": {
        "reference": "urn:uuid:c98ac1e1-79c9-45a3-a376-c40138c3c099"
      },
      "context": {
        "reference": "urn:uuid:88131768-8b3f-4762-bfe6-c40526e43c88"
      },
      "authored": "2021-04-06T15:19:34+00:00",
      "item": [ {
        "linkId": "Tx224998",
        "text": "SYSTEM_COVIDLEVEL2",
        "answer": [ {
          "valueString": "==\"covidlevel2\""
        } ]
      } ]
    }
  }, {
    "fullUrl": "urn:uuid:6e95732f-e926-4ffd-b840-a884ecd11f14",
    "resource": {
      "resourceType": "Questionnaire",
      "id": "6e95732f-e926-4ffd-b840-a884ecd11f14",
      "identifier": [ {
        "value": "60319"
      } ],
      "version": "2021-04-06T15:19:34.083Z",
      "status": "active",
      "experimental": false,
      "date": "2021-04-06T15:19:34+00:00",
      "publisher": "User ID: 'HADFIELDR' User name: 'Ryan Hadfield' User skill set: 'T3'",
      "lastReviewDate": "2021-04-06",
      "contact": [ {
        "telecom": [ {
          "system": "phone",
          "value": "0111 111 1111"
        } ]
      } ],
      "subjectType": [ "Patient" ],
      "item": [ {
        "linkId": "60319",
        "prefix": "5900",
        "text": "SYSTEM_COVIDLEVEL2",
        "type": "choice",
        "required": true,
        "repeats": false,
        "option": [ {
          "valueString": "==\"covidlevel2\", Selected: true"
        }, {
          "valueString": "*, Selected: false"
        } ]
      } ]
    }
  }, {
    "fullUrl": "urn:uuid:d7193b23-1faa-4a45-b2fa-005d604d6639",
    "resource": {
      "resourceType": "QuestionnaireResponse",
      "id": "d7193b23-1faa-4a45-b2fa-005d604d6639",
      "identifier": {
        "value": "60319"
      },
      "questionnaire": {
        "reference": "urn:uuid:e63c54ab-ff7e-4472-94c4-f535f663e675"
      },
      "status": "completed",
      "subject": {
        "reference": "urn:uuid:c98ac1e1-79c9-45a3-a376-c40138c3c099"
      },
      "context": {
        "reference": "urn:uuid:88131768-8b3f-4762-bfe6-c40526e43c88"
      },
      "authored": "2021-04-06T15:19:34+00:00",
      "item": [ {
        "linkId": "Tx225069",
        "text": "What is the reason for the contact?",
        "answer": [ {
          "valueString": "a prescription request"
        } ]
      } ]
    }
  }, {
    "fullUrl": "urn:uuid:e63c54ab-ff7e-4472-94c4-f535f663e675",
    "resource": {
      "resourceType": "Questionnaire",
      "id": "e63c54ab-ff7e-4472-94c4-f535f663e675",
      "identifier": [ {
        "value": "60319"
      } ],
      "version": "2021-04-06T15:19:34.083Z",
      "status": "active",
      "experimental": false,
      "date": "2021-04-06T15:19:34+00:00",
      "publisher": "User ID: 'HADFIELDR' User name: 'Ryan Hadfield' User skill set: 'T3'",
      "lastReviewDate": "2021-04-06",
      "contact": [ {
        "telecom": [ {
          "system": "phone",
          "value": "0111 111 1111"
        } ]
      } ],
      "subjectType": [ "Patient" ],
      "item": [ {
        "linkId": "60319",
        "prefix": "6000",
        "text": "What is the reason for the contact?",
        "type": "choice",
        "required": true,
        "repeats": false,
        "option": [ {
          "valueString": "a child protection/vulnerable adult concern (specify), Selected: false"
        }, {
          "valueString": "a social or domestic emergency, Selected: false"
        }, {
          "valueString": "a prescription request, Selected: true"
        }, {
          "valueString": "an appointment request, Selected: false"
        }, {
          "valueString": "a request for health or medication information, Selected: false"
        }, {
          "valueString": "public health alert information, Selected: false"
        } ]
      } ]
    }
  }, {
    "fullUrl": "urn:uuid:cd6c4124-e790-4e00-a6cf-bed95fd3381a",
    "resource": {
      "resourceType": "QuestionnaireResponse",
      "id": "cd6c4124-e790-4e00-a6cf-bed95fd3381a",
      "identifier": {
        "value": "60319"
      },
      "questionnaire": {
        "reference": "urn:uuid:768206b0-631f-4c3c-8a28-89b94817516b"
      },
      "status": "completed",
      "subject": {
        "reference": "urn:uuid:c98ac1e1-79c9-45a3-a376-c40138c3c099"
      },
      "context": {
        "reference": "urn:uuid:88131768-8b3f-4762-bfe6-c40526e43c88"
      },
      "authored": "2021-04-06T15:19:34+00:00",
      "item": [ {
        "linkId": "Tx220957",
        "text": "Is this contact about a new or worsening illness?",
        "answer": [ {
          "valueString": "no"
        } ]
      } ]
    }
  }, {
    "fullUrl": "urn:uuid:768206b0-631f-4c3c-8a28-89b94817516b",
    "resource": {
      "resourceType": "Questionnaire",
      "id": "768206b0-631f-4c3c-8a28-89b94817516b",
      "identifier": [ {
        "value": "60319"
      } ],
      "version": "2021-04-06T15:19:34.083Z",
      "status": "active",
      "experimental": false,
      "date": "2021-04-06T15:19:34+00:00",
      "publisher": "User ID: 'HADFIELDR' User name: 'Ryan Hadfield' User skill set: 'T3'",
      "lastReviewDate": "2021-04-06",
      "contact": [ {
        "telecom": [ {
          "system": "phone",
          "value": "0111 111 1111"
        } ]
      } ],
      "subjectType": [ "Patient" ],
      "item": [ {
        "linkId": "60319",
        "prefix": "1400",
        "text": "Is this contact about a new or worsening illness?",
        "type": "choice",
        "required": true,
        "repeats": false,
        "option": [ {
          "valueString": "yes, Selected: false"
        }, {
          "valueString": "not sure, Selected: false"
        }, {
          "valueString": "no, Selected: true"
        } ]
      } ]
    }
  }, {
    "fullUrl": "urn:uuid:2a29f8d8-179d-43b0-9229-f7c23519ef6f",
    "resource": {
      "resourceType": "QuestionnaireResponse",
      "id": "2a29f8d8-179d-43b0-9229-f7c23519ef6f",
      "identifier": {
        "value": "60319"
      },
      "questionnaire": {
        "reference": "urn:uuid:f77e18e7-f152-4439-83ed-731c88172a8d"
      },
      "status": "completed",
      "subject": {
        "reference": "urn:uuid:c98ac1e1-79c9-45a3-a376-c40138c3c099"
      },
      "context": {
        "reference": "urn:uuid:88131768-8b3f-4762-bfe6-c40526e43c88"
      },
      "authored": "2021-04-06T15:19:34+00:00",
      "item": [ {
        "linkId": "Tx221352",
        "text": "Have you got enough medication to last until the surgery opens?",
        "answer": [ {
          "valueString": "no"
        } ]
      } ]
    }
  }, {
    "fullUrl": "urn:uuid:f77e18e7-f152-4439-83ed-731c88172a8d",
    "resource": {
      "resourceType": "Questionnaire",
      "id": "f77e18e7-f152-4439-83ed-731c88172a8d",
      "identifier": [ {
        "value": "60319"
      } ],
      "version": "2021-04-06T15:19:34.083Z",
      "status": "active",
      "experimental": false,
      "date": "2021-04-06T15:19:34+00:00",
      "publisher": "User ID: 'HADFIELDR' User name: 'Ryan Hadfield' User skill set: 'T3'",
      "lastReviewDate": "2021-04-06",
      "contact": [ {
        "telecom": [ {
          "system": "phone",
          "value": "0111 111 1111"
        } ]
      } ],
      "subjectType": [ "Patient" ],
      "item": [ {
        "linkId": "60319",
        "prefix": "1500",
        "text": "Have you got enough medication to last until the surgery opens?",
        "type": "choice",
        "required": true,
        "repeats": false,
        "option": [ {
          "valueString": "yes, Selected: false"
        }, {
          "valueString": "not sure, Selected: false"
        }, {
          "valueString": "no, Selected: true"
        } ]
      } ]
    }
  }, {
    "fullUrl": "urn:uuid:9491c5e1-c280-4edb-8e3a-7559051eafec",
    "resource": {
      "resourceType": "QuestionnaireResponse",
      "id": "9491c5e1-c280-4edb-8e3a-7559051eafec",
      "identifier": {
        "value": "60319"
      },
      "questionnaire": {
        "reference": "urn:uuid:648c17f1-6d11-476c-875b-d40e7a694b98"
      },
      "status": "completed",
      "subject": {
        "reference": "urn:uuid:c98ac1e1-79c9-45a3-a376-c40138c3c099"
      },
      "context": {
        "reference": "urn:uuid:88131768-8b3f-4762-bfe6-c40526e43c88"
      },
      "authored": "2021-04-06T15:19:34+00:00"
    }
  }, {
    "fullUrl": "urn:uuid:648c17f1-6d11-476c-875b-d40e7a694b98",
    "resource": {
      "resourceType": "Questionnaire",
      "id": "648c17f1-6d11-476c-875b-d40e7a694b98",
      "identifier": [ {
        "value": "60319"
      } ],
      "version": "2021-04-06T15:19:34.083Z",
      "status": "active",
      "experimental": false,
      "date": "2021-04-06T15:19:34+00:00",
      "publisher": "User ID: 'HADFIELDR' User name: 'Ryan Hadfield' User skill set: 'T3'",
      "lastReviewDate": "2021-04-06",
      "contact": [ {
        "telecom": [ {
          "system": "phone",
          "value": "0111 111 1111"
        } ]
      } ],
      "subjectType": [ "Patient" ]
    }
  }, {
    "fullUrl": "urn:uuid:b748c564-17fd-46e0-a4b5-9af11e1c6dc1",
    "resource": {
      "resourceType": "QuestionnaireResponse",
      "id": "b748c564-17fd-46e0-a4b5-9af11e1c6dc1",
      "identifier": {
        "value": "60319"
      },
      "questionnaire": {
        "reference": "urn:uuid:cc6c72ba-909f-451e-a498-2bef2b534a06"
      },
      "status": "completed",
      "subject": {
        "reference": "urn:uuid:c98ac1e1-79c9-45a3-a376-c40138c3c099"
      },
      "context": {
        "reference": "urn:uuid:88131768-8b3f-4762-bfe6-c40526e43c88"
      },
      "authored": "2021-04-06T15:19:34+00:00",
      "item": [ {
        "linkId": "Tx224231",
        "text": "FROM WHAT YOU HAVE HEARD IS A CONSULTATION WITH A PRESCRIBER NEEDED?",
        "answer": [ {
          "valueString": "no"
        } ]
      } ]
    }
  }, {
    "fullUrl": "urn:uuid:cc6c72ba-909f-451e-a498-2bef2b534a06",
    "resource": {
      "resourceType": "Questionnaire",
      "id": "cc6c72ba-909f-451e-a498-2bef2b534a06",
      "identifier": [ {
        "value": "60319"
      } ],
      "version": "2021-04-06T15:19:34.083Z",
      "status": "active",
      "experimental": false,
      "date": "2021-04-06T15:19:34+00:00",
      "publisher": "User ID: 'HADFIELDR' User name: 'Ryan Hadfield' User skill set: 'T3'",
      "lastReviewDate": "2021-04-06",
      "contact": [ {
        "telecom": [ {
          "system": "phone",
          "value": "0111 111 1111"
        } ]
      } ],
      "subjectType": [ "Patient" ],
      "item": [ {
        "linkId": "60319",
        "prefix": "0",
        "text": "FROM WHAT YOU HAVE HEARD IS A CONSULTATION WITH A PRESCRIBER NEEDED?",
        "type": "choice",
        "required": true,
        "repeats": false,
        "option": [ {
          "valueString": "yes, Selected: false"
        }, {
          "valueString": "not sure, Selected: false"
        }, {
          "valueString": "no, Selected: true"
        } ]
      } ]
    }
  }, {
    "fullUrl": "urn:uuid:2e608c18-3c71-4e78-9280-958796d7cea7",
    "resource": {
      "resourceType": "QuestionnaireResponse",
      "id": "2e608c18-3c71-4e78-9280-958796d7cea7",
      "identifier": {
        "value": "60319"
      },
      "questionnaire": {
        "reference": "urn:uuid:dd68da21-75d4-41f1-bbdc-1babdf6ff46e"
      },
      "status": "completed",
      "subject": {
        "reference": "urn:uuid:c98ac1e1-79c9-45a3-a376-c40138c3c099"
      },
      "context": {
        "reference": "urn:uuid:88131768-8b3f-4762-bfe6-c40526e43c88"
      },
      "authored": "2021-04-06T15:19:34+00:00",
      "item": [ {
        "linkId": "Tx222687",
        "text": "Have you got any of the medication available at the moment?",
        "answer": [ {
          "valueString": "no"
        } ]
      } ]
    }
  }, {
    "fullUrl": "urn:uuid:dd68da21-75d4-41f1-bbdc-1babdf6ff46e",
    "resource": {
      "resourceType": "Questionnaire",
      "id": "dd68da21-75d4-41f1-bbdc-1babdf6ff46e",
      "identifier": [ {
        "value": "60319"
      } ],
      "version": "2021-04-06T15:19:34.083Z",
      "status": "active",
      "experimental": false,
      "date": "2021-04-06T15:19:34+00:00",
      "publisher": "User ID: 'HADFIELDR' User name: 'Ryan Hadfield' User skill set: 'T3'",
      "lastReviewDate": "2021-04-06",
      "contact": [ {
        "telecom": [ {
          "system": "phone",
          "value": "0111 111 1111"
        } ]
      } ],
      "subjectType": [ "Patient" ],
      "item": [ {
        "linkId": "60319",
        "prefix": "200",
        "text": "Have you got any of the medication available at the moment?",
        "type": "choice",
        "required": true,
        "repeats": false,
        "option": [ {
          "valueString": "yes, Selected: false"
        }, {
          "valueString": "not sure, Selected: false"
        }, {
          "valueString": "no, Selected: true"
        } ]
      } ]
    }
  }, {
    "fullUrl": "urn:uuid:4acf96a1-fe4a-44e4-bd20-0757d3c858d3",
    "resource": {
      "resourceType": "QuestionnaireResponse",
      "id": "4acf96a1-fe4a-44e4-bd20-0757d3c858d3",
      "identifier": {
        "value": "60319"
      },
      "questionnaire": {
        "reference": "urn:uuid:7a52efd1-e110-483e-a732-a4e0d5202775"
      },
      "status": "completed",
      "subject": {
        "reference": "urn:uuid:c98ac1e1-79c9-45a3-a376-c40138c3c099"
      },
      "context": {
        "reference": "urn:uuid:88131768-8b3f-4762-bfe6-c40526e43c88"
      },
      "authored": "2021-04-06T15:19:34+00:00",
      "item": [ {
        "linkId": "Tx221367",
        "text": "When is the next dose due?",
        "answer": [ {
          "valueString": "over 12 hours time"
        } ]
      } ]
    }
  }, {
    "fullUrl": "urn:uuid:7a52efd1-e110-483e-a732-a4e0d5202775",
    "resource": {
      "resourceType": "Questionnaire",
      "id": "7a52efd1-e110-483e-a732-a4e0d5202775",
      "identifier": [ {
        "value": "60319"
      } ],
      "version": "2021-04-06T15:19:34.083Z",
      "status": "active",
      "experimental": false,
      "date": "2021-04-06T15:19:34+00:00",
      "publisher": "User ID: 'HADFIELDR' User name: 'Ryan Hadfield' User skill set: 'T3'",
      "lastReviewDate": "2021-04-06",
      "contact": [ {
        "telecom": [ {
          "system": "phone",
          "value": "0111 111 1111"
        } ]
      } ],
      "subjectType": [ "Patient" ],
      "item": [ {
        "linkId": "60319",
        "prefix": "100",
        "text": "When is the next dose due?",
        "type": "choice",
        "required": true,
        "repeats": false,
        "option": [ {
          "valueString": "within the next 2 hours, Selected: false"
        }, {
          "valueString": "within the next 6 hours, Selected: false"
        }, {
          "valueString": "within the next 12 hours, Selected: false"
        }, {
          "valueString": "over 12 hours time, Selected: true"
        }, {
          "valueString": "not sure, Selected: false"
        } ]
      } ]
    }
  }, {
    "fullUrl": "urn:uuid:fafd4f2d-56b4-4b82-920b-17080f8a9109",
    "resource": {
      "resourceType": "QuestionnaireResponse",
      "id": "fafd4f2d-56b4-4b82-920b-17080f8a9109",
      "identifier": {
        "value": "60319"
      },
      "questionnaire": {
        "reference": "urn:uuid:6fdd803c-a8d7-4305-9286-4c62c9b6c383"
      },
      "status": "completed",
      "subject": {
        "reference": "urn:uuid:c98ac1e1-79c9-45a3-a376-c40138c3c099"
      },
      "context": {
        "reference": "urn:uuid:88131768-8b3f-4762-bfe6-c40526e43c88"
      },
      "authored": "2021-04-06T15:19:34+00:00",
      "item": [ {
        "linkId": "Tx223441",
        "text": "STRING:SDPCRepeatPrescription",
        "answer": [ {
          "valueString": "\"PC repeat prescription\""
        } ]
      } ]
    }
  }, {
    "fullUrl": "urn:uuid:6fdd803c-a8d7-4305-9286-4c62c9b6c383",
    "resource": {
      "resourceType": "Questionnaire",
      "id": "6fdd803c-a8d7-4305-9286-4c62c9b6c383",
      "identifier": [ {
        "value": "60319"
      } ],
      "version": "2021-04-06T15:19:34.083Z",
      "status": "active",
      "experimental": false,
      "date": "2021-04-06T15:19:34+00:00",
      "publisher": "User ID: 'HADFIELDR' User name: 'Ryan Hadfield' User skill set: 'T3'",
      "lastReviewDate": "2021-04-06",
      "contact": [ {
        "telecom": [ {
          "system": "phone",
          "value": "0111 111 1111"
        } ]
      } ],
      "subjectType": [ "Patient" ],
      "item": [ {
        "linkId": "60319",
        "prefix": "1100",
        "text": "STRING:SDPCRepeatPrescription",
        "type": "choice",
        "required": true,
        "repeats": false,
        "option": [ {
          "valueString": "\"PC repeat prescription\", Selected: true"
        } ]
      } ]
    }
  }, {
    "fullUrl": "urn:uuid:643b689b-fcf8-4a58-82b1-5130c30c7170",
    "resource": {
      "resourceType": "QuestionnaireResponse",
      "id": "643b689b-fcf8-4a58-82b1-5130c30c7170",
      "identifier": {
        "value": "60319"
      },
      "questionnaire": {
        "reference": "urn:uuid:f15ec8c8-b5f2-4f97-a325-043d851cda68"
      },
      "status": "completed",
      "subject": {
        "reference": "urn:uuid:c98ac1e1-79c9-45a3-a376-c40138c3c099"
      },
      "context": {
        "reference": "urn:uuid:88131768-8b3f-4762-bfe6-c40526e43c88"
      },
      "authored": "2021-04-06T15:19:34+00:00"
    }
  }, {
    "fullUrl": "urn:uuid:f15ec8c8-b5f2-4f97-a325-043d851cda68",
    "resource": {
      "resourceType": "Questionnaire",
      "id": "f15ec8c8-b5f2-4f97-a325-043d851cda68",
      "identifier": [ {
        "value": "60319"
      } ],
      "version": "2021-04-06T15:19:34.083Z",
      "status": "active",
      "experimental": false,
      "date": "2021-04-06T15:19:34+00:00",
      "publisher": "User ID: 'HADFIELDR' User name: 'Ryan Hadfield' User skill set: 'T3'",
      "lastReviewDate": "2021-04-06",
      "contact": [ {
        "telecom": [ {
          "system": "phone",
          "value": "0111 111 1111"
        } ]
      } ],
      "subjectType": [ "Patient" ]
    }
  }, {
    "fullUrl": "urn:uuid:83a223da-ad25-4a15-bf28-3e18da0169ec",
    "resource": {
      "resourceType": "QuestionnaireResponse",
      "id": "83a223da-ad25-4a15-bf28-3e18da0169ec",
      "identifier": {
        "value": "60319"
      },
      "questionnaire": {
        "reference": "urn:uuid:3ae7440d-8558-473f-a7b8-8679b10b0e88"
      },
      "status": "completed",
      "subject": {
        "reference": "urn:uuid:c98ac1e1-79c9-45a3-a376-c40138c3c099"
      },
      "context": {
        "reference": "urn:uuid:88131768-8b3f-4762-bfe6-c40526e43c88"
      },
      "authored": "2021-04-06T15:19:34+00:00"
    }
  }, {
    "fullUrl": "urn:uuid:3ae7440d-8558-473f-a7b8-8679b10b0e88",
    "resource": {
      "resourceType": "Questionnaire",
      "id": "3ae7440d-8558-473f-a7b8-8679b10b0e88",
      "identifier": [ {
        "value": "60319"
      } ],
      "version": "2021-04-06T15:19:34.083Z",
      "status": "active",
      "experimental": false,
      "date": "2021-04-06T15:19:34+00:00",
      "publisher": "User ID: 'HADFIELDR' User name: 'Ryan Hadfield' User skill set: 'T3'",
      "lastReviewDate": "2021-04-06",
      "contact": [ {
        "telecom": [ {
          "system": "phone",
          "value": "0111 111 1111"
        } ]
      } ],
      "subjectType": [ "Patient" ]
    }
  }, {
    "fullUrl": "urn:uuid:21219cbd-160c-4ceb-8ad1-41d55ea5742a",
    "resource": {
      "resourceType": "PractitionerRole",
      "id": "21219cbd-160c-4ceb-8ad1-41d55ea5742a",
      "practitioner": {
        "reference": "urn:uuid:0e4c073a-6537-4896-a408-ef023047dcc9"
      },
      "organization": {
        "reference": "urn:uuid:a2ea8cbe-6c10-4c7f-a505-d92a2a16f270"
      },
      "code": [ {
        "coding": [ {
          "system": "2.16.840.1.113883.2.1.3.2.4.17.339",
          "code": "DOCTOR",
          "display": "Doctor"
        } ]
      } ]
    }
  }, {
    "fullUrl": "urn:uuid:a2ea8cbe-6c10-4c7f-a505-d92a2a16f270",
    "resource": {
      "resourceType": "Organization",
      "id": "a2ea8cbe-6c10-4c7f-a505-d92a2a16f270",
      "identifier": [ {
        "value": "RYE"
      } ],
      "name": "RepresentedOrg Name"
    }
  }, {
    "fullUrl": "urn:uuid:78393a8c-51f1-4347-bc2f-f454a1b9f319",
    "resource": {
      "resourceType": "PractitionerRole",
      "id": "78393a8c-51f1-4347-bc2f-f454a1b9f319",
      "practitioner": {
        "reference": "urn:uuid:25505098-a5a7-4a97-b692-21d5d75c7a33"
      },
      "organization": {
        "reference": "urn:uuid:7dd8d57f-56c0-4911-a71b-b3be9aca178e"
      },
      "code": [ {
        "coding": [ {
          "system": "2.16.840.1.113883.2.1.3.2.4.17.196",
          "code": "R0010",
          "display": "Medical Director"
        } ]
      } ]
    }
  }, {
    "fullUrl": "urn:uuid:7dd8d57f-56c0-4911-a71b-b3be9aca178e",
    "resource": {
      "resourceType": "Organization",
      "id": "7dd8d57f-56c0-4911-a71b-b3be9aca178e",
      "identifier": [ {
        "value": "RYE"
      } ],
      "name": "RepresentedOrgNameRYE"
    }
  }, {
    "fullUrl": "urn:uuid:d07d2651-4227-42dd-a3aa-85f8d0ef36fb",
    "resource": {
      "resourceType": "RelatedPerson",
      "id": "d07d2651-4227-42dd-a3aa-85f8d0ef36fb",
      "patient": {
        "reference": "urn:uuid:c98ac1e1-79c9-45a3-a376-c40138c3c099"
      },
      "relationship": {
        "coding": [ {
          "system": "http://hl7.org/fhir/v2/0131",
          "code": "C",
          "display": "Emergency Contact"
        } ]
      },
      "telecom": [ {
        "system": "phone",
        "value": "tel:000000000000"
      } ]
    }
  }, {
    "fullUrl": "urn:uuid:435e9ad2-ba28-4e81-bc8d-578287fb23c1",
    "resource": {
      "resourceType": "Device",
      "id": "435e9ad2-ba28-4e81-bc8d-578287fb23c1",
      "model": "111 Adaptor",
      "version": "1.0.1"
    }
  }, {
    "fullUrl": "urn:uuid:4183a9cc-9c6e-424f-8711-7b2cc9ac20f8",
    "resource": {
      "resourceType": "List",
      "id": "4183a9cc-9c6e-424f-8711-7b2cc9ac20f8",
      "status": "current",
      "mode": "working",
      "title": "111 Report List",
      "code": {
        "coding": [ {
          "system": "http://snomed.info/sct",
          "code": "225390008",
          "display": "Triage"
        } ]
      },
      "subject": {
        "reference": "urn:uuid:c98ac1e1-79c9-45a3-a376-c40138c3c099"
      },
      "encounter": {
        "reference": "urn:uuid:88131768-8b3f-4762-bfe6-c40526e43c88"
      },
      "date": "2022-04-07T07:52:15+00:00",
      "source": {
        "reference": "urn:uuid:435e9ad2-ba28-4e81-bc8d-578287fb23c1"
      },
      "orderedBy": {
        "coding": [ {
          "system": "http://hl7.org/fhir/list-order",
          "code": "event-date",
          "display": "Sorted by Event Date"
        } ]
      },
      "entry": [ {
        "item": {
          "reference": "urn:uuid:25505098-a5a7-4a97-b692-21d5d75c7a33"
        }
      }, {
        "item": {
          "reference": "urn:uuid:d07d2651-4227-42dd-a3aa-85f8d0ef36fb"
        }
      }, {
        "item": {
          "reference": "urn:uuid:a1bc67e1-9f24-4ea8-80b4-3e3a4c82d6e1"
        }
      }, {
        "item": {
          "reference": "urn:uuid:7dd8d57f-56c0-4911-a71b-b3be9aca178e"
        }
      }, {
        "item": {
          "reference": "urn:uuid:0cb05fcc-25d4-4640-b7e4-4cfebc359b93"
        }
      }, {
        "item": {
          "reference": "urn:uuid:0e4c073a-6537-4896-a408-ef023047dcc9"
        }
      }, {
        "item": {
          "reference": "urn:uuid:8ddbaa8b-d840-4428-ab8f-8883a92b9e2d"
        }
      }, {
        "item": {
          "reference": "urn:uuid:a2ea8cbe-6c10-4c7f-a505-d92a2a16f270"
        }
      }, {
        "item": {
          "reference": "urn:uuid:d440daa1-d539-4398-b930-25d80b741f79"
        }
      }, {
        "item": {
          "reference": "urn:uuid:768206b0-631f-4c3c-8a28-89b94817516b"
        }
      }, {
        "item": {
          "reference": "urn:uuid:553e673c-eb23-41ac-915a-3bc34707b58d"
        }
      }, {
        "item": {
          "reference": "urn:uuid:2a29f8d8-179d-43b0-9229-f7c23519ef6f"
        }
      }, {
        "item": {
          "reference": "urn:uuid:718d3d62-d778-4e09-9ca3-af6e2b51df4c"
        }
      }, {
        "item": {
          "reference": "urn:uuid:83a223da-ad25-4a15-bf28-3e18da0169ec"
        }
      }, {
        "item": {
          "reference": "urn:uuid:4acf96a1-fe4a-44e4-bd20-0757d3c858d3"
        }
      }, {
        "item": {
          "reference": "urn:uuid:cd6c4124-e790-4e00-a6cf-bed95fd3381a"
        }
      }, {
        "item": {
          "reference": "urn:uuid:59eecd20-7724-4400-9be4-942ca070507b"
        }
      }, {
        "item": {
          "reference": "urn:uuid:3ae7440d-8558-473f-a7b8-8679b10b0e88"
        }
      }, {
        "item": {
          "reference": "urn:uuid:fafd4f2d-56b4-4b82-920b-17080f8a9109"
        }
      }, {
        "item": {
          "reference": "urn:uuid:8811b555-b83c-4c41-8584-99cf1014e8ce"
        }
      }, {
        "item": {
          "reference": "urn:uuid:c21fd3d6-2519-4e0b-9b93-3762141b5306"
        }
      }, {
        "item": {
          "reference": "urn:uuid:f15ec8c8-b5f2-4f97-a325-043d851cda68"
        }
      }, {
        "item": {
          "reference": "urn:uuid:648c17f1-6d11-476c-875b-d40e7a694b98"
        }
      }, {
        "item": {
          "reference": "urn:uuid:f77e18e7-f152-4439-83ed-731c88172a8d"
        }
      }, {
        "item": {
          "reference": "urn:uuid:30498cef-6bba-4142-8cac-cab901f98d40"
        }
      }, {
        "item": {
          "reference": "urn:uuid:d7193b23-1faa-4a45-b2fa-005d604d6639"
        }
      }, {
        "item": {
          "reference": "urn:uuid:0b8f65f3-c2c2-408f-9bab-900d66523af0"
        }
      }, {
        "item": {
          "reference": "urn:uuid:6fdd803c-a8d7-4305-9286-4c62c9b6c383"
        }
      }, {
        "item": {
          "reference": "urn:uuid:cc6c72ba-909f-451e-a498-2bef2b534a06"
        }
      }, {
        "item": {
          "reference": "urn:uuid:dd68da21-75d4-41f1-bbdc-1babdf6ff46e"
        }
      }, {
        "item": {
          "reference": "urn:uuid:8d107ee8-b882-405b-a34e-b4604dfb505c"
        }
      }, {
        "item": {
          "reference": "urn:uuid:77aee948-06b7-463f-a578-c05ed8da67ec"
        }
      }, {
        "item": {
          "reference": "urn:uuid:6e95732f-e926-4ffd-b840-a884ecd11f14"
        }
      }, {
        "item": {
          "reference": "urn:uuid:e63c54ab-ff7e-4472-94c4-f535f663e675"
        }
      }, {
        "item": {
          "reference": "urn:uuid:9491c5e1-c280-4edb-8e3a-7559051eafec"
        }
      }, {
        "item": {
          "reference": "urn:uuid:643b689b-fcf8-4a58-82b1-5130c30c7170"
        }
      }, {
        "item": {
          "reference": "urn:uuid:b748c564-17fd-46e0-a4b5-9af11e1c6dc1"
        }
      }, {
        "item": {
          "reference": "urn:uuid:7a52efd1-e110-483e-a732-a4e0d5202775"
        }
      }, {
        "item": {
          "reference": "urn:uuid:2e608c18-3c71-4e78-9280-958796d7cea7"
        }
      }, {
        "item": {
          "reference": "urn:uuid:e6817567-33d3-4f32-8039-dd137224cc9a"
        }
      } ]
    }
  } ]
}