{
  "resourceType": "Bundle",
  "meta": {
    "lastUpdated": "2022-05-12T06:46:17.206+00:00"
  },
  "identifier": {
    "type": {
      "text": "ClinicalDocument VersionNumber"
    },
    "value": "1"
  },
  "type": "message",
  "entry": [ {
    "fullUrl": "urn:uuid:05040617-33BA-4344-AA59-281CF2FE63CA",
    "resource": {
      "resourceType": "MessageHeader",
      "id": "05040617-33BA-4344-AA59-281CF2FE63CA",
      "event": {
        "system": "https://fhir.nhs.uk/STU3/CodeSystem/EventType-1",
        "code": "referral-1",
        "display": "Referral"
      },
      "destination": [ {
        "endpoint": "urn:nhs-uk:addressing:ods:FHR04RPX:DOSServiceID:2000038667"
      } ],
      "timestamp": "2021-04-06T15:19:34.000+00:00",
      "source": {
        "name": "NHS 111 Adaptor",
        "endpoint": "http://localhost:8080/report"
      },
      "reason": {
        "coding": [ {
          "system": "urn:nhs-itk:ns:201005:interaction",
          "code": "urn:nhs-itk:interaction:primaryOutofHourRecipientNHS111CDADocument-v2-0"
        } ]
      }
    }
  }, {
    "fullUrl": "urn:uuid:4e80aba5-2abf-4d2e-8631-1ff3f20f10f4",
    "resource": {
      "resourceType": "Encounter",
      "id": "4e80aba5-2abf-4d2e-8631-1ff3f20f10f4",
      "identifier": [ {
        "system": "2.16.840.1.113883.2.1.3.2.4.18.34",
        "value": "AdastraCaseGUID34"
      }, {
        "system": "2.16.840.1.113883.2.1.3.2.4.18.35",
        "value": "AdastraCaseID35"
      }, {
        "system": "2.16.840.1.113883.2.1.3.2.4.18.49",
        "value": "AdastraCaseGUID49"
      } ],
      "status": "finished",
      "type": [ {
        "text": "111 Encounter Referral"
      } ],
      "subject": {
        "reference": "urn:uuid:36d74111-2ff7-442b-82da-fc4983f50a44"
      },
      "participant": [ {
        "type": [ {
          "coding": [ {
            "system": "http://hl7.org/fhir/ValueSet/encounter-participant-type",
            "code": "PPRF",
            "display": "Author"
          } ]
        } ],
        "individual": {
          "reference": "urn:uuid:cd5b3f3f-bea0-4231-8b8a-0fc53e6fbc5a"
        }
      }, {
        "type": [ {
          "text": "Informant"
        } ],
        "individual": {
          "reference": "urn:uuid:f9ea2f30-d28b-4425-9a34-fedc6975163a"
        }
      }, {
        "type": [ {
          "coding": [ {
            "system": "http://hl7.org/fhir/ValueSet/encounter-participant-type",
            "code": "ATND",
            "display": "Responsible Party"
          } ]
        } ],
        "individual": {
          "reference": "urn:uuid:8347a7a1-8acc-4f3f-9978-097be254dbaf"
        }
      } ],
      "period": {
        "start": "2021-04-06T15:13:33+00:00",
        "end": "2021-04-06T15:19:29+00:00"
      },
      "location": [ {
        "location": {
          "reference": "urn:uuid:c46bdb6d-7a69-4220-88ab-9e3089276e52"
        },
        "status": "completed"
      } ],
      "serviceProvider": {
        "reference": "urn:uuid:0b686ba2-30b7-4289-b752-984dad2f1d73"
      }
    }
  }, {
    "fullUrl": "urn:uuid:0b686ba2-30b7-4289-b752-984dad2f1d73",
    "resource": {
      "resourceType": "Organization",
      "id": "0b686ba2-30b7-4289-b752-984dad2f1d73",
      "active": true,
      "type": [ {
        "text": "CST"
      } ],
      "name": "CustodianName"
    }
  }, {
    "fullUrl": "urn:uuid:cd5b3f3f-bea0-4231-8b8a-0fc53e6fbc5a",
    "resource": {
      "resourceType": "Practitioner",
      "id": "cd5b3f3f-bea0-4231-8b8a-0fc53e6fbc5a",
      "active": true,
      "name": [ {
        "use": "official",
        "family": "AuthorAssignedPerson FamilyName",
        "given": [ "AuthorAssignedPerson GivenName" ]
      } ]
    }
  }, {
    "fullUrl": "urn:uuid:f9ea2f30-d28b-4425-9a34-fedc6975163a",
    "resource": {
      "resourceType": "RelatedPerson",
      "id": "f9ea2f30-d28b-4425-9a34-fedc6975163a",
      "active": true,
      "patient": {
        "reference": "urn:uuid:36d74111-2ff7-442b-82da-fc4983f50a44"
      },
      "relationship": {
        "coding": [ {
          "system": "2.16.840.1.113883.2.1.3.2.4.16.45",
          "code": "16",
          "display": "Relative"
        } ]
      },
      "name": [ {
        "text": "RelatedPerson Name"
      } ],
      "telecom": [ {
        "system": "phone",
        "value": "tel:01111111111",
        "use": "home"
      } ],
      "gender": "unknown"
    }
  }, {
    "fullUrl": "urn:uuid:8347a7a1-8acc-4f3f-9978-097be254dbaf",
    "resource": {
      "resourceType": "Practitioner",
      "id": "8347a7a1-8acc-4f3f-9978-097be254dbaf",
      "active": true,
      "name": [ {
        "use": "official",
        "family": "ResponsablePartyMD FamilyName",
        "given": [ "ResponsablePartyMD GivenName" ]
      } ]
    }
  }, {
    "fullUrl": "urn:uuid:c46bdb6d-7a69-4220-88ab-9e3089276e52",
    "resource": {
      "resourceType": "Location",
      "id": "c46bdb6d-7a69-4220-88ab-9e3089276e52",
      "name": "Incident Location",
      "address": {
        "type": "physical",
        "line": [ "HealthCareFacility AddressLine1", "HealthCareFacility AddressLine2", "HealthCareFacility AddressLine3", "HealthCareFacility AddressLine4", "HealthCareFacility AddressLine5" ],
        "postalCode": "LOH25 4NS"
      }
    }
  }, {
    "fullUrl": "urn:uuid:36d74111-2ff7-442b-82da-fc4983f50a44",
    "resource": {
      "resourceType": "Patient",
      "id": "36d74111-2ff7-442b-82da-fc4983f50a44",
      "active": true,
      "name": [ {
        "use": "official",
        "family": "Patient Family Name",
        "given": [ "Patient Given Name" ]
      } ],
      "telecom": [ {
        "system": "phone",
        "value": "tel:000000000000",
        "use": "home"
      }, {
        "system": "phone",
        "value": "tel:000000000000"
      } ],
      "gender": "other",
      "birthDate": "1990-02-02",
      "address": [ {
        "use": "home",
        "line": [ "Home Address Line 1", "Home Address Line 2", "Home Address Line 3", "Home Address Line 4", "Home Address Line 5" ],
        "postalCode": "HA25 4NS"
      }, {
        "type": "physical",
        "line": [ "Home Address Line 1", "Home Address Line 2", "Home Address Line 3", "Home Address Line 4", "Home Address Line 5" ],
        "postalCode": "PH25 4NS"
      } ]
    }
  }, {
    "fullUrl": "urn:uuid:bea4a669-8ed6-46b2-975c-d2b9d206f62a",
    "resource": {
      "resourceType": "HealthcareService",
      "id": "bea4a669-8ed6-46b2-975c-d2b9d206f62a",
      "active": true,
      "providedBy": {
        "reference": "urn:uuid:1084def7-2ceb-4930-8cbf-4d51e1faefd5"
      },
      "location": [ {
        "reference": "urn:uuid:b3719818-9bdc-4a37-9d10-1490404b89a6"
      } ],
      "name": "InformationRecipient IntendedRecipient Name FHR0"
    }
  }, {
    "fullUrl": "urn:uuid:b3719818-9bdc-4a37-9d10-1490404b89a6",
    "resource": {
      "resourceType": "Location",
      "id": "b3719818-9bdc-4a37-9d10-1490404b89a6",
      "managingOrganization": {
        "reference": "urn:uuid:1084def7-2ceb-4930-8cbf-4d51e1faefd5"
      }
    }
  }, {
    "fullUrl": "urn:uuid:1084def7-2ceb-4930-8cbf-4d51e1faefd5",
    "resource": {
      "resourceType": "Organization",
      "id": "1084def7-2ceb-4930-8cbf-4d51e1faefd5",
      "identifier": [ {
        "value": "FHR04RPX"
      } ],
      "type": [ {
        "coding": [ {
          "code": "PRCP",
          "display": "InformationRecipient IntendedRecipient Name FHR0"
        } ]
      } ],
      "name": "InformationRecipient IntendedRecipient Name FHR0"
    }
  }, {
    "fullUrl": "urn:uuid:a692bffc-c629-47d4-855b-7297354252fa",
    "resource": {
      "resourceType": "ReferralRequest",
      "id": "a692bffc-c629-47d4-855b-7297354252fa",
      "status": "active",
      "intent": "plan",
      "priority": "routine",
      "subject": {
        "reference": "urn:uuid:36d74111-2ff7-442b-82da-fc4983f50a44"
      },
      "context": {
        "reference": "urn:uuid:4e80aba5-2abf-4d2e-8631-1ff3f20f10f4"
      },
      "occurrencePeriod": {
        "start": "2021-04-06T15:19:34+00:00"
      },
      "authoredOn": "2021-04-06T15:19:29+00:00",
      "requester": {
        "agent": {
          "reference": "urn:uuid:6aa80e38-cea6-4d8a-9c8a-2b00c4d9da31"
        },
        "onBehalfOf": {
          "reference": "urn:uuid:0b686ba2-30b7-4289-b752-984dad2f1d73"
        }
      },
      "recipient": [ {
        "reference": "urn:uuid:bea4a669-8ed6-46b2-975c-d2b9d206f62a"
      } ],
      "reasonReference": [ {
        "reference": "urn:uuid:735867e7-1863-412d-8651-64e0365785d9"
      } ],
      "supportingInfo": [ {
        "reference": "urn:uuid:2cad2e0e-11ce-482d-a2b7-04b9bfbdb2da"
      } ]
    }
  }, {
    "fullUrl": "urn:uuid:2cad2e0e-11ce-482d-a2b7-04b9bfbdb2da",
    "resource": {
      "resourceType": "ProcedureRequest",
      "id": "2cad2e0e-11ce-482d-a2b7-04b9bfbdb2da",
      "status": "active",
      "intent": "plan",
      "priority": "routine",
      "doNotPerform": false,
      "code": {
        "coding": [ {
          "system": "2.16.840.1.113883.2.1.3.2.4.17.325",
          "code": "DispoCodeDx87",
          "display": "DispoName - Repeat Prescription required within 24 hours"
        } ]
      },
      "subject": {
        "reference": "urn:uuid:36d74111-2ff7-442b-82da-fc4983f50a44"
      },
      "occurrencePeriod": {
        "start": "2021-04-06T15:19:34+00:00"
      },
      "reasonReference": [ {
        "reference": "urn:uuid:735867e7-1863-412d-8651-64e0365785d9"
      } ]
    }
  }, {
    "fullUrl": "urn:uuid:a5dd8be7-11d3-461c-88f7-59b86b6638e1",
    "resource": {
      "resourceType": "Composition",
      "id": "a5dd8be7-11d3-461c-88f7-59b86b6638e1",
      "identifier": {
        "use": "usual",
        "value": "E2DF04F7-95CA-40AD-808D-797C0A89E39C"
      },
      "status": "final",
      "type": {
        "coding": [ {
          "system": "http://snomed.info/sct",
          "code": "371531000",
          "display": "Report of clinical encounter (record artifact)"
        } ]
      },
      "subject": {
        "reference": "urn:uuid:36d74111-2ff7-442b-82da-fc4983f50a44"
      },
      "encounter": {
        "reference": "urn:uuid:4e80aba5-2abf-4d2e-8631-1ff3f20f10f4"
      },
      "date": "2021-04-06T15:19:34+00:00",
      "author": [ {
        "reference": "urn:uuid:cd5b3f3f-bea0-4231-8b8a-0fc53e6fbc5a"
      } ],
      "title": "111 Report",
      "confidentiality": "N",
      "section": [ {
        "section": [ {
          "title": "ComponentTitle - Patient's Reported Condition",
          "text": {
            "status": "generated",
            "div": "<div xmlns=\"http://www.w3.org/1999/xhtml\">&lt;content&gt;ComponentText - Pharmacy ITK Testing&lt;/content&gt;\n                                                    &lt;br/&gt;</div>"
          }
        }, {
          "title": "ComponentTitle - Pathways Disposition",
          "text": {
            "status": "generated",
            "div": "<div xmlns=\"http://www.w3.org/1999/xhtml\">ComponentText - Repeat Prescription required within 24 hours (Dx87)                                         &lt;br/&gt;\n                                                    &lt;br/&gt;                                         Selected service: Springvale, Fraser Road, Kings Worthy, Winchester&lt;br/&gt;</div>"
          }
        }, {
          "title": "ComponentTitle - Consultation Summary",
          "text": {
            "status": "generated",
            "div": "<div xmlns=\"http://www.w3.org/1999/xhtml\">ComponentText - Prescription request&lt;br/&gt;Not enough medication until surgery opens&lt;br/&gt;No medication available&lt;br/&gt;Next dose due in over 12 hours time&lt;br/&gt;</div>"
          }
        }, {
          "title": "ComponentTitle - Pathways Assessment",
          "text": {
            "status": "generated",
            "div": "<div xmlns=\"http://www.w3.org/1999/xhtml\">ComponentText - Reason for call menu - continued to next list.&lt;br/&gt;A prescription request was the main reason for the contact.&lt;br/&gt;The main reason for the contact was not a new or worsening illness.&lt;br/&gt;The individual did not have enough medication to last until the surgery next opened.&lt;br/&gt;The medication was suitable for repeat prescribing without further consultation.&lt;br/&gt;The individual had no medication available.&lt;br/&gt;The next dose was due in over 12 hours time.&lt;br/&gt;Instructions given were: The individual needs a repeat prescription.&lt;br/&gt;Directory of Services referral: Springvale, Fraser Road, Kings Worthy, Winchester&lt;br/&gt;</div>"
          }
        }, {
          "title": "ComponentTitle - Advice Given",
          "text": {
            "status": "generated",
            "div": "<div xmlns=\"http://www.w3.org/1999/xhtml\">ComponentText - I will arrange for a clinician or pharmacist to speak to the individual.&lt;br/&gt;IF THE RECOMMENDED TIMEFRAME FALLS OUTSIDE OPENING HOURS: I will arrange for a clinician to speak to the individual.&lt;br/&gt;\n                                                    &lt;br/&gt;</div>"
          }
        }, {
          "title": "ComponentTitle - Information And Advice Given"
        }, {
          "title": "ComponentTitle - Disposition",
          "text": {
            "status": "generated",
            "div": "<div xmlns=\"http://www.w3.org/1999/xhtml\">&lt;content&gt;ComponentText - Repeat Prescription required within 24 hours&lt;br/&gt;\n                                                    &lt;/content&gt;\n                                                    &lt;br/&gt;\n                                                    &lt;br/&gt;</div>"
          }
        } ]
      }, {
        "title": "CarePlan",
        "entry": [ {
          "reference": "urn:uuid:3572963d-c866-44eb-a998-eda4fb824ad5"
        } ]
      }, {
        "title": "ReferralRequest",
        "entry": [ {
          "reference": "urn:uuid:a692bffc-c629-47d4-855b-7297354252fa"
        } ]
      }, {
        "title": "QuestionnaireResponse",
        "entry": [ {
          "reference": "urn:uuid:31b50fe0-4439-4fce-b29b-1fe1f95d9112"
        } ]
      }, {
        "title": "QuestionnaireResponse",
        "entry": [ {
          "reference": "urn:uuid:8da2c05c-982b-433a-a211-82a8e419cad2"
        } ]
      }, {
        "title": "QuestionnaireResponse",
        "entry": [ {
          "reference": "urn:uuid:8664e511-e929-48dc-9fdc-0b1b71a19ea7"
        } ]
      }, {
        "title": "QuestionnaireResponse",
        "entry": [ {
          "reference": "urn:uuid:5852fe96-6c72-434d-a781-4641f1b0b0e2"
        } ]
      }, {
        "title": "QuestionnaireResponse",
        "entry": [ {
          "reference": "urn:uuid:223952c3-eb80-49c4-9120-bba289f5e378"
        } ]
      }, {
        "title": "QuestionnaireResponse",
        "entry": [ {
          "reference": "urn:uuid:9a836dd1-82a9-4a66-8e0c-8ff299b952f1"
        } ]
      }, {
        "title": "QuestionnaireResponse",
        "entry": [ {
          "reference": "urn:uuid:e4177dd3-b430-4a2f-8e5c-829315e0f4a5"
        } ]
      }, {
        "title": "QuestionnaireResponse",
        "entry": [ {
          "reference": "urn:uuid:c4b4fcdd-4e68-462b-96ab-cd1239d9d83e"
        } ]
      }, {
        "title": "QuestionnaireResponse",
        "entry": [ {
          "reference": "urn:uuid:dd5586e5-9a6d-46c4-97b9-7cc6d2fcd5e0"
        } ]
      }, {
        "title": "QuestionnaireResponse",
        "entry": [ {
          "reference": "urn:uuid:fa333127-c153-4924-9d13-d5017f831d31"
        } ]
      }, {
        "title": "QuestionnaireResponse",
        "entry": [ {
          "reference": "urn:uuid:2316e366-d43c-401d-8fa8-0d0376ca99af"
        } ]
      }, {
        "title": "QuestionnaireResponse",
        "entry": [ {
          "reference": "urn:uuid:c2c9dc51-43ea-4bec-9abe-b116a36fc972"
        } ]
      }, {
        "title": "QuestionnaireResponse",
        "entry": [ {
          "reference": "urn:uuid:3e362185-75e3-4941-b984-ae2f54a81f2e"
        } ]
      }, {
        "title": "QuestionnaireResponse",
        "entry": [ {
          "reference": "urn:uuid:cbc17820-6817-41d9-b202-629077062a5b"
        } ]
      }, {
        "title": "QuestionnaireResponse",
        "entry": [ {
          "reference": "urn:uuid:34a53229-0cfb-449c-9d96-a69a784af3a9"
        } ]
      } ]
    }
  }, {
    "fullUrl": "urn:uuid:3572963d-c866-44eb-a998-eda4fb824ad5",
    "resource": {
      "resourceType": "CarePlan",
      "id": "3572963d-c866-44eb-a998-eda4fb824ad5",
      "status": "completed",
      "intent": "plan",
      "title": "ComponentTitle - Information And Advice Given",
      "subject": {
        "reference": "urn:uuid:36d74111-2ff7-442b-82da-fc4983f50a44"
      },
      "context": {
        "reference": "urn:uuid:4e80aba5-2abf-4d2e-8631-1ff3f20f10f4"
      },
      "period": {
        "start": "2021-04-06T15:13:33+00:00",
        "end": "2021-04-06T15:19:29+00:00"
      },
      "addresses": [ {
        "reference": "urn:uuid:735867e7-1863-412d-8651-64e0365785d9"
      } ]
    }
  }, {
    "fullUrl": "urn:uuid:019bd46d-ef56-4e6e-abde-7e477a3118dc",
    "resource": {
      "resourceType": "Consent",
      "id": "019bd46d-ef56-4e6e-abde-7e477a3118dc",
      "identifier": {
        "use": "usual",
        "value": "E2DF04F7-95CA-40AD-808D-797C0A89E39C"
      },
      "status": "active",
      "patient": {
        "reference": "urn:uuid:36d74111-2ff7-442b-82da-fc4983f50a44"
      },
      "period": {
        "start": "2021-04-06T15:13:33+00:00",
        "end": "2021-04-06T15:19:29+00:00"
      },
      "consentingParty": [ {
        "reference": "urn:uuid:36d74111-2ff7-442b-82da-fc4983f50a44"
      } ],
      "action": [ {
        "coding": [ {
          "system": "http://snomed.info/sct",
          "code": "425691002",
          "display": "Consent given for electronic record sharing"
        } ],
        "text": "Consent given for electronic record sharing"
      } ],
      "organization": [ {
        "reference": "urn:uuid:0b686ba2-30b7-4289-b752-984dad2f1d73"
      } ],
      "policyRule": "http://hl7.org/fhir/ConsentPolicy/opt-out",
      "data": [ {
        "meaning": "related",
        "reference": {
          "reference": "urn:uuid:4e80aba5-2abf-4d2e-8631-1ff3f20f10f4"
        }
      } ]
    }
  }, {
    "fullUrl": "urn:uuid:735867e7-1863-412d-8651-64e0365785d9",
    "resource": {
      "resourceType": "Condition",
      "id": "735867e7-1863-412d-8651-64e0365785d9",
      "clinicalStatus": "active",
      "verificationStatus": "unknown",
      "subject": {
        "reference": "urn:uuid:36d74111-2ff7-442b-82da-fc4983f50a44"
      },
      "context": {
        "reference": "urn:uuid:4e80aba5-2abf-4d2e-8631-1ff3f20f10f4"
      },
      "evidence": [ {
        "detail": [ {
          "reference": "urn:uuid:31b50fe0-4439-4fce-b29b-1fe1f95d9112"
        } ]
      }, {
        "detail": [ {
          "reference": "urn:uuid:8da2c05c-982b-433a-a211-82a8e419cad2"
        } ]
      }, {
        "detail": [ {
          "reference": "urn:uuid:8664e511-e929-48dc-9fdc-0b1b71a19ea7"
        } ]
      }, {
        "detail": [ {
          "reference": "urn:uuid:5852fe96-6c72-434d-a781-4641f1b0b0e2"
        } ]
      }, {
        "detail": [ {
          "reference": "urn:uuid:223952c3-eb80-49c4-9120-bba289f5e378"
        } ]
      }, {
        "detail": [ {
          "reference": "urn:uuid:9a836dd1-82a9-4a66-8e0c-8ff299b952f1"
        } ]
      }, {
        "detail": [ {
          "reference": "urn:uuid:e4177dd3-b430-4a2f-8e5c-829315e0f4a5"
        } ]
      }, {
        "detail": [ {
          "reference": "urn:uuid:c4b4fcdd-4e68-462b-96ab-cd1239d9d83e"
        } ]
      }, {
        "detail": [ {
          "reference": "urn:uuid:dd5586e5-9a6d-46c4-97b9-7cc6d2fcd5e0"
        } ]
      }, {
        "detail": [ {
          "reference": "urn:uuid:fa333127-c153-4924-9d13-d5017f831d31"
        } ]
      }, {
        "detail": [ {
          "reference": "urn:uuid:2316e366-d43c-401d-8fa8-0d0376ca99af"
        } ]
      }, {
        "detail": [ {
          "reference": "urn:uuid:c2c9dc51-43ea-4bec-9abe-b116a36fc972"
        } ]
      }, {
        "detail": [ {
          "reference": "urn:uuid:3e362185-75e3-4941-b984-ae2f54a81f2e"
        } ]
      }, {
        "detail": [ {
          "reference": "urn:uuid:cbc17820-6817-41d9-b202-629077062a5b"
        } ]
      }, {
        "detail": [ {
          "reference": "urn:uuid:34a53229-0cfb-449c-9d96-a69a784af3a9"
        } ]
      } ]
    }
  }, {
    "fullUrl": "urn:uuid:31b50fe0-4439-4fce-b29b-1fe1f95d9112",
    "resource": {
      "resourceType": "QuestionnaireResponse",
      "id": "31b50fe0-4439-4fce-b29b-1fe1f95d9112",
      "identifier": {
        "value": "60319"
      },
      "questionnaire": {
        "reference": "urn:uuid:6b5dfd81-461d-422d-85e7-357062a0179e"
      },
      "status": "completed",
      "subject": {
        "reference": "urn:uuid:36d74111-2ff7-442b-82da-fc4983f50a44"
      },
      "context": {
        "reference": "urn:uuid:4e80aba5-2abf-4d2e-8631-1ff3f20f10f4"
      },
      "authored": "2021-04-06T15:19:34+00:00",
      "item": [ {
        "linkId": "Tx220109",
        "text": "What is the reason for the contact?",
        "answer": [ {
          "valueString": "more"
        } ]
      } ]
    }
  }, {
    "fullUrl": "urn:uuid:6b5dfd81-461d-422d-85e7-357062a0179e",
    "resource": {
      "resourceType": "Questionnaire",
      "id": "6b5dfd81-461d-422d-85e7-357062a0179e",
      "identifier": [ {
        "value": "60319"
      } ],
      "version": "2021-04-06T15:19:34.083Z",
      "status": "active",
      "experimental": false,
      "date": "2021-04-06T15:19:34+00:00",
      "publisher": "User ID: 'HADFIELDR' User name: 'Ryan Hadfield' User skill set: 'T3'",
      "lastReviewDate": "2021-04-06",
      "contact": [ {
        "telecom": [ {
          "system": "phone",
          "value": "0111 111 1111"
        } ]
      } ],
      "subjectType": [ "Patient" ],
      "item": [ {
        "linkId": "60319",
        "prefix": "5",
        "text": "What is the reason for the contact?",
        "type": "choice",
        "required": true,
        "repeats": false,
        "option": [ {
          "valueString": "an injury or other health problem, Selected: false"
        }, {
          "valueString": "a need to access another healthcare service, Selected: false"
        }, {
          "valueString": "a healthcare professional requesting contact with another clinician, Selected: false"
        }, {
          "valueString": "a report of results or tests, Selected: false"
        }, {
          "valueString": "more, Selected: true"
        } ]
      } ]
    }
  }, {
    "fullUrl": "urn:uuid:8da2c05c-982b-433a-a211-82a8e419cad2",
    "resource": {
      "resourceType": "QuestionnaireResponse",
      "id": "8da2c05c-982b-433a-a211-82a8e419cad2",
      "identifier": {
        "value": "60319"
      },
      "questionnaire": {
        "reference": "urn:uuid:fe9ac563-59e6-4430-8f45-85ba888b0f5e"
      },
      "status": "completed",
      "subject": {
        "reference": "urn:uuid:36d74111-2ff7-442b-82da-fc4983f50a44"
      },
      "context": {
        "reference": "urn:uuid:4e80aba5-2abf-4d2e-8631-1ff3f20f10f4"
      },
      "authored": "2021-04-06T15:19:34+00:00",
      "item": [ {
        "linkId": "Tx221793",
        "text": "STRING:to'Social&information'-further'Callreason'menu",
        "answer": [ {
          "valueString": "\"present\""
        } ]
      } ]
    }
  }, {
    "fullUrl": "urn:uuid:fe9ac563-59e6-4430-8f45-85ba888b0f5e",
    "resource": {
      "resourceType": "Questionnaire",
      "id": "fe9ac563-59e6-4430-8f45-85ba888b0f5e",
      "identifier": [ {
        "value": "60319"
      } ],
      "version": "2021-04-06T15:19:34.083Z",
      "status": "active",
      "experimental": false,
      "date": "2021-04-06T15:19:34+00:00",
      "publisher": "User ID: 'HADFIELDR' User name: 'Ryan Hadfield' User skill set: 'T3'",
      "lastReviewDate": "2021-04-06",
      "contact": [ {
        "telecom": [ {
          "system": "phone",
          "value": "0111 111 1111"
        } ]
      } ],
      "subjectType": [ "Patient" ],
      "item": [ {
        "linkId": "60319",
        "prefix": "600",
        "text": "STRING:to'Social&information'-further'Callreason'menu",
        "type": "choice",
        "required": true,
        "repeats": false,
        "option": [ {
          "valueString": "\"present\", Selected: true"
        } ]
      } ]
    }
  }, {
    "fullUrl": "urn:uuid:8664e511-e929-48dc-9fdc-0b1b71a19ea7",
    "resource": {
      "resourceType": "QuestionnaireResponse",
      "id": "8664e511-e929-48dc-9fdc-0b1b71a19ea7",
      "identifier": {
        "value": "60319"
      },
      "questionnaire": {
        "reference": "urn:uuid:dbc194ec-fa2d-4a59-8fbd-13c136a21e0f"
      },
      "status": "completed",
      "subject": {
        "reference": "urn:uuid:36d74111-2ff7-442b-82da-fc4983f50a44"
      },
      "context": {
        "reference": "urn:uuid:4e80aba5-2abf-4d2e-8631-1ff3f20f10f4"
      },
      "authored": "2021-04-06T15:19:34+00:00"
    }
  }, {
    "fullUrl": "urn:uuid:dbc194ec-fa2d-4a59-8fbd-13c136a21e0f",
    "resource": {
      "resourceType": "Questionnaire",
      "id": "dbc194ec-fa2d-4a59-8fbd-13c136a21e0f",
      "identifier": [ {
        "value": "60319"
      } ],
      "version": "2021-04-06T15:19:34.083Z",
      "status": "active",
      "experimental": false,
      "date": "2021-04-06T15:19:34+00:00",
      "publisher": "User ID: 'HADFIELDR' User name: 'Ryan Hadfield' User skill set: 'T3'",
      "lastReviewDate": "2021-04-06",
      "contact": [ {
        "telecom": [ {
          "system": "phone",
          "value": "0111 111 1111"
        } ]
      } ],
      "subjectType": [ "Patient" ]
    }
  }, {
    "fullUrl": "urn:uuid:5852fe96-6c72-434d-a781-4641f1b0b0e2",
    "resource": {
      "resourceType": "QuestionnaireResponse",
      "id": "5852fe96-6c72-434d-a781-4641f1b0b0e2",
      "identifier": {
        "value": "60319"
      },
      "questionnaire": {
        "reference": "urn:uuid:66d7c76e-c8f4-4948-9a77-a8a0e1e9f137"
      },
      "status": "completed",
      "subject": {
        "reference": "urn:uuid:36d74111-2ff7-442b-82da-fc4983f50a44"
      },
      "context": {
        "reference": "urn:uuid:4e80aba5-2abf-4d2e-8631-1ff3f20f10f4"
      },
      "authored": "2021-04-06T15:19:34+00:00",
      "item": [ {
        "linkId": "Tx221804",
        "text": "STRING:transfertofurthermenuquestionestablishedinEntryFlow",
        "answer": [ {
          "valueString": "\"present\""
        } ]
      } ]
    }
  }, {
    "fullUrl": "urn:uuid:66d7c76e-c8f4-4948-9a77-a8a0e1e9f137",
    "resource": {
      "resourceType": "Questionnaire",
      "id": "66d7c76e-c8f4-4948-9a77-a8a0e1e9f137",
      "identifier": [ {
        "value": "60319"
      } ],
      "version": "2021-04-06T15:19:34.083Z",
      "status": "active",
      "experimental": false,
      "date": "2021-04-06T15:19:34+00:00",
      "publisher": "User ID: 'HADFIELDR' User name: 'Ryan Hadfield' User skill set: 'T3'",
      "lastReviewDate": "2021-04-06",
      "contact": [ {
        "telecom": [ {
          "system": "phone",
          "value": "0111 111 1111"
        } ]
      } ],
      "subjectType": [ "Patient" ],
      "item": [ {
        "linkId": "60319",
        "prefix": "41",
        "text": "STRING:transfertofurthermenuquestionestablishedinEntryFlow",
        "type": "choice",
        "required": true,
        "repeats": false,
        "option": [ {
          "valueString": "\"present\", Selected: true"
        } ]
      } ]
    }
  }, {
    "fullUrl": "urn:uuid:223952c3-eb80-49c4-9120-bba289f5e378",
    "resource": {
      "resourceType": "QuestionnaireResponse",
      "id": "223952c3-eb80-49c4-9120-bba289f5e378",
      "identifier": {
        "value": "60319"
      },
      "questionnaire": {
        "reference": "urn:uuid:b0d8f21b-a8f7-48de-a5cd-b0940d55c27d"
      },
      "status": "completed",
      "subject": {
        "reference": "urn:uuid:36d74111-2ff7-442b-82da-fc4983f50a44"
      },
      "context": {
        "reference": "urn:uuid:4e80aba5-2abf-4d2e-8631-1ff3f20f10f4"
      },
      "authored": "2021-04-06T15:19:34+00:00",
      "item": [ {
        "linkId": "Tx224998",
        "text": "SYSTEM_COVIDLEVEL2",
        "answer": [ {
          "valueString": "==\"covidlevel2\""
        } ]
      } ]
    }
  }, {
    "fullUrl": "urn:uuid:b0d8f21b-a8f7-48de-a5cd-b0940d55c27d",
    "resource": {
      "resourceType": "Questionnaire",
      "id": "b0d8f21b-a8f7-48de-a5cd-b0940d55c27d",
      "identifier": [ {
        "value": "60319"
      } ],
      "version": "2021-04-06T15:19:34.083Z",
      "status": "active",
      "experimental": false,
      "date": "2021-04-06T15:19:34+00:00",
      "publisher": "User ID: 'HADFIELDR' User name: 'Ryan Hadfield' User skill set: 'T3'",
      "lastReviewDate": "2021-04-06",
      "contact": [ {
        "telecom": [ {
          "system": "phone",
          "value": "0111 111 1111"
        } ]
      } ],
      "subjectType": [ "Patient" ],
      "item": [ {
        "linkId": "60319",
        "prefix": "5900",
        "text": "SYSTEM_COVIDLEVEL2",
        "type": "choice",
        "required": true,
        "repeats": false,
        "option": [ {
          "valueString": "==\"covidlevel2\", Selected: true"
        }, {
          "valueString": "*, Selected: false"
        } ]
      } ]
    }
  }, {
    "fullUrl": "urn:uuid:9a836dd1-82a9-4a66-8e0c-8ff299b952f1",
    "resource": {
      "resourceType": "QuestionnaireResponse",
      "id": "9a836dd1-82a9-4a66-8e0c-8ff299b952f1",
      "identifier": {
        "value": "60319"
      },
      "questionnaire": {
        "reference": "urn:uuid:8c50a3bf-1c74-4d22-af13-3abf20db9632"
      },
      "status": "completed",
      "subject": {
        "reference": "urn:uuid:36d74111-2ff7-442b-82da-fc4983f50a44"
      },
      "context": {
        "reference": "urn:uuid:4e80aba5-2abf-4d2e-8631-1ff3f20f10f4"
      },
      "authored": "2021-04-06T15:19:34+00:00",
      "item": [ {
        "linkId": "Tx225069",
        "text": "What is the reason for the contact?",
        "answer": [ {
          "valueString": "a prescription request"
        } ]
      } ]
    }
  }, {
    "fullUrl": "urn:uuid:8c50a3bf-1c74-4d22-af13-3abf20db9632",
    "resource": {
      "resourceType": "Questionnaire",
      "id": "8c50a3bf-1c74-4d22-af13-3abf20db9632",
      "identifier": [ {
        "value": "60319"
      } ],
      "version": "2021-04-06T15:19:34.083Z",
      "status": "active",
      "experimental": false,
      "date": "2021-04-06T15:19:34+00:00",
      "publisher": "User ID: 'HADFIELDR' User name: 'Ryan Hadfield' User skill set: 'T3'",
      "lastReviewDate": "2021-04-06",
      "contact": [ {
        "telecom": [ {
          "system": "phone",
          "value": "0111 111 1111"
        } ]
      } ],
      "subjectType": [ "Patient" ],
      "item": [ {
        "linkId": "60319",
        "prefix": "6000",
        "text": "What is the reason for the contact?",
        "type": "choice",
        "required": true,
        "repeats": false,
        "option": [ {
          "valueString": "a child protection/vulnerable adult concern (specify), Selected: false"
        }, {
          "valueString": "a social or domestic emergency, Selected: false"
        }, {
          "valueString": "a prescription request, Selected: true"
        }, {
          "valueString": "an appointment request, Selected: false"
        }, {
          "valueString": "a request for health or medication information, Selected: false"
        }, {
          "valueString": "public health alert information, Selected: false"
        } ]
      } ]
    }
  }, {
    "fullUrl": "urn:uuid:e4177dd3-b430-4a2f-8e5c-829315e0f4a5",
    "resource": {
      "resourceType": "QuestionnaireResponse",
      "id": "e4177dd3-b430-4a2f-8e5c-829315e0f4a5",
      "identifier": {
        "value": "60319"
      },
      "questionnaire": {
        "reference": "urn:uuid:ef708267-d367-425c-adab-ea09ff600c56"
      },
      "status": "completed",
      "subject": {
        "reference": "urn:uuid:36d74111-2ff7-442b-82da-fc4983f50a44"
      },
      "context": {
        "reference": "urn:uuid:4e80aba5-2abf-4d2e-8631-1ff3f20f10f4"
      },
      "authored": "2021-04-06T15:19:34+00:00",
      "item": [ {
        "linkId": "Tx220957",
        "text": "Is this contact about a new or worsening illness?",
        "answer": [ {
          "valueString": "no"
        } ]
      } ]
    }
  }, {
    "fullUrl": "urn:uuid:ef708267-d367-425c-adab-ea09ff600c56",
    "resource": {
      "resourceType": "Questionnaire",
      "id": "ef708267-d367-425c-adab-ea09ff600c56",
      "identifier": [ {
        "value": "60319"
      } ],
      "version": "2021-04-06T15:19:34.083Z",
      "status": "active",
      "experimental": false,
      "date": "2021-04-06T15:19:34+00:00",
      "publisher": "User ID: 'HADFIELDR' User name: 'Ryan Hadfield' User skill set: 'T3'",
      "lastReviewDate": "2021-04-06",
      "contact": [ {
        "telecom": [ {
          "system": "phone",
          "value": "0111 111 1111"
        } ]
      } ],
      "subjectType": [ "Patient" ],
      "item": [ {
        "linkId": "60319",
        "prefix": "1400",
        "text": "Is this contact about a new or worsening illness?",
        "type": "choice",
        "required": true,
        "repeats": false,
        "option": [ {
          "valueString": "yes, Selected: false"
        }, {
          "valueString": "not sure, Selected: false"
        }, {
          "valueString": "no, Selected: true"
        } ]
      } ]
    }
  }, {
    "fullUrl": "urn:uuid:c4b4fcdd-4e68-462b-96ab-cd1239d9d83e",
    "resource": {
      "resourceType": "QuestionnaireResponse",
      "id": "c4b4fcdd-4e68-462b-96ab-cd1239d9d83e",
      "identifier": {
        "value": "60319"
      },
      "questionnaire": {
        "reference": "urn:uuid:11fe36bd-ea49-41f6-b423-888390fa9379"
      },
      "status": "completed",
      "subject": {
        "reference": "urn:uuid:36d74111-2ff7-442b-82da-fc4983f50a44"
      },
      "context": {
        "reference": "urn:uuid:4e80aba5-2abf-4d2e-8631-1ff3f20f10f4"
      },
      "authored": "2021-04-06T15:19:34+00:00",
      "item": [ {
        "linkId": "Tx221352",
        "text": "Have you got enough medication to last until the surgery opens?",
        "answer": [ {
          "valueString": "no"
        } ]
      } ]
    }
  }, {
    "fullUrl": "urn:uuid:11fe36bd-ea49-41f6-b423-888390fa9379",
    "resource": {
      "resourceType": "Questionnaire",
      "id": "11fe36bd-ea49-41f6-b423-888390fa9379",
      "identifier": [ {
        "value": "60319"
      } ],
      "version": "2021-04-06T15:19:34.083Z",
      "status": "active",
      "experimental": false,
      "date": "2021-04-06T15:19:34+00:00",
      "publisher": "User ID: 'HADFIELDR' User name: 'Ryan Hadfield' User skill set: 'T3'",
      "lastReviewDate": "2021-04-06",
      "contact": [ {
        "telecom": [ {
          "system": "phone",
          "value": "0111 111 1111"
        } ]
      } ],
      "subjectType": [ "Patient" ],
      "item": [ {
        "linkId": "60319",
        "prefix": "1500",
        "text": "Have you got enough medication to last until the surgery opens?",
        "type": "choice",
        "required": true,
        "repeats": false,
        "option": [ {
          "valueString": "yes, Selected: false"
        }, {
          "valueString": "not sure, Selected: false"
        }, {
          "valueString": "no, Selected: true"
        } ]
      } ]
    }
  }, {
    "fullUrl": "urn:uuid:dd5586e5-9a6d-46c4-97b9-7cc6d2fcd5e0",
    "resource": {
      "resourceType": "QuestionnaireResponse",
      "id": "dd5586e5-9a6d-46c4-97b9-7cc6d2fcd5e0",
      "identifier": {
        "value": "60319"
      },
      "questionnaire": {
        "reference": "urn:uuid:99ed05ad-8c66-47bd-af70-76143ddd28a1"
      },
      "status": "completed",
      "subject": {
        "reference": "urn:uuid:36d74111-2ff7-442b-82da-fc4983f50a44"
      },
      "context": {
        "reference": "urn:uuid:4e80aba5-2abf-4d2e-8631-1ff3f20f10f4"
      },
      "authored": "2021-04-06T15:19:34+00:00"
    }
  }, {
    "fullUrl": "urn:uuid:99ed05ad-8c66-47bd-af70-76143ddd28a1",
    "resource": {
      "resourceType": "Questionnaire",
      "id": "99ed05ad-8c66-47bd-af70-76143ddd28a1",
      "identifier": [ {
        "value": "60319"
      } ],
      "version": "2021-04-06T15:19:34.083Z",
      "status": "active",
      "experimental": false,
      "date": "2021-04-06T15:19:34+00:00",
      "publisher": "User ID: 'HADFIELDR' User name: 'Ryan Hadfield' User skill set: 'T3'",
      "lastReviewDate": "2021-04-06",
      "contact": [ {
        "telecom": [ {
          "system": "phone",
          "value": "0111 111 1111"
        } ]
      } ],
      "subjectType": [ "Patient" ]
    }
  }, {
    "fullUrl": "urn:uuid:fa333127-c153-4924-9d13-d5017f831d31",
    "resource": {
      "resourceType": "QuestionnaireResponse",
      "id": "fa333127-c153-4924-9d13-d5017f831d31",
      "identifier": {
        "value": "60319"
      },
      "questionnaire": {
        "reference": "urn:uuid:5970edb0-46f4-4369-b337-5026c0e18fff"
      },
      "status": "completed",
      "subject": {
        "reference": "urn:uuid:36d74111-2ff7-442b-82da-fc4983f50a44"
      },
      "context": {
        "reference": "urn:uuid:4e80aba5-2abf-4d2e-8631-1ff3f20f10f4"
      },
      "authored": "2021-04-06T15:19:34+00:00",
      "item": [ {
        "linkId": "Tx224231",
        "text": "FROM WHAT YOU HAVE HEARD IS A CONSULTATION WITH A PRESCRIBER NEEDED?",
        "answer": [ {
          "valueString": "no"
        } ]
      } ]
    }
  }, {
    "fullUrl": "urn:uuid:5970edb0-46f4-4369-b337-5026c0e18fff",
    "resource": {
      "resourceType": "Questionnaire",
      "id": "5970edb0-46f4-4369-b337-5026c0e18fff",
      "identifier": [ {
        "value": "60319"
      } ],
      "version": "2021-04-06T15:19:34.083Z",
      "status": "active",
      "experimental": false,
      "date": "2021-04-06T15:19:34+00:00",
      "publisher": "User ID: 'HADFIELDR' User name: 'Ryan Hadfield' User skill set: 'T3'",
      "lastReviewDate": "2021-04-06",
      "contact": [ {
        "telecom": [ {
          "system": "phone",
          "value": "0111 111 1111"
        } ]
      } ],
      "subjectType": [ "Patient" ],
      "item": [ {
        "linkId": "60319",
        "prefix": "0",
        "text": "FROM WHAT YOU HAVE HEARD IS A CONSULTATION WITH A PRESCRIBER NEEDED?",
        "type": "choice",
        "required": true,
        "repeats": false,
        "option": [ {
          "valueString": "yes, Selected: false"
        }, {
          "valueString": "not sure, Selected: false"
        }, {
          "valueString": "no, Selected: true"
        } ]
      } ]
    }
  }, {
    "fullUrl": "urn:uuid:2316e366-d43c-401d-8fa8-0d0376ca99af",
    "resource": {
      "resourceType": "QuestionnaireResponse",
      "id": "2316e366-d43c-401d-8fa8-0d0376ca99af",
      "identifier": {
        "value": "60319"
      },
      "questionnaire": {
        "reference": "urn:uuid:a5a15cf7-819b-4ac7-b901-102e27d3a856"
      },
      "status": "completed",
      "subject": {
        "reference": "urn:uuid:36d74111-2ff7-442b-82da-fc4983f50a44"
      },
      "context": {
        "reference": "urn:uuid:4e80aba5-2abf-4d2e-8631-1ff3f20f10f4"
      },
      "authored": "2021-04-06T15:19:34+00:00",
      "item": [ {
        "linkId": "Tx222687",
        "text": "Have you got any of the medication available at the moment?",
        "answer": [ {
          "valueString": "no"
        } ]
      } ]
    }
  }, {
    "fullUrl": "urn:uuid:a5a15cf7-819b-4ac7-b901-102e27d3a856",
    "resource": {
      "resourceType": "Questionnaire",
      "id": "a5a15cf7-819b-4ac7-b901-102e27d3a856",
      "identifier": [ {
        "value": "60319"
      } ],
      "version": "2021-04-06T15:19:34.083Z",
      "status": "active",
      "experimental": false,
      "date": "2021-04-06T15:19:34+00:00",
      "publisher": "User ID: 'HADFIELDR' User name: 'Ryan Hadfield' User skill set: 'T3'",
      "lastReviewDate": "2021-04-06",
      "contact": [ {
        "telecom": [ {
          "system": "phone",
          "value": "0111 111 1111"
        } ]
      } ],
      "subjectType": [ "Patient" ],
      "item": [ {
        "linkId": "60319",
        "prefix": "200",
        "text": "Have you got any of the medication available at the moment?",
        "type": "choice",
        "required": true,
        "repeats": false,
        "option": [ {
          "valueString": "yes, Selected: false"
        }, {
          "valueString": "not sure, Selected: false"
        }, {
          "valueString": "no, Selected: true"
        } ]
      } ]
    }
  }, {
    "fullUrl": "urn:uuid:c2c9dc51-43ea-4bec-9abe-b116a36fc972",
    "resource": {
      "resourceType": "QuestionnaireResponse",
      "id": "c2c9dc51-43ea-4bec-9abe-b116a36fc972",
      "identifier": {
        "value": "60319"
      },
      "questionnaire": {
        "reference": "urn:uuid:d467fdb0-6aae-4d74-bae4-473f21e6563a"
      },
      "status": "completed",
      "subject": {
        "reference": "urn:uuid:36d74111-2ff7-442b-82da-fc4983f50a44"
      },
      "context": {
        "reference": "urn:uuid:4e80aba5-2abf-4d2e-8631-1ff3f20f10f4"
      },
      "authored": "2021-04-06T15:19:34+00:00",
      "item": [ {
        "linkId": "Tx221367",
        "text": "When is the next dose due?",
        "answer": [ {
          "valueString": "over 12 hours time"
        } ]
      } ]
    }
  }, {
    "fullUrl": "urn:uuid:d467fdb0-6aae-4d74-bae4-473f21e6563a",
    "resource": {
      "resourceType": "Questionnaire",
      "id": "d467fdb0-6aae-4d74-bae4-473f21e6563a",
      "identifier": [ {
        "value": "60319"
      } ],
      "version": "2021-04-06T15:19:34.083Z",
      "status": "active",
      "experimental": false,
      "date": "2021-04-06T15:19:34+00:00",
      "publisher": "User ID: 'HADFIELDR' User name: 'Ryan Hadfield' User skill set: 'T3'",
      "lastReviewDate": "2021-04-06",
      "contact": [ {
        "telecom": [ {
          "system": "phone",
          "value": "0111 111 1111"
        } ]
      } ],
      "subjectType": [ "Patient" ],
      "item": [ {
        "linkId": "60319",
        "prefix": "100",
        "text": "When is the next dose due?",
        "type": "choice",
        "required": true,
        "repeats": false,
        "option": [ {
          "valueString": "within the next 2 hours, Selected: false"
        }, {
          "valueString": "within the next 6 hours, Selected: false"
        }, {
          "valueString": "within the next 12 hours, Selected: false"
        }, {
          "valueString": "over 12 hours time, Selected: true"
        }, {
          "valueString": "not sure, Selected: false"
        } ]
      } ]
    }
  }, {
    "fullUrl": "urn:uuid:3e362185-75e3-4941-b984-ae2f54a81f2e",
    "resource": {
      "resourceType": "QuestionnaireResponse",
      "id": "3e362185-75e3-4941-b984-ae2f54a81f2e",
      "identifier": {
        "value": "60319"
      },
      "questionnaire": {
        "reference": "urn:uuid:0839374d-779e-4aab-a8a3-30e16d3ce791"
      },
      "status": "completed",
      "subject": {
        "reference": "urn:uuid:36d74111-2ff7-442b-82da-fc4983f50a44"
      },
      "context": {
        "reference": "urn:uuid:4e80aba5-2abf-4d2e-8631-1ff3f20f10f4"
      },
      "authored": "2021-04-06T15:19:34+00:00",
      "item": [ {
        "linkId": "Tx223441",
        "text": "STRING:SDPCRepeatPrescription",
        "answer": [ {
          "valueString": "\"PC repeat prescription\""
        } ]
      } ]
    }
  }, {
    "fullUrl": "urn:uuid:0839374d-779e-4aab-a8a3-30e16d3ce791",
    "resource": {
      "resourceType": "Questionnaire",
      "id": "0839374d-779e-4aab-a8a3-30e16d3ce791",
      "identifier": [ {
        "value": "60319"
      } ],
      "version": "2021-04-06T15:19:34.083Z",
      "status": "active",
      "experimental": false,
      "date": "2021-04-06T15:19:34+00:00",
      "publisher": "User ID: 'HADFIELDR' User name: 'Ryan Hadfield' User skill set: 'T3'",
      "lastReviewDate": "2021-04-06",
      "contact": [ {
        "telecom": [ {
          "system": "phone",
          "value": "0111 111 1111"
        } ]
      } ],
      "subjectType": [ "Patient" ],
      "item": [ {
        "linkId": "60319",
        "prefix": "1100",
        "text": "STRING:SDPCRepeatPrescription",
        "type": "choice",
        "required": true,
        "repeats": false,
        "option": [ {
          "valueString": "\"PC repeat prescription\", Selected: true"
        } ]
      } ]
    }
  }, {
    "fullUrl": "urn:uuid:cbc17820-6817-41d9-b202-629077062a5b",
    "resource": {
      "resourceType": "QuestionnaireResponse",
      "id": "cbc17820-6817-41d9-b202-629077062a5b",
      "identifier": {
        "value": "60319"
      },
      "questionnaire": {
        "reference": "urn:uuid:0d766861-4782-4d49-bb17-34bcfb151752"
      },
      "status": "completed",
      "subject": {
        "reference": "urn:uuid:36d74111-2ff7-442b-82da-fc4983f50a44"
      },
      "context": {
        "reference": "urn:uuid:4e80aba5-2abf-4d2e-8631-1ff3f20f10f4"
      },
      "authored": "2021-04-06T15:19:34+00:00"
    }
  }, {
    "fullUrl": "urn:uuid:0d766861-4782-4d49-bb17-34bcfb151752",
    "resource": {
      "resourceType": "Questionnaire",
      "id": "0d766861-4782-4d49-bb17-34bcfb151752",
      "identifier": [ {
        "value": "60319"
      } ],
      "version": "2021-04-06T15:19:34.083Z",
      "status": "active",
      "experimental": false,
      "date": "2021-04-06T15:19:34+00:00",
      "publisher": "User ID: 'HADFIELDR' User name: 'Ryan Hadfield' User skill set: 'T3'",
      "lastReviewDate": "2021-04-06",
      "contact": [ {
        "telecom": [ {
          "system": "phone",
          "value": "0111 111 1111"
        } ]
      } ],
      "subjectType": [ "Patient" ]
    }
  }, {
    "fullUrl": "urn:uuid:34a53229-0cfb-449c-9d96-a69a784af3a9",
    "resource": {
      "resourceType": "QuestionnaireResponse",
      "id": "34a53229-0cfb-449c-9d96-a69a784af3a9",
      "identifier": {
        "value": "60319"
      },
      "questionnaire": {
        "reference": "urn:uuid:38199f12-5940-4ff4-af71-a0313a11a599"
      },
      "status": "completed",
      "subject": {
        "reference": "urn:uuid:36d74111-2ff7-442b-82da-fc4983f50a44"
      },
      "context": {
        "reference": "urn:uuid:4e80aba5-2abf-4d2e-8631-1ff3f20f10f4"
      },
      "authored": "2021-04-06T15:19:34+00:00"
    }
  }, {
    "fullUrl": "urn:uuid:38199f12-5940-4ff4-af71-a0313a11a599",
    "resource": {
      "resourceType": "Questionnaire",
      "id": "38199f12-5940-4ff4-af71-a0313a11a599",
      "identifier": [ {
        "value": "60319"
      } ],
      "version": "2021-04-06T15:19:34.083Z",
      "status": "active",
      "experimental": false,
      "date": "2021-04-06T15:19:34+00:00",
      "publisher": "User ID: 'HADFIELDR' User name: 'Ryan Hadfield' User skill set: 'T3'",
      "lastReviewDate": "2021-04-06",
      "contact": [ {
        "telecom": [ {
          "system": "phone",
          "value": "0111 111 1111"
        } ]
      } ],
      "subjectType": [ "Patient" ]
    }
  }, {
    "fullUrl": "urn:uuid:51e26965-4cc7-4aaa-9f33-8f2fd88d8d51",
    "resource": {
      "resourceType": "PractitionerRole",
      "id": "51e26965-4cc7-4aaa-9f33-8f2fd88d8d51",
      "practitioner": {
        "reference": "urn:uuid:cd5b3f3f-bea0-4231-8b8a-0fc53e6fbc5a"
      },
      "organization": {
        "reference": "urn:uuid:d73dca80-7957-4824-9ddf-6dd520a6512d"
      },
      "code": [ {
        "coding": [ {
          "system": "2.16.840.1.113883.2.1.3.2.4.17.339",
          "code": "DOCTOR",
          "display": "Doctor"
        } ]
      } ]
    }
  }, {
    "fullUrl": "urn:uuid:d73dca80-7957-4824-9ddf-6dd520a6512d",
    "resource": {
      "resourceType": "Organization",
      "id": "d73dca80-7957-4824-9ddf-6dd520a6512d",
      "identifier": [ {
        "value": "RYE"
      } ],
      "name": "RepresentedOrg Name"
    }
  }, {
    "fullUrl": "urn:uuid:b8d896f0-52fb-4b9f-926d-1bd9a3e44b50",
    "resource": {
      "resourceType": "PractitionerRole",
      "id": "b8d896f0-52fb-4b9f-926d-1bd9a3e44b50",
      "practitioner": {
        "reference": "urn:uuid:8347a7a1-8acc-4f3f-9978-097be254dbaf"
      },
      "organization": {
        "reference": "urn:uuid:7631c063-5742-48e0-940a-a1d3a663ee3c"
      },
      "code": [ {
        "coding": [ {
          "system": "2.16.840.1.113883.2.1.3.2.4.17.196",
          "code": "R0010",
          "display": "Medical Director"
        } ]
      } ]
    }
  }, {
    "fullUrl": "urn:uuid:7631c063-5742-48e0-940a-a1d3a663ee3c",
    "resource": {
      "resourceType": "Organization",
      "id": "7631c063-5742-48e0-940a-a1d3a663ee3c",
      "identifier": [ {
        "value": "RYE"
      } ],
      "name": "RepresentedOrgNameRYE"
    }
  }, {
    "fullUrl": "urn:uuid:4eeea6f5-efd1-4aa7-8d38-de8cbe190412",
    "resource": {
      "resourceType": "RelatedPerson",
      "id": "4eeea6f5-efd1-4aa7-8d38-de8cbe190412",
      "patient": {
        "reference": "urn:uuid:36d74111-2ff7-442b-82da-fc4983f50a44"
      },
      "relationship": {
        "coding": [ {
          "system": "http://hl7.org/fhir/v2/0131",
          "code": "C",
          "display": "Emergency Contact"
        } ]
      },
      "telecom": [ {
        "system": "phone",
        "value": "tel:000000000000"
      } ]
    }
  }, {
    "fullUrl": "urn:uuid:6aa80e38-cea6-4d8a-9c8a-2b00c4d9da31",
    "resource": {
      "resourceType": "Device",
      "id": "6aa80e38-cea6-4d8a-9c8a-2b00c4d9da31",
      "model": "111 Adaptor",
      "version": "1.0.1"
    }
  }, {
    "fullUrl": "urn:uuid:23918085-6f94-49b1-8a6f-b825c3d3f1ca",
    "resource": {
      "resourceType": "List",
      "id": "23918085-6f94-49b1-8a6f-b825c3d3f1ca",
      "status": "current",
      "mode": "working",
      "title": "111 Report List",
      "code": {
        "coding": [ {
          "system": "http://snomed.info/sct",
          "code": "225390008",
          "display": "Triage"
        } ]
      },
      "subject": {
        "reference": "urn:uuid:36d74111-2ff7-442b-82da-fc4983f50a44"
      },
      "encounter": {
        "reference": "urn:uuid:4e80aba5-2abf-4d2e-8631-1ff3f20f10f4"
      },
      "date": "2021-04-06T15:19:34+00:00",
      "source": {
        "reference": "urn:uuid:6aa80e38-cea6-4d8a-9c8a-2b00c4d9da31"
      },
      "orderedBy": {
        "coding": [ {
          "system": "http://hl7.org/fhir/list-order",
          "code": "event-date",
          "display": "Sorted by Event Date"
        } ]
      },
      "entry": [ {
        "item": {
          "reference": "urn:uuid:1084def7-2ceb-4930-8cbf-4d51e1faefd5"
        }
      }, {
        "item": {
          "reference": "urn:uuid:4eeea6f5-efd1-4aa7-8d38-de8cbe190412"
        }
      }, {
        "item": {
          "reference": "urn:uuid:7631c063-5742-48e0-940a-a1d3a663ee3c"
        }
      }, {
        "item": {
          "reference": "urn:uuid:f9ea2f30-d28b-4425-9a34-fedc6975163a"
        }
      }, {
        "item": {
          "reference": "urn:uuid:8347a7a1-8acc-4f3f-9978-097be254dbaf"
        }
      }, {
        "item": {
          "reference": "urn:uuid:cd5b3f3f-bea0-4231-8b8a-0fc53e6fbc5a"
        }
      }, {
        "item": {
          "reference": "urn:uuid:735867e7-1863-412d-8651-64e0365785d9"
        }
      }, {
        "item": {
          "reference": "urn:uuid:d73dca80-7957-4824-9ddf-6dd520a6512d"
        }
      }, {
        "item": {
          "reference": "urn:uuid:0b686ba2-30b7-4289-b752-984dad2f1d73"
        }
      }, {
        "item": {
          "reference": "urn:uuid:3e362185-75e3-4941-b984-ae2f54a81f2e"
        }
      }, {
        "item": {
          "reference": "urn:uuid:0d766861-4782-4d49-bb17-34bcfb151752"
        }
      }, {
        "item": {
          "reference": "urn:uuid:8664e511-e929-48dc-9fdc-0b1b71a19ea7"
        }
      }, {
        "item": {
          "reference": "urn:uuid:ef708267-d367-425c-adab-ea09ff600c56"
        }
      }, {
        "item": {
          "reference": "urn:uuid:c2c9dc51-43ea-4bec-9abe-b116a36fc972"
        }
      }, {
        "item": {
          "reference": "urn:uuid:d467fdb0-6aae-4d74-bae4-473f21e6563a"
        }
      }, {
        "item": {
          "reference": "urn:uuid:5852fe96-6c72-434d-a781-4641f1b0b0e2"
        }
      }, {
        "item": {
          "reference": "urn:uuid:31b50fe0-4439-4fce-b29b-1fe1f95d9112"
        }
      }, {
        "item": {
          "reference": "urn:uuid:11fe36bd-ea49-41f6-b423-888390fa9379"
        }
      }, {
        "item": {
          "reference": "urn:uuid:99ed05ad-8c66-47bd-af70-76143ddd28a1"
        }
      }, {
        "item": {
          "reference": "urn:uuid:5970edb0-46f4-4369-b337-5026c0e18fff"
        }
      }, {
        "item": {
          "reference": "urn:uuid:dbc194ec-fa2d-4a59-8fbd-13c136a21e0f"
        }
      }, {
        "item": {
          "reference": "urn:uuid:a5a15cf7-819b-4ac7-b901-102e27d3a856"
        }
      }, {
        "item": {
          "reference": "urn:uuid:b0d8f21b-a8f7-48de-a5cd-b0940d55c27d"
        }
      }, {
        "item": {
          "reference": "urn:uuid:0839374d-779e-4aab-a8a3-30e16d3ce791"
        }
      }, {
        "item": {
          "reference": "urn:uuid:cbc17820-6817-41d9-b202-629077062a5b"
        }
      }, {
        "item": {
          "reference": "urn:uuid:8da2c05c-982b-433a-a211-82a8e419cad2"
        }
      }, {
        "item": {
          "reference": "urn:uuid:fe9ac563-59e6-4430-8f45-85ba888b0f5e"
        }
      }, {
        "item": {
          "reference": "urn:uuid:223952c3-eb80-49c4-9120-bba289f5e378"
        }
      }, {
        "item": {
          "reference": "urn:uuid:8c50a3bf-1c74-4d22-af13-3abf20db9632"
        }
      }, {
        "item": {
          "reference": "urn:uuid:e4177dd3-b430-4a2f-8e5c-829315e0f4a5"
        }
      }, {
        "item": {
          "reference": "urn:uuid:6b5dfd81-461d-422d-85e7-357062a0179e"
        }
      }, {
        "item": {
          "reference": "urn:uuid:38199f12-5940-4ff4-af71-a0313a11a599"
        }
      }, {
        "item": {
          "reference": "urn:uuid:dd5586e5-9a6d-46c4-97b9-7cc6d2fcd5e0"
        }
      }, {
        "item": {
          "reference": "urn:uuid:9a836dd1-82a9-4a66-8e0c-8ff299b952f1"
        }
      }, {
        "item": {
          "reference": "urn:uuid:c4b4fcdd-4e68-462b-96ab-cd1239d9d83e"
        }
      }, {
        "item": {
          "reference": "urn:uuid:2316e366-d43c-401d-8fa8-0d0376ca99af"
        }
      }, {
        "item": {
          "reference": "urn:uuid:66d7c76e-c8f4-4948-9a77-a8a0e1e9f137"
        }
      }, {
        "item": {
          "reference": "urn:uuid:fa333127-c153-4924-9d13-d5017f831d31"
        }
      }, {
        "item": {
          "reference": "urn:uuid:34a53229-0cfb-449c-9d96-a69a784af3a9"
        }
      }, {
        "item": {
          "reference": "urn:uuid:a692bffc-c629-47d4-855b-7297354252fa"
        }
      } ]
    }
  } ]
}