{
  "resourceType": "Bundle",
  "identifier": {
    "type": {
      "text": "ClinicalDocument VersionNumber"
    },
    "value": "1"
  },
  "type": "message",
  "entry": [ {
    "fullUrl": "urn:uuid:05040617-33BA-4344-AA59-281CF2FE63CA",
    "resource": {
      "resourceType": "MessageHeader",
      "id": "05040617-33BA-4344-AA59-281CF2FE63CA",
      "event": {
        "system": "https://fhir.nhs.uk/STU3/CodeSystem/EventType-1",
        "code": "referral-1",
        "display": "Referral"
      },
      "destination": [ {
        "endpoint": "urn:nhs-uk:addressing:ods:FHR04RPX:DOSServiceID:2000038667"
      } ],
      "timestamp": "2021-04-06T15:19:34.000+00:00",
      "source": {
        "name": "NHS 111 Adaptor",
        "endpoint": "http://localhost:8080/report"
      },
      "reason": {
        "coding": [ {
          "system": "urn:nhs-itk:ns:201005:interaction",
          "code": "urn:nhs-itk:interaction:primaryOutofHourRecipientNHS111CDADocument-v2-0"
        } ]
      }
    }
  }, {
    "fullUrl": "urn:uuid:b395864e-d919-41b7-bb80-36580fd80937",
    "resource": {
      "resourceType": "Encounter",
      "id": "b395864e-d919-41b7-bb80-36580fd80937",
      "identifier": [ {
        "system": "2.16.840.1.113883.2.1.3.2.4.18.34",
        "value": "AdastraCaseGUID34"
      }, {
        "system": "2.16.840.1.113883.2.1.3.2.4.18.35",
        "value": "AdastraCaseID35"
      }, {
        "system": "2.16.840.1.113883.2.1.3.2.4.18.49",
        "value": "AdastraCaseGUID49"
      } ],
      "status": "finished",
      "type": [ {
        "text": "111 Encounter Referral"
      } ],
      "subject": {
        "reference": "urn:uuid:ef0afd6e-191a-499e-97e4-edf7e1d97f33"
      },
      "participant": [ {
        "type": [ {
          "coding": [ {
            "system": "http://hl7.org/fhir/ValueSet/encounter-participant-type",
            "code": "PPRF",
            "display": "Author"
          } ]
        } ],
        "individual": {
          "reference": "urn:uuid:84cd5752-f47c-4e55-90df-33b2ea4bfa55"
        }
      }, {
        "type": [ {
          "text": "Informant"
        } ],
        "individual": {
          "reference": "urn:uuid:8d0a2521-9039-4e74-9d50-142904c8cc71"
        }
      }, {
        "type": [ {
          "coding": [ {
            "system": "http://hl7.org/fhir/ValueSet/encounter-participant-type",
            "code": "ATND",
            "display": "Responsible Party"
          } ]
        } ],
        "individual": {
          "reference": "urn:uuid:a0eae29b-8b50-4e82-b3e7-20bc383cf816"
        }
      } ],
      "period": {
        "start": "2021-04-06T15:19:34+00:00"
      },
      "location": [ {
        "location": {
          "reference": "urn:uuid:6320ccd0-3312-4b9c-84b8-38668b7e6d90"
        },
        "status": "completed"
      } ],
      "serviceProvider": {
        "reference": "urn:uuid:afedf802-87a9-4bea-be3a-d9837773ff16"
      }
    }
  }, {
    "fullUrl": "urn:uuid:afedf802-87a9-4bea-be3a-d9837773ff16",
    "resource": {
      "resourceType": "Organization",
      "id": "afedf802-87a9-4bea-be3a-d9837773ff16",
      "active": true,
      "type": [ {
        "text": "CST"
      } ],
      "name": "CustodianName"
    }
  }, {
    "fullUrl": "urn:uuid:84cd5752-f47c-4e55-90df-33b2ea4bfa55",
    "resource": {
      "resourceType": "Practitioner",
      "id": "84cd5752-f47c-4e55-90df-33b2ea4bfa55",
      "active": true,
      "name": [ {
        "use": "official",
        "family": "AuthorAssignedPerson FamilyName",
        "given": [ "AuthorAssignedPerson GivenName" ]
      } ]
    }
  }, {
    "fullUrl": "urn:uuid:8d0a2521-9039-4e74-9d50-142904c8cc71",
    "resource": {
      "resourceType": "RelatedPerson",
      "id": "8d0a2521-9039-4e74-9d50-142904c8cc71",
      "active": true,
      "patient": {
        "reference": "urn:uuid:ef0afd6e-191a-499e-97e4-edf7e1d97f33"
      },
      "relationship": {
        "coding": [ {
          "system": "2.16.840.1.113883.2.1.3.2.4.16.45",
          "code": "16",
          "display": "Relative"
        } ]
      },
      "name": [ {
        "text": "RelatedPerson Name"
      } ],
      "telecom": [ {
        "system": "phone",
        "value": "tel:01111111111",
        "use": "home"
      } ],
      "gender": "unknown"
    }
  }, {
    "fullUrl": "urn:uuid:a0eae29b-8b50-4e82-b3e7-20bc383cf816",
    "resource": {
      "resourceType": "Practitioner",
      "id": "a0eae29b-8b50-4e82-b3e7-20bc383cf816",
      "active": true,
      "name": [ {
        "use": "official",
        "family": "ResponsablePartyMD FamilyName",
        "given": [ "ResponsablePartyMD GivenName" ]
      } ]
    }
  }, {
    "fullUrl": "urn:uuid:6320ccd0-3312-4b9c-84b8-38668b7e6d90",
    "resource": {
      "resourceType": "Location",
      "id": "6320ccd0-3312-4b9c-84b8-38668b7e6d90",
      "name": "Incident Location",
      "address": {
        "type": "physical",
        "line": [ "HealthCareFacility AddressLine1", "HealthCareFacility AddressLine2", "HealthCareFacility AddressLine3", "HealthCareFacility AddressLine4", "HealthCareFacility AddressLine5" ],
        "postalCode": "LOH25 4NS"
      }
    }
  }, {
    "fullUrl": "urn:uuid:ef0afd6e-191a-499e-97e4-edf7e1d97f33",
    "resource": {
      "resourceType": "Patient",
      "id": "ef0afd6e-191a-499e-97e4-edf7e1d97f33",
      "active": true,
      "name": [ {
        "use": "official",
        "family": "Patient Family Name",
        "given": [ "Patient Given Name" ]
      } ],
      "telecom": [ {
        "system": "phone",
        "value": "tel:000000000000",
        "use": "home"
      }, {
        "system": "phone",
        "value": "tel:000000000000"
      } ],
      "gender": "other",
      "birthDate": "1990-02-02",
      "address": [ {
        "use": "home",
        "line": [ "Home Address Line 1", "Home Address Line 2", "Home Address Line 3", "Home Address Line 4", "Home Address Line 5" ],
        "postalCode": "HA25 4NS"
      }, {
        "type": "physical",
        "line": [ "Home Address Line 1", "Home Address Line 2", "Home Address Line 3", "Home Address Line 4", "Home Address Line 5" ],
        "postalCode": "PH25 4NS"
      } ]
    }
  }, {
    "fullUrl": "urn:uuid:9cedd4bf-e567-400f-b794-cd273cd43d19",
    "resource": {
      "resourceType": "HealthcareService",
      "id": "9cedd4bf-e567-400f-b794-cd273cd43d19",
      "active": true,
      "providedBy": {
        "reference": "urn:uuid:2fed2bab-d78f-4ffe-b559-530dcdb00d84"
      },
      "location": [ {
        "reference": "urn:uuid:3e916ced-73e3-431f-aae1-ddc43240b35d"
      } ],
      "name": "InformationRecipient IntendedRecipient Name FHR0"
    }
  }, {
    "fullUrl": "urn:uuid:3e916ced-73e3-431f-aae1-ddc43240b35d",
    "resource": {
      "resourceType": "Location",
      "id": "3e916ced-73e3-431f-aae1-ddc43240b35d",
      "managingOrganization": {
        "reference": "urn:uuid:2fed2bab-d78f-4ffe-b559-530dcdb00d84"
      }
    }
  }, {
    "fullUrl": "urn:uuid:2fed2bab-d78f-4ffe-b559-530dcdb00d84",
    "resource": {
      "resourceType": "Organization",
      "id": "2fed2bab-d78f-4ffe-b559-530dcdb00d84",
      "identifier": [ {
        "value": "FHR04RPX"
      } ],
      "type": [ {
        "coding": [ {
          "code": "PRCP",
          "display": "InformationRecipient IntendedRecipient Name FHR0"
        } ]
      } ],
      "name": "InformationRecipient IntendedRecipient Name FHR0"
    }
  }, {
    "fullUrl": "urn:uuid:96088051-9548-4aa2-a492-ca2d5b2032e1",
    "resource": {
      "resourceType": "ReferralRequest",
      "id": "96088051-9548-4aa2-a492-ca2d5b2032e1",
      "status": "active",
      "intent": "plan",
      "priority": "routine",
      "subject": {
        "reference": "urn:uuid:ef0afd6e-191a-499e-97e4-edf7e1d97f33"
      },
      "context": {
        "reference": "urn:uuid:b395864e-d919-41b7-bb80-36580fd80937"
      },
      "occurrencePeriod": {
        "start": "2021-09-29T10:03:13+00:00",
        "end": "2021-09-29T11:03:13+00:00"
      },
      "authoredOn": "2021-04-06T15:19:29+00:00",
      "requester": {
        "agent": {
          "reference": "urn:uuid:c483b66b-b8f8-42ed-9f18-490c0d2604da"
        },
        "onBehalfOf": {
          "reference": "urn:uuid:afedf802-87a9-4bea-be3a-d9837773ff16"
        }
      },
      "recipient": [ {
        "reference": "urn:uuid:9cedd4bf-e567-400f-b794-cd273cd43d19"
      } ],
      "reasonReference": [ {
        "reference": "urn:uuid:71a3c84a-dfe3-4818-8029-7bb5000e3ddd"
      } ],
      "supportingInfo": [ {
        "reference": "urn:uuid:85b1b6e5-4fa5-4a52-b03a-6f12e3e4ef58"
      } ]
    }
  }, {
    "fullUrl": "urn:uuid:85b1b6e5-4fa5-4a52-b03a-6f12e3e4ef58",
    "resource": {
      "resourceType": "ProcedureRequest",
      "id": "85b1b6e5-4fa5-4a52-b03a-6f12e3e4ef58",
      "status": "active",
      "intent": "plan",
      "priority": "routine",
      "doNotPerform": false,
      "code": {
        "coding": [ {
          "system": "2.16.840.1.113883.2.1.3.2.4.17.325",
          "code": "DispoCodeDx87",
          "display": "DispoName - Repeat Prescription required within 24 hours"
        } ]
      },
      "subject": {
        "reference": "urn:uuid:ef0afd6e-191a-499e-97e4-edf7e1d97f33"
      },
      "occurrencePeriod": {
        "start": "2021-09-29T10:03:13+00:00",
        "end": "2021-09-29T11:03:13+00:00"
      },
      "reasonReference": [ {
        "reference": "urn:uuid:71a3c84a-dfe3-4818-8029-7bb5000e3ddd"
      } ]
    }
  }, {
    "fullUrl": "urn:uuid:4eed51cc-c64d-47b6-9709-bc4443aa74ba",
    "resource": {
      "resourceType": "Composition",
      "id": "4eed51cc-c64d-47b6-9709-bc4443aa74ba",
      "identifier": {
        "use": "usual",
        "value": "E2DF04F7-95CA-40AD-808D-797C0A89E39C"
      },
      "status": "final",
      "type": {
        "coding": [ {
          "system": "http://snomed.info/sct",
          "code": "371531000",
          "display": "Report of clinical encounter (record artifact)"
        } ]
      },
      "subject": {
        "reference": "urn:uuid:ef0afd6e-191a-499e-97e4-edf7e1d97f33"
      },
      "encounter": {
        "reference": "urn:uuid:b395864e-d919-41b7-bb80-36580fd80937"
      },
      "date": "2021-09-29T10:03:13+00:00",
      "author": [ {
        "reference": "urn:uuid:84cd5752-f47c-4e55-90df-33b2ea4bfa55"
      } ],
      "title": "111 Report",
      "confidentiality": "N",
      "section": [ {
        "section": [ {
          "title": "ComponentTitle - Patient's Reported Condition",
          "text": {
            "status": "generated",
            "div": "<div xmlns=\"http://www.w3.org/1999/xhtml\">&lt;content&gt;ComponentText - Pharmacy ITK Testing&lt;/content&gt;\n                                                    &lt;br/&gt;</div>"
          }
        }, {
          "title": "ComponentTitle - Pathways Disposition",
          "text": {
            "status": "generated",
            "div": "<div xmlns=\"http://www.w3.org/1999/xhtml\">ComponentText - Repeat Prescription required within 24 hours (Dx87)                                         &lt;br/&gt;\n                                                    &lt;br/&gt;                                         Selected service: Springvale, Fraser Road, Kings Worthy, Winchester&lt;br/&gt;</div>"
          }
        }, {
          "title": "ComponentTitle - Consultation Summary",
          "text": {
            "status": "generated",
            "div": "<div xmlns=\"http://www.w3.org/1999/xhtml\">ComponentText - Prescription request&lt;br/&gt;Not enough medication until surgery opens&lt;br/&gt;No medication available&lt;br/&gt;Next dose due in over 12 hours time&lt;br/&gt;</div>"
          }
        }, {
          "title": "ComponentTitle - Pathways Assessment",
          "text": {
            "status": "generated",
            "div": "<div xmlns=\"http://www.w3.org/1999/xhtml\">ComponentText - Reason for call menu - continued to next list.&lt;br/&gt;A prescription request was the main reason for the contact.&lt;br/&gt;The main reason for the contact was not a new or worsening illness.&lt;br/&gt;The individual did not have enough medication to last until the surgery next opened.&lt;br/&gt;The medication was suitable for repeat prescribing without further consultation.&lt;br/&gt;The individual had no medication available.&lt;br/&gt;The next dose was due in over 12 hours time.&lt;br/&gt;Instructions given were: The individual needs a repeat prescription.&lt;br/&gt;Directory of Services referral: Springvale, Fraser Road, Kings Worthy, Winchester&lt;br/&gt;</div>"
          }
        }, {
          "title": "ComponentTitle - Advice Given",
          "text": {
            "status": "generated",
            "div": "<div xmlns=\"http://www.w3.org/1999/xhtml\">ComponentText - I will arrange for a clinician or pharmacist to speak to the individual.&lt;br/&gt;IF THE RECOMMENDED TIMEFRAME FALLS OUTSIDE OPENING HOURS: I will arrange for a clinician to speak to the individual.&lt;br/&gt;\n                                                    &lt;br/&gt;</div>"
          }
        }, {
          "title": "ComponentTitle - Information And Advice Given"
        }, {
          "title": "ComponentTitle - Disposition",
          "text": {
            "status": "generated",
            "div": "<div xmlns=\"http://www.w3.org/1999/xhtml\">&lt;content&gt;ComponentText - Repeat Prescription required within 24 hours&lt;br/&gt;\n                                                    &lt;/content&gt;\n                                                    &lt;br/&gt;\n                                                    &lt;br/&gt;</div>"
          }
        } ]
      }, {
        "title": "CarePlan",
        "entry": [ {
          "reference": "urn:uuid:154aa7e0-9d64-4d59-ae73-6fcc610418b1"
        } ]
      }, {
        "title": "ReferralRequest",
        "entry": [ {
          "reference": "urn:uuid:96088051-9548-4aa2-a492-ca2d5b2032e1"
        } ]
      }, {
        "title": "QuestionnaireResponse",
        "entry": [ {
          "reference": "urn:uuid:d863c426-eef3-41b1-a73f-2735a0a1f7da"
        } ]
      }, {
        "title": "QuestionnaireResponse",
        "entry": [ {
          "reference": "urn:uuid:f124c034-4052-4647-8a75-b60ca15b1100"
        } ]
      }, {
        "title": "QuestionnaireResponse",
        "entry": [ {
          "reference": "urn:uuid:3ab08f5b-5e3d-438d-ad32-d416dcf70d01"
        } ]
      }, {
        "title": "QuestionnaireResponse",
        "entry": [ {
          "reference": "urn:uuid:8cc2f989-c514-4e71-8d54-1600a3a7ed6f"
        } ]
      }, {
        "title": "QuestionnaireResponse",
        "entry": [ {
          "reference": "urn:uuid:47664a7a-e318-4882-b745-418df2e623e5"
        } ]
      }, {
        "title": "QuestionnaireResponse",
        "entry": [ {
          "reference": "urn:uuid:340bd714-11da-422d-b714-3a8bab1df367"
        } ]
      }, {
        "title": "QuestionnaireResponse",
        "entry": [ {
          "reference": "urn:uuid:312e4e17-9349-441c-a9e7-0081eacd4e1a"
        } ]
      }, {
        "title": "QuestionnaireResponse",
        "entry": [ {
          "reference": "urn:uuid:77ccdd63-2422-4ffb-ae32-b92f71964273"
        } ]
      }, {
        "title": "QuestionnaireResponse",
        "entry": [ {
          "reference": "urn:uuid:d09eae87-dfa7-4d85-b666-281821f4fe1a"
        } ]
      }, {
        "title": "QuestionnaireResponse",
        "entry": [ {
          "reference": "urn:uuid:b9a97a36-e297-4d25-ab79-5abe79d631b7"
        } ]
      }, {
        "title": "QuestionnaireResponse",
        "entry": [ {
          "reference": "urn:uuid:9fe250f1-4c8c-4e21-a8b6-80f20181eea7"
        } ]
      }, {
        "title": "QuestionnaireResponse",
        "entry": [ {
          "reference": "urn:uuid:cd0e7c50-953c-48dd-9781-995efeec12d1"
        } ]
      }, {
        "title": "QuestionnaireResponse",
        "entry": [ {
          "reference": "urn:uuid:4cc7e48d-65ca-4ca4-af2d-9b7f054db960"
        } ]
      }, {
        "title": "QuestionnaireResponse",
        "entry": [ {
          "reference": "urn:uuid:274f5f2b-9a73-466f-a10e-0435f053e2d2"
        } ]
      }, {
        "title": "QuestionnaireResponse",
        "entry": [ {
          "reference": "urn:uuid:fbde3869-c9ff-4ea0-b337-8d5ae8eb3e1e"
        } ]
      } ]
    }
  }, {
    "fullUrl": "urn:uuid:154aa7e0-9d64-4d59-ae73-6fcc610418b1",
    "resource": {
      "resourceType": "CarePlan",
      "id": "154aa7e0-9d64-4d59-ae73-6fcc610418b1",
      "status": "completed",
      "intent": "plan",
      "title": "ComponentTitle - Information And Advice Given",
      "subject": {
        "reference": "urn:uuid:ef0afd6e-191a-499e-97e4-edf7e1d97f33"
      },
      "context": {
        "reference": "urn:uuid:b395864e-d919-41b7-bb80-36580fd80937"
      },
      "period": {
        "start": "2021-04-06T15:19:34+00:00"
      },
      "addresses": [ {
        "reference": "urn:uuid:71a3c84a-dfe3-4818-8029-7bb5000e3ddd"
      } ]
    }
  }, {
    "fullUrl": "urn:uuid:8786feb8-cb48-4f2b-9ff9-516ea223c88e",
    "resource": {
      "resourceType": "Consent",
      "id": "8786feb8-cb48-4f2b-9ff9-516ea223c88e",
      "identifier": {
        "use": "usual",
        "value": "E2DF04F7-95CA-40AD-808D-797C0A89E39C"
      },
      "status": "active",
      "patient": {
        "reference": "urn:uuid:ef0afd6e-191a-499e-97e4-edf7e1d97f33"
      },
      "period": {
        "start": "2021-04-06T15:19:34+00:00"
      },
      "consentingParty": [ {
        "reference": "urn:uuid:ef0afd6e-191a-499e-97e4-edf7e1d97f33"
      } ],
      "action": [ {
        "coding": [ {
          "system": "http://snomed.info/sct",
          "code": "425691002",
          "display": "Consent given for electronic record sharing"
        } ],
        "text": "Consent given for electronic record sharing"
      } ],
      "organization": [ {
        "reference": "urn:uuid:afedf802-87a9-4bea-be3a-d9837773ff16"
      } ],
      "policyRule": "http://hl7.org/fhir/ConsentPolicy/opt-out",
      "data": [ {
        "meaning": "related",
        "reference": {
          "reference": "urn:uuid:b395864e-d919-41b7-bb80-36580fd80937"
        }
      } ]
    }
  }, {
    "fullUrl": "urn:uuid:71a3c84a-dfe3-4818-8029-7bb5000e3ddd",
    "resource": {
      "resourceType": "Condition",
      "id": "71a3c84a-dfe3-4818-8029-7bb5000e3ddd",
      "clinicalStatus": "active",
      "verificationStatus": "unknown",
      "subject": {
        "reference": "urn:uuid:ef0afd6e-191a-499e-97e4-edf7e1d97f33"
      },
      "context": {
        "reference": "urn:uuid:b395864e-d919-41b7-bb80-36580fd80937"
      },
      "evidence": [ {
        "detail": [ {
          "reference": "urn:uuid:d863c426-eef3-41b1-a73f-2735a0a1f7da"
        } ]
      }, {
        "detail": [ {
          "reference": "urn:uuid:f124c034-4052-4647-8a75-b60ca15b1100"
        } ]
      }, {
        "detail": [ {
          "reference": "urn:uuid:3ab08f5b-5e3d-438d-ad32-d416dcf70d01"
        } ]
      }, {
        "detail": [ {
          "reference": "urn:uuid:8cc2f989-c514-4e71-8d54-1600a3a7ed6f"
        } ]
      }, {
        "detail": [ {
          "reference": "urn:uuid:47664a7a-e318-4882-b745-418df2e623e5"
        } ]
      }, {
        "detail": [ {
          "reference": "urn:uuid:340bd714-11da-422d-b714-3a8bab1df367"
        } ]
      }, {
        "detail": [ {
          "reference": "urn:uuid:312e4e17-9349-441c-a9e7-0081eacd4e1a"
        } ]
      }, {
        "detail": [ {
          "reference": "urn:uuid:77ccdd63-2422-4ffb-ae32-b92f71964273"
        } ]
      }, {
        "detail": [ {
          "reference": "urn:uuid:d09eae87-dfa7-4d85-b666-281821f4fe1a"
        } ]
      }, {
        "detail": [ {
          "reference": "urn:uuid:b9a97a36-e297-4d25-ab79-5abe79d631b7"
        } ]
      }, {
        "detail": [ {
          "reference": "urn:uuid:9fe250f1-4c8c-4e21-a8b6-80f20181eea7"
        } ]
      }, {
        "detail": [ {
          "reference": "urn:uuid:cd0e7c50-953c-48dd-9781-995efeec12d1"
        } ]
      }, {
        "detail": [ {
          "reference": "urn:uuid:4cc7e48d-65ca-4ca4-af2d-9b7f054db960"
        } ]
      }, {
        "detail": [ {
          "reference": "urn:uuid:274f5f2b-9a73-466f-a10e-0435f053e2d2"
        } ]
      }, {
        "detail": [ {
          "reference": "urn:uuid:fbde3869-c9ff-4ea0-b337-8d5ae8eb3e1e"
        } ]
      } ]
    }
  }, {
    "fullUrl": "urn:uuid:d863c426-eef3-41b1-a73f-2735a0a1f7da",
    "resource": {
      "resourceType": "QuestionnaireResponse",
      "id": "d863c426-eef3-41b1-a73f-2735a0a1f7da",
      "identifier": {
        "value": "60319"
      },
      "questionnaire": {
        "reference": "urn:uuid:6762dcb5-37a9-4e4c-9c5c-359f76386dda"
      },
      "status": "completed",
      "subject": {
        "reference": "urn:uuid:ef0afd6e-191a-499e-97e4-edf7e1d97f33"
      },
      "context": {
        "reference": "urn:uuid:b395864e-d919-41b7-bb80-36580fd80937"
      },
      "authored": "2021-04-06T15:19:34+00:00",
      "item": [ {
        "linkId": "Tx220109",
        "text": "What is the reason for the contact?",
        "answer": [ {
          "valueString": "more"
        } ]
      } ]
    }
  }, {
    "fullUrl": "urn:uuid:6762dcb5-37a9-4e4c-9c5c-359f76386dda",
    "resource": {
      "resourceType": "Questionnaire",
      "id": "6762dcb5-37a9-4e4c-9c5c-359f76386dda",
      "identifier": [ {
        "value": "60319"
      } ],
      "version": "2021-04-06T15:19:34.083Z",
      "status": "active",
      "experimental": false,
      "date": "2021-04-06T15:19:34+00:00",
      "publisher": "User ID: 'HADFIELDR' User name: 'Ryan Hadfield' User skill set: 'T3'",
      "lastReviewDate": "2021-04-06",
      "contact": [ {
        "telecom": [ {
          "system": "phone",
          "value": "0111 111 1111"
        } ]
      } ],
      "subjectType": [ "Patient" ],
      "item": [ {
        "linkId": "60319",
        "prefix": "5",
        "text": "What is the reason for the contact?",
        "type": "choice",
        "required": true,
        "repeats": false,
        "option": [ {
          "valueString": "an injury or other health problem, Selected: false"
        }, {
          "valueString": "a need to access another healthcare service, Selected: false"
        }, {
          "valueString": "a healthcare professional requesting contact with another clinician, Selected: false"
        }, {
          "valueString": "a report of results or tests, Selected: false"
        }, {
          "valueString": "more, Selected: true"
        } ]
      } ]
    }
  }, {
    "fullUrl": "urn:uuid:f124c034-4052-4647-8a75-b60ca15b1100",
    "resource": {
      "resourceType": "QuestionnaireResponse",
      "id": "f124c034-4052-4647-8a75-b60ca15b1100",
      "identifier": {
        "value": "60319"
      },
      "questionnaire": {
        "reference": "urn:uuid:64995b95-c008-469c-8dbd-f6c37194b6cc"
      },
      "status": "completed",
      "subject": {
        "reference": "urn:uuid:ef0afd6e-191a-499e-97e4-edf7e1d97f33"
      },
      "context": {
        "reference": "urn:uuid:b395864e-d919-41b7-bb80-36580fd80937"
      },
      "authored": "2021-04-06T15:19:34+00:00",
      "item": [ {
        "linkId": "Tx221793",
        "text": "STRING:to'Social&information'-further'Callreason'menu",
        "answer": [ {
          "valueString": "\"present\""
        } ]
      } ]
    }
  }, {
    "fullUrl": "urn:uuid:64995b95-c008-469c-8dbd-f6c37194b6cc",
    "resource": {
      "resourceType": "Questionnaire",
      "id": "64995b95-c008-469c-8dbd-f6c37194b6cc",
      "identifier": [ {
        "value": "60319"
      } ],
      "version": "2021-04-06T15:19:34.083Z",
      "status": "active",
      "experimental": false,
      "date": "2021-04-06T15:19:34+00:00",
      "publisher": "User ID: 'HADFIELDR' User name: 'Ryan Hadfield' User skill set: 'T3'",
      "lastReviewDate": "2021-04-06",
      "contact": [ {
        "telecom": [ {
          "system": "phone",
          "value": "0111 111 1111"
        } ]
      } ],
      "subjectType": [ "Patient" ],
      "item": [ {
        "linkId": "60319",
        "prefix": "600",
        "text": "STRING:to'Social&information'-further'Callreason'menu",
        "type": "choice",
        "required": true,
        "repeats": false,
        "option": [ {
          "valueString": "\"present\", Selected: true"
        } ]
      } ]
    }
  }, {
    "fullUrl": "urn:uuid:3ab08f5b-5e3d-438d-ad32-d416dcf70d01",
    "resource": {
      "resourceType": "QuestionnaireResponse",
      "id": "3ab08f5b-5e3d-438d-ad32-d416dcf70d01",
      "identifier": {
        "value": "60319"
      },
      "questionnaire": {
        "reference": "urn:uuid:16e2fbff-efba-4038-8ca7-f0d2b61826e1"
      },
      "status": "completed",
      "subject": {
        "reference": "urn:uuid:ef0afd6e-191a-499e-97e4-edf7e1d97f33"
      },
      "context": {
        "reference": "urn:uuid:b395864e-d919-41b7-bb80-36580fd80937"
      },
      "authored": "2021-04-06T15:19:34+00:00"
    }
  }, {
    "fullUrl": "urn:uuid:16e2fbff-efba-4038-8ca7-f0d2b61826e1",
    "resource": {
      "resourceType": "Questionnaire",
      "id": "16e2fbff-efba-4038-8ca7-f0d2b61826e1",
      "identifier": [ {
        "value": "60319"
      } ],
      "version": "2021-04-06T15:19:34.083Z",
      "status": "active",
      "experimental": false,
      "date": "2021-04-06T15:19:34+00:00",
      "publisher": "User ID: 'HADFIELDR' User name: 'Ryan Hadfield' User skill set: 'T3'",
      "lastReviewDate": "2021-04-06",
      "contact": [ {
        "telecom": [ {
          "system": "phone",
          "value": "0111 111 1111"
        } ]
      } ],
      "subjectType": [ "Patient" ]
    }
  }, {
    "fullUrl": "urn:uuid:8cc2f989-c514-4e71-8d54-1600a3a7ed6f",
    "resource": {
      "resourceType": "QuestionnaireResponse",
      "id": "8cc2f989-c514-4e71-8d54-1600a3a7ed6f",
      "identifier": {
        "value": "60319"
      },
      "questionnaire": {
        "reference": "urn:uuid:b47c1fde-b0df-4408-af83-ebc12ad36856"
      },
      "status": "completed",
      "subject": {
        "reference": "urn:uuid:ef0afd6e-191a-499e-97e4-edf7e1d97f33"
      },
      "context": {
        "reference": "urn:uuid:b395864e-d919-41b7-bb80-36580fd80937"
      },
      "authored": "2021-04-06T15:19:34+00:00",
      "item": [ {
        "linkId": "Tx221804",
        "text": "STRING:transfertofurthermenuquestionestablishedinEntryFlow",
        "answer": [ {
          "valueString": "\"present\""
        } ]
      } ]
    }
  }, {
    "fullUrl": "urn:uuid:b47c1fde-b0df-4408-af83-ebc12ad36856",
    "resource": {
      "resourceType": "Questionnaire",
      "id": "b47c1fde-b0df-4408-af83-ebc12ad36856",
      "identifier": [ {
        "value": "60319"
      } ],
      "version": "2021-04-06T15:19:34.083Z",
      "status": "active",
      "experimental": false,
      "date": "2021-04-06T15:19:34+00:00",
      "publisher": "User ID: 'HADFIELDR' User name: 'Ryan Hadfield' User skill set: 'T3'",
      "lastReviewDate": "2021-04-06",
      "contact": [ {
        "telecom": [ {
          "system": "phone",
          "value": "0111 111 1111"
        } ]
      } ],
      "subjectType": [ "Patient" ],
      "item": [ {
        "linkId": "60319",
        "prefix": "41",
        "text": "STRING:transfertofurthermenuquestionestablishedinEntryFlow",
        "type": "choice",
        "required": true,
        "repeats": false,
        "option": [ {
          "valueString": "\"present\", Selected: true"
        } ]
      } ]
    }
  }, {
    "fullUrl": "urn:uuid:47664a7a-e318-4882-b745-418df2e623e5",
    "resource": {
      "resourceType": "QuestionnaireResponse",
      "id": "47664a7a-e318-4882-b745-418df2e623e5",
      "identifier": {
        "value": "60319"
      },
      "questionnaire": {
        "reference": "urn:uuid:9aa415dc-27f7-4c1b-b0c2-b0ceca47791f"
      },
      "status": "completed",
      "subject": {
        "reference": "urn:uuid:ef0afd6e-191a-499e-97e4-edf7e1d97f33"
      },
      "context": {
        "reference": "urn:uuid:b395864e-d919-41b7-bb80-36580fd80937"
      },
      "authored": "2021-04-06T15:19:34+00:00",
      "item": [ {
        "linkId": "Tx224998",
        "text": "SYSTEM_COVIDLEVEL2",
        "answer": [ {
          "valueString": "==\"covidlevel2\""
        } ]
      } ]
    }
  }, {
    "fullUrl": "urn:uuid:9aa415dc-27f7-4c1b-b0c2-b0ceca47791f",
    "resource": {
      "resourceType": "Questionnaire",
      "id": "9aa415dc-27f7-4c1b-b0c2-b0ceca47791f",
      "identifier": [ {
        "value": "60319"
      } ],
      "version": "2021-04-06T15:19:34.083Z",
      "status": "active",
      "experimental": false,
      "date": "2021-04-06T15:19:34+00:00",
      "publisher": "User ID: 'HADFIELDR' User name: 'Ryan Hadfield' User skill set: 'T3'",
      "lastReviewDate": "2021-04-06",
      "contact": [ {
        "telecom": [ {
          "system": "phone",
          "value": "0111 111 1111"
        } ]
      } ],
      "subjectType": [ "Patient" ],
      "item": [ {
        "linkId": "60319",
        "prefix": "5900",
        "text": "SYSTEM_COVIDLEVEL2",
        "type": "choice",
        "required": true,
        "repeats": false,
        "option": [ {
          "valueString": "==\"covidlevel2\", Selected: true"
        }, {
          "valueString": "*, Selected: false"
        } ]
      } ]
    }
  }, {
    "fullUrl": "urn:uuid:340bd714-11da-422d-b714-3a8bab1df367",
    "resource": {
      "resourceType": "QuestionnaireResponse",
      "id": "340bd714-11da-422d-b714-3a8bab1df367",
      "identifier": {
        "value": "60319"
      },
      "questionnaire": {
        "reference": "urn:uuid:87dc3e9f-bb6b-4cd6-9a4d-16a0c611bbe1"
      },
      "status": "completed",
      "subject": {
        "reference": "urn:uuid:ef0afd6e-191a-499e-97e4-edf7e1d97f33"
      },
      "context": {
        "reference": "urn:uuid:b395864e-d919-41b7-bb80-36580fd80937"
      },
      "authored": "2021-04-06T15:19:34+00:00",
      "item": [ {
        "linkId": "Tx225069",
        "text": "What is the reason for the contact?",
        "answer": [ {
          "valueString": "a prescription request"
        } ]
      } ]
    }
  }, {
    "fullUrl": "urn:uuid:87dc3e9f-bb6b-4cd6-9a4d-16a0c611bbe1",
    "resource": {
      "resourceType": "Questionnaire",
      "id": "87dc3e9f-bb6b-4cd6-9a4d-16a0c611bbe1",
      "identifier": [ {
        "value": "60319"
      } ],
      "version": "2021-04-06T15:19:34.083Z",
      "status": "active",
      "experimental": false,
      "date": "2021-04-06T15:19:34+00:00",
      "publisher": "User ID: 'HADFIELDR' User name: 'Ryan Hadfield' User skill set: 'T3'",
      "lastReviewDate": "2021-04-06",
      "contact": [ {
        "telecom": [ {
          "system": "phone",
          "value": "0111 111 1111"
        } ]
      } ],
      "subjectType": [ "Patient" ],
      "item": [ {
        "linkId": "60319",
        "prefix": "6000",
        "text": "What is the reason for the contact?",
        "type": "choice",
        "required": true,
        "repeats": false,
        "option": [ {
          "valueString": "a child protection/vulnerable adult concern (specify), Selected: false"
        }, {
          "valueString": "a social or domestic emergency, Selected: false"
        }, {
          "valueString": "a prescription request, Selected: true"
        }, {
          "valueString": "an appointment request, Selected: false"
        }, {
          "valueString": "a request for health or medication information, Selected: false"
        }, {
          "valueString": "public health alert information, Selected: false"
        } ]
      } ]
    }
  }, {
    "fullUrl": "urn:uuid:312e4e17-9349-441c-a9e7-0081eacd4e1a",
    "resource": {
      "resourceType": "QuestionnaireResponse",
      "id": "312e4e17-9349-441c-a9e7-0081eacd4e1a",
      "identifier": {
        "value": "60319"
      },
      "questionnaire": {
        "reference": "urn:uuid:8aa70116-366c-4da5-b9bb-7b175e1e9521"
      },
      "status": "completed",
      "subject": {
        "reference": "urn:uuid:ef0afd6e-191a-499e-97e4-edf7e1d97f33"
      },
      "context": {
        "reference": "urn:uuid:b395864e-d919-41b7-bb80-36580fd80937"
      },
      "authored": "2021-04-06T15:19:34+00:00",
      "item": [ {
        "linkId": "Tx220957",
        "text": "Is this contact about a new or worsening illness?",
        "answer": [ {
          "valueString": "no"
        } ]
      } ]
    }
  }, {
    "fullUrl": "urn:uuid:8aa70116-366c-4da5-b9bb-7b175e1e9521",
    "resource": {
      "resourceType": "Questionnaire",
      "id": "8aa70116-366c-4da5-b9bb-7b175e1e9521",
      "identifier": [ {
        "value": "60319"
      } ],
      "version": "2021-04-06T15:19:34.083Z",
      "status": "active",
      "experimental": false,
      "date": "2021-04-06T15:19:34+00:00",
      "publisher": "User ID: 'HADFIELDR' User name: 'Ryan Hadfield' User skill set: 'T3'",
      "lastReviewDate": "2021-04-06",
      "contact": [ {
        "telecom": [ {
          "system": "phone",
          "value": "0111 111 1111"
        } ]
      } ],
      "subjectType": [ "Patient" ],
      "item": [ {
        "linkId": "60319",
        "prefix": "1400",
        "text": "Is this contact about a new or worsening illness?",
        "type": "choice",
        "required": true,
        "repeats": false,
        "option": [ {
          "valueString": "yes, Selected: false"
        }, {
          "valueString": "not sure, Selected: false"
        }, {
          "valueString": "no, Selected: true"
        } ]
      } ]
    }
  }, {
    "fullUrl": "urn:uuid:77ccdd63-2422-4ffb-ae32-b92f71964273",
    "resource": {
      "resourceType": "QuestionnaireResponse",
      "id": "77ccdd63-2422-4ffb-ae32-b92f71964273",
      "identifier": {
        "value": "60319"
      },
      "questionnaire": {
        "reference": "urn:uuid:5e754cb9-de53-4af4-a724-320863c9c9b4"
      },
      "status": "completed",
      "subject": {
        "reference": "urn:uuid:ef0afd6e-191a-499e-97e4-edf7e1d97f33"
      },
      "context": {
        "reference": "urn:uuid:b395864e-d919-41b7-bb80-36580fd80937"
      },
      "authored": "2021-04-06T15:19:34+00:00",
      "item": [ {
        "linkId": "Tx221352",
        "text": "Have you got enough medication to last until the surgery opens?",
        "answer": [ {
          "valueString": "no"
        } ]
      } ]
    }
  }, {
    "fullUrl": "urn:uuid:5e754cb9-de53-4af4-a724-320863c9c9b4",
    "resource": {
      "resourceType": "Questionnaire",
      "id": "5e754cb9-de53-4af4-a724-320863c9c9b4",
      "identifier": [ {
        "value": "60319"
      } ],
      "version": "2021-04-06T15:19:34.083Z",
      "status": "active",
      "experimental": false,
      "date": "2021-04-06T15:19:34+00:00",
      "publisher": "User ID: 'HADFIELDR' User name: 'Ryan Hadfield' User skill set: 'T3'",
      "lastReviewDate": "2021-04-06",
      "contact": [ {
        "telecom": [ {
          "system": "phone",
          "value": "0111 111 1111"
        } ]
      } ],
      "subjectType": [ "Patient" ],
      "item": [ {
        "linkId": "60319",
        "prefix": "1500",
        "text": "Have you got enough medication to last until the surgery opens?",
        "type": "choice",
        "required": true,
        "repeats": false,
        "option": [ {
          "valueString": "yes, Selected: false"
        }, {
          "valueString": "not sure, Selected: false"
        }, {
          "valueString": "no, Selected: true"
        } ]
      } ]
    }
  }, {
    "fullUrl": "urn:uuid:d09eae87-dfa7-4d85-b666-281821f4fe1a",
    "resource": {
      "resourceType": "QuestionnaireResponse",
      "id": "d09eae87-dfa7-4d85-b666-281821f4fe1a",
      "identifier": {
        "value": "60319"
      },
      "questionnaire": {
        "reference": "urn:uuid:e4a30528-34e3-40b8-b6c7-1c5b769ea701"
      },
      "status": "completed",
      "subject": {
        "reference": "urn:uuid:ef0afd6e-191a-499e-97e4-edf7e1d97f33"
      },
      "context": {
        "reference": "urn:uuid:b395864e-d919-41b7-bb80-36580fd80937"
      },
      "authored": "2021-04-06T15:19:34+00:00"
    }
  }, {
    "fullUrl": "urn:uuid:e4a30528-34e3-40b8-b6c7-1c5b769ea701",
    "resource": {
      "resourceType": "Questionnaire",
      "id": "e4a30528-34e3-40b8-b6c7-1c5b769ea701",
      "identifier": [ {
        "value": "60319"
      } ],
      "version": "2021-04-06T15:19:34.083Z",
      "status": "active",
      "experimental": false,
      "date": "2021-04-06T15:19:34+00:00",
      "publisher": "User ID: 'HADFIELDR' User name: 'Ryan Hadfield' User skill set: 'T3'",
      "lastReviewDate": "2021-04-06",
      "contact": [ {
        "telecom": [ {
          "system": "phone",
          "value": "0111 111 1111"
        } ]
      } ],
      "subjectType": [ "Patient" ]
    }
  }, {
    "fullUrl": "urn:uuid:b9a97a36-e297-4d25-ab79-5abe79d631b7",
    "resource": {
      "resourceType": "QuestionnaireResponse",
      "id": "b9a97a36-e297-4d25-ab79-5abe79d631b7",
      "identifier": {
        "value": "60319"
      },
      "questionnaire": {
        "reference": "urn:uuid:b88271fb-7f7f-481e-84ed-2fc67d8e909f"
      },
      "status": "completed",
      "subject": {
        "reference": "urn:uuid:ef0afd6e-191a-499e-97e4-edf7e1d97f33"
      },
      "context": {
        "reference": "urn:uuid:b395864e-d919-41b7-bb80-36580fd80937"
      },
      "authored": "2021-04-06T15:19:34+00:00",
      "item": [ {
        "linkId": "Tx224231",
        "text": "FROM WHAT YOU HAVE HEARD IS A CONSULTATION WITH A PRESCRIBER NEEDED?",
        "answer": [ {
          "valueString": "no"
        } ]
      } ]
    }
  }, {
    "fullUrl": "urn:uuid:b88271fb-7f7f-481e-84ed-2fc67d8e909f",
    "resource": {
      "resourceType": "Questionnaire",
      "id": "b88271fb-7f7f-481e-84ed-2fc67d8e909f",
      "identifier": [ {
        "value": "60319"
      } ],
      "version": "2021-04-06T15:19:34.083Z",
      "status": "active",
      "experimental": false,
      "date": "2021-04-06T15:19:34+00:00",
      "publisher": "User ID: 'HADFIELDR' User name: 'Ryan Hadfield' User skill set: 'T3'",
      "lastReviewDate": "2021-04-06",
      "contact": [ {
        "telecom": [ {
          "system": "phone",
          "value": "0111 111 1111"
        } ]
      } ],
      "subjectType": [ "Patient" ],
      "item": [ {
        "linkId": "60319",
        "prefix": "0",
        "text": "FROM WHAT YOU HAVE HEARD IS A CONSULTATION WITH A PRESCRIBER NEEDED?",
        "type": "choice",
        "required": true,
        "repeats": false,
        "option": [ {
          "valueString": "yes, Selected: false"
        }, {
          "valueString": "not sure, Selected: false"
        }, {
          "valueString": "no, Selected: true"
        } ]
      } ]
    }
  }, {
    "fullUrl": "urn:uuid:9fe250f1-4c8c-4e21-a8b6-80f20181eea7",
    "resource": {
      "resourceType": "QuestionnaireResponse",
      "id": "9fe250f1-4c8c-4e21-a8b6-80f20181eea7",
      "identifier": {
        "value": "60319"
      },
      "questionnaire": {
        "reference": "urn:uuid:d964ecf4-c3c0-4508-ae2a-5f1a5caa83dd"
      },
      "status": "completed",
      "subject": {
        "reference": "urn:uuid:ef0afd6e-191a-499e-97e4-edf7e1d97f33"
      },
      "context": {
        "reference": "urn:uuid:b395864e-d919-41b7-bb80-36580fd80937"
      },
      "authored": "2021-04-06T15:19:34+00:00",
      "item": [ {
        "linkId": "Tx222687",
        "text": "Have you got any of the medication available at the moment?",
        "answer": [ {
          "valueString": "no"
        } ]
      } ]
    }
  }, {
    "fullUrl": "urn:uuid:d964ecf4-c3c0-4508-ae2a-5f1a5caa83dd",
    "resource": {
      "resourceType": "Questionnaire",
      "id": "d964ecf4-c3c0-4508-ae2a-5f1a5caa83dd",
      "identifier": [ {
        "value": "60319"
      } ],
      "version": "2021-04-06T15:19:34.083Z",
      "status": "active",
      "experimental": false,
      "date": "2021-04-06T15:19:34+00:00",
      "publisher": "User ID: 'HADFIELDR' User name: 'Ryan Hadfield' User skill set: 'T3'",
      "lastReviewDate": "2021-04-06",
      "contact": [ {
        "telecom": [ {
          "system": "phone",
          "value": "0111 111 1111"
        } ]
      } ],
      "subjectType": [ "Patient" ],
      "item": [ {
        "linkId": "60319",
        "prefix": "200",
        "text": "Have you got any of the medication available at the moment?",
        "type": "choice",
        "required": true,
        "repeats": false,
        "option": [ {
          "valueString": "yes, Selected: false"
        }, {
          "valueString": "not sure, Selected: false"
        }, {
          "valueString": "no, Selected: true"
        } ]
      } ]
    }
  }, {
    "fullUrl": "urn:uuid:cd0e7c50-953c-48dd-9781-995efeec12d1",
    "resource": {
      "resourceType": "QuestionnaireResponse",
      "id": "cd0e7c50-953c-48dd-9781-995efeec12d1",
      "identifier": {
        "value": "60319"
      },
      "questionnaire": {
        "reference": "urn:uuid:a06ffa60-36bf-4eca-9d8a-059c3db0459c"
      },
      "status": "completed",
      "subject": {
        "reference": "urn:uuid:ef0afd6e-191a-499e-97e4-edf7e1d97f33"
      },
      "context": {
        "reference": "urn:uuid:b395864e-d919-41b7-bb80-36580fd80937"
      },
      "authored": "2021-04-06T15:19:34+00:00",
      "item": [ {
        "linkId": "Tx221367",
        "text": "When is the next dose due?",
        "answer": [ {
          "valueString": "over 12 hours time"
        } ]
      } ]
    }
  }, {
    "fullUrl": "urn:uuid:a06ffa60-36bf-4eca-9d8a-059c3db0459c",
    "resource": {
      "resourceType": "Questionnaire",
      "id": "a06ffa60-36bf-4eca-9d8a-059c3db0459c",
      "identifier": [ {
        "value": "60319"
      } ],
      "version": "2021-04-06T15:19:34.083Z",
      "status": "active",
      "experimental": false,
      "date": "2021-04-06T15:19:34+00:00",
      "publisher": "User ID: 'HADFIELDR' User name: 'Ryan Hadfield' User skill set: 'T3'",
      "lastReviewDate": "2021-04-06",
      "contact": [ {
        "telecom": [ {
          "system": "phone",
          "value": "0111 111 1111"
        } ]
      } ],
      "subjectType": [ "Patient" ],
      "item": [ {
        "linkId": "60319",
        "prefix": "100",
        "text": "When is the next dose due?",
        "type": "choice",
        "required": true,
        "repeats": false,
        "option": [ {
          "valueString": "within the next 2 hours, Selected: false"
        }, {
          "valueString": "within the next 6 hours, Selected: false"
        }, {
          "valueString": "within the next 12 hours, Selected: false"
        }, {
          "valueString": "over 12 hours time, Selected: true"
        }, {
          "valueString": "not sure, Selected: false"
        } ]
      } ]
    }
  }, {
    "fullUrl": "urn:uuid:4cc7e48d-65ca-4ca4-af2d-9b7f054db960",
    "resource": {
      "resourceType": "QuestionnaireResponse",
      "id": "4cc7e48d-65ca-4ca4-af2d-9b7f054db960",
      "identifier": {
        "value": "60319"
      },
      "questionnaire": {
        "reference": "urn:uuid:12925cbb-84c7-484a-9d3f-4e4e96ad7ec5"
      },
      "status": "completed",
      "subject": {
        "reference": "urn:uuid:ef0afd6e-191a-499e-97e4-edf7e1d97f33"
      },
      "context": {
        "reference": "urn:uuid:b395864e-d919-41b7-bb80-36580fd80937"
      },
      "authored": "2021-04-06T15:19:34+00:00",
      "item": [ {
        "linkId": "Tx223441",
        "text": "STRING:SDPCRepeatPrescription",
        "answer": [ {
          "valueString": "\"PC repeat prescription\""
        } ]
      } ]
    }
  }, {
    "fullUrl": "urn:uuid:12925cbb-84c7-484a-9d3f-4e4e96ad7ec5",
    "resource": {
      "resourceType": "Questionnaire",
      "id": "12925cbb-84c7-484a-9d3f-4e4e96ad7ec5",
      "identifier": [ {
        "value": "60319"
      } ],
      "version": "2021-04-06T15:19:34.083Z",
      "status": "active",
      "experimental": false,
      "date": "2021-04-06T15:19:34+00:00",
      "publisher": "User ID: 'HADFIELDR' User name: 'Ryan Hadfield' User skill set: 'T3'",
      "lastReviewDate": "2021-04-06",
      "contact": [ {
        "telecom": [ {
          "system": "phone",
          "value": "0111 111 1111"
        } ]
      } ],
      "subjectType": [ "Patient" ],
      "item": [ {
        "linkId": "60319",
        "prefix": "1100",
        "text": "STRING:SDPCRepeatPrescription",
        "type": "choice",
        "required": true,
        "repeats": false,
        "option": [ {
          "valueString": "\"PC repeat prescription\", Selected: true"
        } ]
      } ]
    }
  }, {
    "fullUrl": "urn:uuid:274f5f2b-9a73-466f-a10e-0435f053e2d2",
    "resource": {
      "resourceType": "QuestionnaireResponse",
      "id": "274f5f2b-9a73-466f-a10e-0435f053e2d2",
      "identifier": {
        "value": "60319"
      },
      "questionnaire": {
        "reference": "urn:uuid:d98772d3-11b6-4720-a1fe-24b4c8f8c05a"
      },
      "status": "completed",
      "subject": {
        "reference": "urn:uuid:ef0afd6e-191a-499e-97e4-edf7e1d97f33"
      },
      "context": {
        "reference": "urn:uuid:b395864e-d919-41b7-bb80-36580fd80937"
      },
      "authored": "2021-04-06T15:19:34+00:00"
    }
  }, {
    "fullUrl": "urn:uuid:d98772d3-11b6-4720-a1fe-24b4c8f8c05a",
    "resource": {
      "resourceType": "Questionnaire",
      "id": "d98772d3-11b6-4720-a1fe-24b4c8f8c05a",
      "identifier": [ {
        "value": "60319"
      } ],
      "version": "2021-04-06T15:19:34.083Z",
      "status": "active",
      "experimental": false,
      "date": "2021-04-06T15:19:34+00:00",
      "publisher": "User ID: 'HADFIELDR' User name: 'Ryan Hadfield' User skill set: 'T3'",
      "lastReviewDate": "2021-04-06",
      "contact": [ {
        "telecom": [ {
          "system": "phone",
          "value": "0111 111 1111"
        } ]
      } ],
      "subjectType": [ "Patient" ]
    }
  }, {
    "fullUrl": "urn:uuid:fbde3869-c9ff-4ea0-b337-8d5ae8eb3e1e",
    "resource": {
      "resourceType": "QuestionnaireResponse",
      "id": "fbde3869-c9ff-4ea0-b337-8d5ae8eb3e1e",
      "identifier": {
        "value": "60319"
      },
      "questionnaire": {
        "reference": "urn:uuid:c5852587-261d-4048-b61f-cb558222b1e7"
      },
      "status": "completed",
      "subject": {
        "reference": "urn:uuid:ef0afd6e-191a-499e-97e4-edf7e1d97f33"
      },
      "context": {
        "reference": "urn:uuid:b395864e-d919-41b7-bb80-36580fd80937"
      },
      "authored": "2021-04-06T15:19:34+00:00"
    }
  }, {
    "fullUrl": "urn:uuid:c5852587-261d-4048-b61f-cb558222b1e7",
    "resource": {
      "resourceType": "Questionnaire",
      "id": "c5852587-261d-4048-b61f-cb558222b1e7",
      "identifier": [ {
        "value": "60319"
      } ],
      "version": "2021-04-06T15:19:34.083Z",
      "status": "active",
      "experimental": false,
      "date": "2021-04-06T15:19:34+00:00",
      "publisher": "User ID: 'HADFIELDR' User name: 'Ryan Hadfield' User skill set: 'T3'",
      "lastReviewDate": "2021-04-06",
      "contact": [ {
        "telecom": [ {
          "system": "phone",
          "value": "0111 111 1111"
        } ]
      } ],
      "subjectType": [ "Patient" ]
    }
  }, {
    "fullUrl": "urn:uuid:54d23512-e229-49ab-8797-95bb0aa0d5e3",
    "resource": {
      "resourceType": "PractitionerRole",
      "id": "54d23512-e229-49ab-8797-95bb0aa0d5e3",
      "practitioner": {
        "reference": "urn:uuid:84cd5752-f47c-4e55-90df-33b2ea4bfa55"
      },
      "organization": {
        "reference": "urn:uuid:899559c3-a082-44b2-9cae-0b0888e95ce8"
      },
      "code": [ {
        "coding": [ {
          "system": "2.16.840.1.113883.2.1.3.2.4.17.339",
          "code": "DOCTOR",
          "display": "Doctor"
        } ]
      } ]
    }
  }, {
    "fullUrl": "urn:uuid:899559c3-a082-44b2-9cae-0b0888e95ce8",
    "resource": {
      "resourceType": "Organization",
      "id": "899559c3-a082-44b2-9cae-0b0888e95ce8",
      "identifier": [ {
        "value": "RYE"
      } ],
      "name": "RepresentedOrg Name"
    }
  }, {
    "fullUrl": "urn:uuid:43fea710-b632-4561-9459-1dd97d94b7d8",
    "resource": {
      "resourceType": "PractitionerRole",
      "id": "43fea710-b632-4561-9459-1dd97d94b7d8",
      "practitioner": {
        "reference": "urn:uuid:a0eae29b-8b50-4e82-b3e7-20bc383cf816"
      },
      "organization": {
        "reference": "urn:uuid:3414321e-87ea-4cb4-8724-02ba4513ef58"
      },
      "code": [ {
        "coding": [ {
          "system": "2.16.840.1.113883.2.1.3.2.4.17.196",
          "code": "R0010",
          "display": "Medical Director"
        } ]
      } ]
    }
  }, {
    "fullUrl": "urn:uuid:3414321e-87ea-4cb4-8724-02ba4513ef58",
    "resource": {
      "resourceType": "Organization",
      "id": "3414321e-87ea-4cb4-8724-02ba4513ef58",
      "identifier": [ {
        "value": "RYE"
      } ],
      "name": "RepresentedOrgNameRYE"
    }
  }, {
    "fullUrl": "urn:uuid:d3c028a8-c4b7-4650-8532-00b8c5c40809",
    "resource": {
      "resourceType": "RelatedPerson",
      "id": "d3c028a8-c4b7-4650-8532-00b8c5c40809",
      "patient": {
        "reference": "urn:uuid:ef0afd6e-191a-499e-97e4-edf7e1d97f33"
      },
      "relationship": {
        "coding": [ {
          "system": "http://hl7.org/fhir/v2/0131",
          "code": "C",
          "display": "Emergency Contact"
        } ]
      },
      "telecom": [ {
        "system": "phone",
        "value": "tel:000000000000"
      } ]
    }
  }, {
    "fullUrl": "urn:uuid:c483b66b-b8f8-42ed-9f18-490c0d2604da",
    "resource": {
      "resourceType": "Device",
      "id": "c483b66b-b8f8-42ed-9f18-490c0d2604da",
      "model": "111 Adaptor",
      "version": "0.9.0"
    }
  }, {
    "fullUrl": "urn:uuid:72bf718e-83c3-4016-a88e-adbf59acfa45",
    "resource": {
      "resourceType": "List",
      "id": "72bf718e-83c3-4016-a88e-adbf59acfa45",
      "status": "current",
      "mode": "working",
      "title": "111 Report List",
      "code": {
        "coding": [ {
          "system": "http://snomed.info/sct",
          "code": "225390008",
          "display": "Triage"
        } ]
      },
      "subject": {
        "reference": "urn:uuid:ef0afd6e-191a-499e-97e4-edf7e1d97f33"
      },
      "encounter": {
        "reference": "urn:uuid:b395864e-d919-41b7-bb80-36580fd80937"
      },
      "date": "2021-09-29T10:03:13+00:00",
      "source": {
        "reference": "urn:uuid:c483b66b-b8f8-42ed-9f18-490c0d2604da"
      },
      "orderedBy": {
        "coding": [ {
          "system": "http://hl7.org/fhir/list-order",
          "code": "event-date",
          "display": "Sorted by Event Date"
        } ]
      },
      "entry": [ {
        "item": {
          "reference": "urn:uuid:d3c028a8-c4b7-4650-8532-00b8c5c40809"
        }
      }, {
        "item": {
          "reference": "urn:uuid:a0eae29b-8b50-4e82-b3e7-20bc383cf816"
        }
      }, {
        "item": {
          "reference": "urn:uuid:899559c3-a082-44b2-9cae-0b0888e95ce8"
        }
      }, {
        "item": {
          "reference": "urn:uuid:afedf802-87a9-4bea-be3a-d9837773ff16"
        }
      }, {
        "item": {
          "reference": "urn:uuid:84cd5752-f47c-4e55-90df-33b2ea4bfa55"
        }
      }, {
        "item": {
          "reference": "urn:uuid:2fed2bab-d78f-4ffe-b559-530dcdb00d84"
        }
      }, {
        "item": {
          "reference": "urn:uuid:8d0a2521-9039-4e74-9d50-142904c8cc71"
        }
      }, {
        "item": {
          "reference": "urn:uuid:71a3c84a-dfe3-4818-8029-7bb5000e3ddd"
        }
      }, {
        "item": {
          "reference": "urn:uuid:3414321e-87ea-4cb4-8724-02ba4513ef58"
        }
      }, {
        "item": {
          "reference": "urn:uuid:8aa70116-366c-4da5-b9bb-7b175e1e9521"
        }
      }, {
        "item": {
          "reference": "urn:uuid:c5852587-261d-4048-b61f-cb558222b1e7"
        }
      }, {
        "item": {
          "reference": "urn:uuid:6762dcb5-37a9-4e4c-9c5c-359f76386dda"
        }
      }, {
        "item": {
          "reference": "urn:uuid:4cc7e48d-65ca-4ca4-af2d-9b7f054db960"
        }
      }, {
        "item": {
          "reference": "urn:uuid:a06ffa60-36bf-4eca-9d8a-059c3db0459c"
        }
      }, {
        "item": {
          "reference": "urn:uuid:d964ecf4-c3c0-4508-ae2a-5f1a5caa83dd"
        }
      }, {
        "item": {
          "reference": "urn:uuid:8cc2f989-c514-4e71-8d54-1600a3a7ed6f"
        }
      }, {
        "item": {
          "reference": "urn:uuid:fbde3869-c9ff-4ea0-b337-8d5ae8eb3e1e"
        }
      }, {
        "item": {
          "reference": "urn:uuid:f124c034-4052-4647-8a75-b60ca15b1100"
        }
      }, {
        "item": {
          "reference": "urn:uuid:274f5f2b-9a73-466f-a10e-0435f053e2d2"
        }
      }, {
        "item": {
          "reference": "urn:uuid:9fe250f1-4c8c-4e21-a8b6-80f20181eea7"
        }
      }, {
        "item": {
          "reference": "urn:uuid:d863c426-eef3-41b1-a73f-2735a0a1f7da"
        }
      }, {
        "item": {
          "reference": "urn:uuid:9aa415dc-27f7-4c1b-b0c2-b0ceca47791f"
        }
      }, {
        "item": {
          "reference": "urn:uuid:47664a7a-e318-4882-b745-418df2e623e5"
        }
      }, {
        "item": {
          "reference": "urn:uuid:77ccdd63-2422-4ffb-ae32-b92f71964273"
        }
      }, {
        "item": {
          "reference": "urn:uuid:87dc3e9f-bb6b-4cd6-9a4d-16a0c611bbe1"
        }
      }, {
        "item": {
          "reference": "urn:uuid:12925cbb-84c7-484a-9d3f-4e4e96ad7ec5"
        }
      }, {
        "item": {
          "reference": "urn:uuid:cd0e7c50-953c-48dd-9781-995efeec12d1"
        }
      }, {
        "item": {
          "reference": "urn:uuid:b47c1fde-b0df-4408-af83-ebc12ad36856"
        }
      }, {
        "item": {
          "reference": "urn:uuid:16e2fbff-efba-4038-8ca7-f0d2b61826e1"
        }
      }, {
        "item": {
          "reference": "urn:uuid:e4a30528-34e3-40b8-b6c7-1c5b769ea701"
        }
      }, {
        "item": {
          "reference": "urn:uuid:d98772d3-11b6-4720-a1fe-24b4c8f8c05a"
        }
      }, {
        "item": {
          "reference": "urn:uuid:d09eae87-dfa7-4d85-b666-281821f4fe1a"
        }
      }, {
        "item": {
          "reference": "urn:uuid:312e4e17-9349-441c-a9e7-0081eacd4e1a"
        }
      }, {
        "item": {
          "reference": "urn:uuid:5e754cb9-de53-4af4-a724-320863c9c9b4"
        }
      }, {
        "item": {
          "reference": "urn:uuid:340bd714-11da-422d-b714-3a8bab1df367"
        }
      }, {
        "item": {
          "reference": "urn:uuid:3ab08f5b-5e3d-438d-ad32-d416dcf70d01"
        }
      }, {
        "item": {
          "reference": "urn:uuid:64995b95-c008-469c-8dbd-f6c37194b6cc"
        }
      }, {
        "item": {
          "reference": "urn:uuid:b9a97a36-e297-4d25-ab79-5abe79d631b7"
        }
      }, {
        "item": {
          "reference": "urn:uuid:b88271fb-7f7f-481e-84ed-2fc67d8e909f"
        }
      }, {
        "item": {
          "reference": "urn:uuid:96088051-9548-4aa2-a492-ca2d5b2032e1"
        }
      } ]
    }
  } ]
}