{
  "resourceType": "Bundle",
  "identifier": {
    "type": {
      "text": "ClinicalDocument VersionNumber"
    },
    "value": "1"
  },
  "type": "message",
  "entry": [ {
    "fullUrl": "urn:uuid:D78E4686-5082-4E76-9359-6A84AE0C9C10",
    "resource": {
      "resourceType": "MessageHeader",
      "id": "D78E4686-5082-4E76-9359-6A84AE0C9C10",
      "event": {
        "system": "https://fhir.nhs.uk/STU3/CodeSystem/EventType-1",
        "code": "referral-1",
        "display": "Referral"
      },
      "destination": [ {
        "endpoint": "urn:nhs-uk:addressing:ods:NVE06:DOSServiceID:1335970392"
      } ],
      "timestamp": "2021-05-11T08:53:28.000+00:00",
      "source": {
        "name": "NHS 111 Adaptor",
        "endpoint": "http://localhost:8080/report"
      },
      "reason": {
        "coding": [ {
          "system": "urn:nhs-itk:ns:201005:interaction",
          "code": "urn:nhs-itk:interaction:primaryOutofHourRecipientNHS111CDADocument-v2-0"
        } ]
      }
    }
  }, {
    "fullUrl": "urn:uuid:00005fa9-d33a-48b3-9a7a-16159b06baa1",
    "resource": {
      "resourceType": "Encounter",
      "id": "00005fa9-d33a-48b3-9a7a-16159b06baa1",
      "identifier": [ {
        "system": "2.16.840.1.113883.2.1.3.2.4.18.34",
        "value": "0060E06D-C899-440E-B58E-B5522662EC28"
      }, {
        "system": "2.16.840.1.113883.2.1.3.2.4.18.35",
        "value": "2100310382"
      } ],
      "status": "finished",
      "type": [ {
        "text": "111 Encounter Referral"
      } ],
      "subject": {
        "reference": "urn:uuid:ca778d05-a380-4ec5-ab2c-6de9746f3ce5"
      },
      "participant": [ {
        "type": [ {
          "coding": [ {
            "system": "http://hl7.org/fhir/ValueSet/encounter-participant-type",
            "code": "PPRF",
            "display": "Author"
          } ]
        } ],
        "individual": {
          "reference": "urn:uuid:d107b525-450b-471f-ab3f-bc3e9758eeda"
        }
      }, {
        "type": [ {
          "text": "Informant"
        } ],
        "individual": {
          "reference": "urn:uuid:82f8fcf1-5158-40a0-98c3-fb7a30e18437"
        }
      } ],
      "period": {
        "start": "2021-05-11T08:53:28+00:00"
      },
      "location": [ {
        "location": {
          "reference": "urn:uuid:4bcf9a96-211b-4d33-a3f3-db770e421f8a"
        },
        "status": "active"
      }, {
        "location": {
          "reference": "urn:uuid:29c175a5-7003-4298-be09-0188950b7ef1"
        },
        "status": "completed"
      } ],
      "serviceProvider": {
        "reference": "urn:uuid:7922254e-051f-4e08-8e7d-969cdc18ef0d"
      }
    }
  }, {
    "fullUrl": "urn:uuid:7922254e-051f-4e08-8e7d-969cdc18ef0d",
    "resource": {
      "resourceType": "Organization",
      "id": "7922254e-051f-4e08-8e7d-969cdc18ef0d",
      "active": true,
      "type": [ {
        "text": "CST"
      } ],
      "name": "Norfolk and Wisbech 111"
    }
  }, {
    "fullUrl": "urn:uuid:d107b525-450b-471f-ab3f-bc3e9758eeda",
    "resource": {
      "resourceType": "Practitioner",
      "id": "d107b525-450b-471f-ab3f-bc3e9758eeda",
      "active": true,
      "name": [ {
        "text": "Ben Smythson"
      } ]
    }
  }, {
    "fullUrl": "urn:uuid:82f8fcf1-5158-40a0-98c3-fb7a30e18437",
    "resource": {
      "resourceType": "RelatedPerson",
      "id": "82f8fcf1-5158-40a0-98c3-fb7a30e18437",
      "active": true,
      "patient": {
        "reference": "urn:uuid:ca778d05-a380-4ec5-ab2c-6de9746f3ce5"
      },
      "relationship": {
        "coding": [ {
          "system": "2.16.840.1.113883.2.1.3.2.4.16.45",
          "code": "21",
          "display": "Self"
        }, {
          "system": "http://hl7.org/fhir/v2/0131",
          "code": "C",
          "display": "Emergency Contact"
        } ]
      },
      "name": [ {
        "text": "Test Call TEST CALL DX06"
      } ],
      "telecom": [ {
        "system": "phone",
        "value": "tel:01233123123"
      } ],
      "gender": "unknown"
    }
  }, {
    "fullUrl": "urn:uuid:4bcf9a96-211b-4d33-a3f3-db770e421f8a",
    "resource": {
      "resourceType": "Location",
      "id": "4bcf9a96-211b-4d33-a3f3-db770e421f8a",
      "managingOrganization": {
        "reference": "urn:uuid:03243a06-8ed4-4e8b-9cd6-5edea134a022"
      }
    }
  }, {
    "fullUrl": "urn:uuid:03243a06-8ed4-4e8b-9cd6-5edea134a022",
    "resource": {
      "resourceType": "Organization",
      "id": "03243a06-8ed4-4e8b-9cd6-5edea134a022",
      "identifier": [ {
        "value": "Z10000"
      } ],
      "type": [ {
        "text": "GP Practice"
      } ],
      "name": "UNKNOWN"
    }
  }, {
    "fullUrl": "urn:uuid:29c175a5-7003-4298-be09-0188950b7ef1",
    "resource": {
      "resourceType": "Location",
      "id": "29c175a5-7003-4298-be09-0188950b7ef1",
      "address": {
        "type": "physical",
        "line": [ "313 VICTORIA ROAD", "LOWESTOFT" ],
        "postalCode": "NR33 9LS"
      }
    }
  }, {
    "fullUrl": "urn:uuid:ca778d05-a380-4ec5-ab2c-6de9746f3ce5",
    "resource": {
      "resourceType": "Patient",
      "id": "ca778d05-a380-4ec5-ab2c-6de9746f3ce5",
      "language": "en",
      "active": true,
      "name": [ {
        "use": "official",
        "family": "TEST CALL DX06",
        "given": [ "Test Call" ]
      } ],
      "telecom": [ {
        "system": "phone",
        "value": "tel:01233123123"
      } ],
      "gender": "male",
      "birthDate": "1996-03-25",
      "address": [ {
        "use": "home",
        "line": [ "313 VICTORIA ROAD", "LOWESTOFT" ],
        "postalCode": "NR33 9LS"
      }, {
        "type": "physical",
        "line": [ "313 VICTORIA ROAD", "LOWESTOFT" ],
        "postalCode": "NR33 9LS"
      } ],
      "generalPractitioner": [ {
        "reference": "urn:uuid:6a54595b-3161-41e5-bf87-97723450b0d6"
      } ]
    }
  }, {
    "fullUrl": "urn:uuid:6a54595b-3161-41e5-bf87-97723450b0d6",
    "resource": {
      "resourceType": "Organization",
      "id": "6a54595b-3161-41e5-bf87-97723450b0d6",
      "identifier": [ {
        "value": "Z10000"
      } ],
      "type": [ {
        "text": "GP Practice"
      } ],
      "name": "UNKNOWN"
    }
  }, {
    "fullUrl": "urn:uuid:6c65a1ca-2a10-424e-b51e-60d8d7a71496",
    "resource": {
      "resourceType": "HealthcareService",
      "id": "6c65a1ca-2a10-424e-b51e-60d8d7a71496",
      "active": true,
      "providedBy": {
        "reference": "urn:uuid:d5d9c2e4-eef1-41f8-87fd-8306dce9e2db"
      },
      "location": [ {
        "reference": "urn:uuid:9ba05859-ad09-418f-8471-cd2c12bcbd4f"
      } ],
      "name": "Out of Hours GP Service (Waveney) - Kirkley Mill Health Centre, Lowestoft"
    }
  }, {
    "fullUrl": "urn:uuid:9ba05859-ad09-418f-8471-cd2c12bcbd4f",
    "resource": {
      "resourceType": "Location",
      "id": "9ba05859-ad09-418f-8471-cd2c12bcbd4f",
      "managingOrganization": {
        "reference": "urn:uuid:d5d9c2e4-eef1-41f8-87fd-8306dce9e2db"
      }
    }
  }, {
    "fullUrl": "urn:uuid:d5d9c2e4-eef1-41f8-87fd-8306dce9e2db",
    "resource": {
      "resourceType": "Organization",
      "id": "d5d9c2e4-eef1-41f8-87fd-8306dce9e2db",
      "identifier": [ {
        "value": "NVE06"
      } ],
      "type": [ {
        "coding": [ {
          "code": "PRCP",
          "display": "Out of Hours GP Service (Waveney) - Kirkley Mill Health Centre, Lowestoft"
        } ]
      } ],
      "name": "Out of Hours GP Service (Waveney) - Kirkley Mill Health Centre, Lowestoft"
    }
  }, {
    "fullUrl": "urn:uuid:946cd217-77fd-4b86-85ea-6b23793ab585",
    "resource": {
      "resourceType": "ReferralRequest",
      "id": "946cd217-77fd-4b86-85ea-6b23793ab585",
      "status": "active",
      "intent": "plan",
      "priority": "routine",
      "subject": {
        "reference": "urn:uuid:ca778d05-a380-4ec5-ab2c-6de9746f3ce5"
      },
      "context": {
        "reference": "urn:uuid:00005fa9-d33a-48b3-9a7a-16159b06baa1"
      },
      "occurrencePeriod": {
        "start": "2021-09-15T09:16:09+00:00",
        "end": "2021-09-15T10:16:09+00:00"
      },
      "authoredOn": "2021-05-11T08:53:28+00:00",
      "requester": {
        "agent": {
          "reference": "urn:uuid:6c073791-4fdc-4b07-bdb2-9e333b382f39"
        },
        "onBehalfOf": {
          "reference": "urn:uuid:7922254e-051f-4e08-8e7d-969cdc18ef0d"
        }
      },
      "recipient": [ {
        "reference": "urn:uuid:c46597e3-48e3-48b0-95c0-7414cebc58b1"
      }, {
        "reference": "urn:uuid:6c65a1ca-2a10-424e-b51e-60d8d7a71496"
      } ],
      "reasonReference": [ {
        "reference": "urn:uuid:dc7bbb91-a198-4c86-bf29-9cae5363a786"
      } ],
      "supportingInfo": [ {
        "reference": "urn:uuid:eeae6940-0b82-496d-9927-53236d033021"
      } ]
    }
  }, {
    "fullUrl": "urn:uuid:eeae6940-0b82-496d-9927-53236d033021",
    "resource": {
      "resourceType": "ProcedureRequest",
      "id": "eeae6940-0b82-496d-9927-53236d033021",
      "status": "active",
      "intent": "plan",
      "priority": "routine",
      "doNotPerform": false,
      "code": {
        "coding": [ {
          "system": "2.16.840.1.113883.2.1.3.2.4.17.325",
          "code": "Dx06",
          "display": "To contact a local service within 6 hours"
        } ]
      },
      "subject": {
        "reference": "urn:uuid:ca778d05-a380-4ec5-ab2c-6de9746f3ce5"
      },
      "occurrencePeriod": {
        "start": "2021-09-15T09:16:09+00:00",
        "end": "2021-09-15T10:16:09+00:00"
      },
      "reasonReference": [ {
        "reference": "urn:uuid:dc7bbb91-a198-4c86-bf29-9cae5363a786"
      } ]
    }
  }, {
    "fullUrl": "urn:uuid:c46597e3-48e3-48b0-95c0-7414cebc58b1",
    "resource": {
      "resourceType": "Practitioner",
      "id": "c46597e3-48e3-48b0-95c0-7414cebc58b1",
      "active": true,
      "telecom": [ {
        "system": "phone",
        "value": "tel:01233505450"
      } ],
      "address": [ {
        "type": "physical",
        "line": [ "Kingston House", "The Long Barrow", "Orbital Park", "Ashford", "Kent" ],
        "postalCode": "TN24 0GP"
      } ]
    }
  }, {
    "fullUrl": "urn:uuid:6c3a0470-a8b2-47cb-967f-eff98f5035be",
    "resource": {
      "resourceType": "Composition",
      "id": "6c3a0470-a8b2-47cb-967f-eff98f5035be",
      "identifier": {
        "use": "usual",
        "value": "192F7989-BE74-4F5C-AA94-FC0778DAC8AA"
      },
      "status": "final",
      "type": {
        "coding": [ {
          "system": "http://snomed.info/sct",
          "code": "371531000",
          "display": "Report of clinical encounter (record artifact)"
        } ]
      },
      "subject": {
        "reference": "urn:uuid:ca778d05-a380-4ec5-ab2c-6de9746f3ce5"
      },
      "encounter": {
        "reference": "urn:uuid:00005fa9-d33a-48b3-9a7a-16159b06baa1"
      },
      "date": "2021-09-15T09:16:09+00:00",
      "author": [ {
        "reference": "urn:uuid:d107b525-450b-471f-ab3f-bc3e9758eeda"
      } ],
      "title": "111 Report",
      "confidentiality": "R",
      "section": [ {
        "section": [ {
          "title": "Patient's Reported Condition",
          "text": {
            "status": "generated",
            "div": "<div xmlns=\"http://www.w3.org/1999/xhtml\">&lt;xml-fragment mediaType=&quot;text/x-hl7-text+xml&quot; xmlns:xsd=&quot;http://www.w3.org/2001/XMLSchema&quot; xmlns:xsi=&quot;http://www.w3.org/2001/XMLSchema-instance&quot;&gt;\n                                                    &lt;urn:content xmlns:urn=&quot;urn:hl7-org:v3&quot;&gt;&amp;lt;CLEO Ref: 2100310382&gt; Test Call for DX06.\n                                                        &lt;urn:br/&gt;\n                                                    &lt;/urn:content&gt;\n                                                &lt;/xml-fragment&gt;</div>"
          }
        }, {
          "title": "Pathways Disposition",
          "text": {
            "status": "generated",
            "div": "<div xmlns=\"http://www.w3.org/1999/xhtml\">&lt;xml-fragment mediaType=&quot;text/x-hl7-text+xml&quot; xmlns:xsd=&quot;http://www.w3.org/2001/XMLSchema&quot; xmlns:xsi=&quot;http://www.w3.org/2001/XMLSchema-instance&quot;&gt;\n                                                    &lt;urn:content xmlns:urn=&quot;urn:hl7-org:v3&quot;&gt;The individual needs to contact a local service within 6 hours. (Dx06)&lt;/urn:content&gt;\n                                                    &lt;urn:br xmlns:urn=&quot;urn:hl7-org:v3&quot;/&gt;\n                                                    &lt;urn:br xmlns:urn=&quot;urn:hl7-org:v3&quot;/&gt;\n                                                    &lt;urn:content xmlns:urn=&quot;urn:hl7-org:v3&quot;&gt;Selected Service: 1335970392, Out of Hours GP Service (Waveney) - Kirkley Mill Health Centre, Lowestoft, 111&lt;/urn:content&gt;\n                                                    &lt;urn:br xmlns:urn=&quot;urn:hl7-org:v3&quot;/&gt;\n                                                &lt;/xml-fragment&gt;</div>"
          }
        }, {
          "title": "Consultation Summary",
          "text": {
            "status": "generated",
            "div": "<div xmlns=\"http://www.w3.org/1999/xhtml\">&lt;xml-fragment mediaType=&quot;text/x-hl7-text+xml&quot; xmlns:xsd=&quot;http://www.w3.org/2001/XMLSchema&quot; xmlns:xsi=&quot;http://www.w3.org/2001/XMLSchema-instance&quot;&gt;\n                                                    &lt;urn:content xmlns:urn=&quot;urn:hl7-org:v3&quot;&gt;\n                                                        &lt;urn:content&gt;Constant pain for more than 4 hours&lt;/urn:content&gt;\n                                                        &lt;urn:br/&gt;\n                                                        &lt;urn:content&gt;Warm to touch&lt;/urn:content&gt;\n                                                        &lt;urn:br/&gt;\n                                                        &lt;urn:content&gt;Illness - Test&lt;/urn:content&gt;\n                                                        &lt;urn:br/&gt;\n                                                    &lt;/urn:content&gt;\n                                                &lt;/xml-fragment&gt;</div>"
          }
        }, {
          "title": "Pathways Assessment",
          "text": {
            "status": "generated",
            "div": "<div xmlns=\"http://www.w3.org/1999/xhtml\">&lt;xml-fragment mediaType=&quot;text/x-hl7-text+xml&quot; xmlns:xsd=&quot;http://www.w3.org/2001/XMLSchema&quot; xmlns:xsi=&quot;http://www.w3.org/2001/XMLSchema-instance&quot;&gt;\n                                                    &lt;urn:content xmlns:urn=&quot;urn:hl7-org:v3&quot;&gt;An injury or health problem was the reason for the contact.&lt;/urn:content&gt;\n                                                    &lt;urn:br xmlns:urn=&quot;urn:hl7-org:v3&quot;/&gt;\n                                                    &lt;urn:content xmlns:urn=&quot;urn:hl7-org:v3&quot;&gt;Heavy bleeding had not occurred in the previous 2 hours.&lt;/urn:content&gt;\n                                                    &lt;urn:br xmlns:urn=&quot;urn:hl7-org:v3&quot;/&gt;\n                                                    &lt;urn:content xmlns:urn=&quot;urn:hl7-org:v3&quot;&gt;An illness or health problem was the main problem. - Test&lt;/urn:content&gt;\n                                                    &lt;urn:br xmlns:urn=&quot;urn:hl7-org:v3&quot;/&gt;\n                                                    &lt;urn:content xmlns:urn=&quot;urn:hl7-org:v3&quot;&gt;The individual was not fighting for breath.&lt;/urn:content&gt;\n                                                    &lt;urn:br xmlns:urn=&quot;urn:hl7-org:v3&quot;/&gt;\n                                                    &lt;urn:content xmlns:urn=&quot;urn:hl7-org:v3&quot;&gt;The main reason for the assessment was not an allergic reaction, heart attack, chest/upper back pain, probable stroke, recent fit/seizure or suicide attempt.&lt;/urn:content&gt;\n                                                    &lt;urn:br xmlns:urn=&quot;urn:hl7-org:v3&quot;/&gt;\n                                                    &lt;urn:content xmlns:urn=&quot;urn:hl7-org:v3&quot;&gt;The main reason for contact was not new confusion, declared diabetic hypo/hyperglycaemia, or ICD shock.&lt;/urn:content&gt;\n                                                    &lt;urn:br xmlns:urn=&quot;urn:hl7-org:v3&quot;/&gt;\n                                                    &lt;urn:content xmlns:urn=&quot;urn:hl7-org:v3&quot;&gt;The skin on the torso felt normal, warm or hot.&lt;/urn:content&gt;\n                                                    &lt;urn:br xmlns:urn=&quot;urn:hl7-org:v3&quot;/&gt;\n                                                    &lt;urn:content xmlns:urn=&quot;urn:hl7-org:v3&quot;&gt;There was no vomiting, diarrhoea, rectal bleeding, groin pain or groin swelling.&lt;/urn:content&gt;\n                                                    &lt;urn:br xmlns:urn=&quot;urn:hl7-org:v3&quot;/&gt;\n                                                    &lt;urn:content xmlns:urn=&quot;urn:hl7-org:v3&quot;&gt;There was no new genital pain or swelling.&lt;/urn:content&gt;\n                                                    &lt;urn:br xmlns:urn=&quot;urn:hl7-org:v3&quot;/&gt;\n                                                    &lt;urn:content xmlns:urn=&quot;urn:hl7-org:v3&quot;&gt;The individual was able to carry out most or all normal activities.&lt;/urn:content&gt;\n                                                    &lt;urn:br xmlns:urn=&quot;urn:hl7-org:v3&quot;/&gt;\n                                                    &lt;urn:content xmlns:urn=&quot;urn:hl7-org:v3&quot;&gt;There was no crushing or severe aching chest, upper back or upper abdominal pain, or pain going to the arm, neck, jaw or shoulder.&lt;/urn:content&gt;\n                                                    &lt;urn:br xmlns:urn=&quot;urn:hl7-org:v3&quot;/&gt;\n                                                    &lt;urn:content xmlns:urn=&quot;urn:hl7-org:v3&quot;&gt;The individual had not ingested a harmful or toxic substance.&lt;/urn:content&gt;\n                                                    &lt;urn:br xmlns:urn=&quot;urn:hl7-org:v3&quot;/&gt;\n                                                    &lt;urn:content xmlns:urn=&quot;urn:hl7-org:v3&quot;&gt;There had been no black and tarry or red/maroon bowel motions.&lt;/urn:content&gt;\n                                                    &lt;urn:br xmlns:urn=&quot;urn:hl7-org:v3&quot;/&gt;\n                                                    &lt;urn:content xmlns:urn=&quot;urn:hl7-org:v3&quot;&gt;There was no new or worsening confusion.&lt;/urn:content&gt;\n                                                    &lt;urn:br xmlns:urn=&quot;urn:hl7-org:v3&quot;/&gt;\n                                                    &lt;urn:content xmlns:urn=&quot;urn:hl7-org:v3&quot;&gt;Breathing harder or faster when doing nothing was not described.&lt;/urn:content&gt;\n                                                    &lt;urn:br xmlns:urn=&quot;urn:hl7-org:v3&quot;/&gt;\n                                                    &lt;urn:content xmlns:urn=&quot;urn:hl7-org:v3&quot;&gt;There was no new shoulder tip pain or pain in the lower right abdomen.&lt;/urn:content&gt;\n                                                    &lt;urn:br xmlns:urn=&quot;urn:hl7-org:v3&quot;/&gt;\n                                                    &lt;urn:content xmlns:urn=&quot;urn:hl7-org:v3&quot;&gt;The individual did not use anticoagulant medication or have a bleeding/clotting disorder.&lt;/urn:content&gt;\n                                                    &lt;urn:br xmlns:urn=&quot;urn:hl7-org:v3&quot;/&gt;\n                                                    &lt;urn:content xmlns:urn=&quot;urn:hl7-org:v3&quot;&gt;There was constant pain for 4 hours or more.&lt;/urn:content&gt;\n                                                    &lt;urn:br xmlns:urn=&quot;urn:hl7-org:v3&quot;/&gt;\n                                                &lt;/xml-fragment&gt;</div>"
          }
        }, {
          "title": "Advice Given",
          "text": {
            "status": "generated",
            "div": "<div xmlns=\"http://www.w3.org/1999/xhtml\">&lt;xml-fragment mediaType=&quot;text/x-hl7-text+xml&quot; xmlns:xsd=&quot;http://www.w3.org/2001/XMLSchema&quot; xmlns:xsi=&quot;http://www.w3.org/2001/XMLSchema-instance&quot;&gt;\n                                                    &lt;urn:content xmlns:urn=&quot;urn:hl7-org:v3&quot;&gt;Unless advised not to, paracetamol may be used to relieve pain or fever. Follow the instructions in the pack. If in doubt ask a pharmacist.&lt;/urn:content&gt;\n                                                    &lt;urn:br xmlns:urn=&quot;urn:hl7-org:v3&quot;/&gt;\n                                                    &lt;urn:content xmlns:urn=&quot;urn:hl7-org:v3&quot;&gt;Don't use ibuprofen or any other anti-inflammatory medication until you have spoken to a healthcare professional.&lt;/urn:content&gt;\n                                                    &lt;urn:br xmlns:urn=&quot;urn:hl7-org:v3&quot;/&gt;\n                                                    &lt;urn:content xmlns:urn=&quot;urn:hl7-org:v3&quot;&gt;If there are any new symptoms, or if the condition gets worse, changes or you have any other concerns, call us back.&lt;/urn:content&gt;\n                                                    &lt;urn:br xmlns:urn=&quot;urn:hl7-org:v3&quot;/&gt;\n                                                    &lt;urn:content xmlns:urn=&quot;urn:hl7-org:v3&quot;&gt;Remember to take a list of any current medications if you go to the out of hours surgery.&lt;/urn:content&gt;\n                                                    &lt;urn:br xmlns:urn=&quot;urn:hl7-org:v3&quot;/&gt;\n                                                &lt;/xml-fragment&gt;</div>"
          }
        }, {
          "title": "SCR Consent",
          "text": {
            "status": "generated",
            "div": "<div xmlns=\"http://www.w3.org/1999/xhtml\">&lt;xml-fragment mediaType=&quot;text/x-hl7-text+xml&quot; xmlns:xsd=&quot;http://www.w3.org/2001/XMLSchema&quot; xmlns:xsi=&quot;http://www.w3.org/2001/XMLSchema-instance&quot;&gt;\n                                                    &lt;urn:content xmlns:urn=&quot;urn:hl7-org:v3&quot;&gt;Consent given for SCR sharing\n                                                        &lt;urn:br/&gt;\n                                                        &lt;urn:br/&gt;\n                                                    &lt;/urn:content&gt;\n                                                &lt;/xml-fragment&gt;</div>"
          }
        } ]
      }, {
        "title": "ReferralRequest",
        "entry": [ {
          "reference": "urn:uuid:946cd217-77fd-4b86-85ea-6b23793ab585"
        } ]
      } ]
    }
  }, {
    "fullUrl": "urn:uuid:a354e66f-be7a-482e-b7a3-145595927871",
    "resource": {
      "resourceType": "Consent",
      "id": "a354e66f-be7a-482e-b7a3-145595927871",
      "identifier": {
        "use": "usual",
        "value": "192F7989-BE74-4F5C-AA94-FC0778DAC8AA"
      },
      "status": "active",
      "patient": {
        "reference": "urn:uuid:ca778d05-a380-4ec5-ab2c-6de9746f3ce5"
      },
      "period": {
        "start": "2021-05-11T08:53:28+00:00"
      },
      "consentingParty": [ {
        "reference": "urn:uuid:ca778d05-a380-4ec5-ab2c-6de9746f3ce5"
      } ],
      "action": [ {
        "coding": [ {
          "system": "http://snomed.info/sct",
          "code": "425691002",
          "display": "Consent given for electronic record sharing"
        } ],
        "text": "Consent given for electronic record sharing"
      } ],
      "organization": [ {
        "reference": "urn:uuid:7922254e-051f-4e08-8e7d-969cdc18ef0d"
      } ],
      "policyRule": "http://hl7.org/fhir/ConsentPolicy/opt-out",
      "data": [ {
        "meaning": "related",
        "reference": {
          "reference": "urn:uuid:00005fa9-d33a-48b3-9a7a-16159b06baa1"
        }
      } ]
    }
  }, {
    "fullUrl": "urn:uuid:dc7bbb91-a198-4c86-bf29-9cae5363a786",
    "resource": {
      "resourceType": "Condition",
      "id": "dc7bbb91-a198-4c86-bf29-9cae5363a786",
      "clinicalStatus": "active",
      "verificationStatus": "unknown",
      "subject": {
        "reference": "urn:uuid:ca778d05-a380-4ec5-ab2c-6de9746f3ce5"
      },
      "context": {
        "reference": "urn:uuid:00005fa9-d33a-48b3-9a7a-16159b06baa1"
      }
    }
  }, {
    "fullUrl": "urn:uuid:99bf66d4-ce4b-4fdd-8eb0-54eb2189ee60",
    "resource": {
      "resourceType": "Observation",
      "id": "99bf66d4-ce4b-4fdd-8eb0-54eb2189ee60",
      "status": "final",
      "code": {
        "coding": [ {
          "system": "http://snomed.info/sct",
          "code": "33962009",
          "display": "Presenting complaint"
        } ]
      },
      "subject": {
        "reference": "urn:uuid:ca778d05-a380-4ec5-ab2c-6de9746f3ce5"
      },
      "context": {
        "reference": "urn:uuid:00005fa9-d33a-48b3-9a7a-16159b06baa1"
      },
      "valueString": "<CLEO Ref: 2100310382> Test Call for DX06.\n                                                        "
    }
  }, {
    "fullUrl": "urn:uuid:e22661a5-ed07-4840-9458-2eebebe00a2e",
    "resource": {
      "resourceType": "PractitionerRole",
      "id": "e22661a5-ed07-4840-9458-2eebebe00a2e",
      "practitioner": {
        "reference": "urn:uuid:d107b525-450b-471f-ab3f-bc3e9758eeda"
      },
      "organization": {
        "reference": "urn:uuid:fe34301b-71c6-4c70-a443-8cd4b0db5bf7"
      },
      "code": [ {
        "coding": [ {
          "system": "2.16.840.1.113883.2.1.3.2.4.17.196",
          "code": "NR1690",
          "display": "Call Operator"
        } ]
      } ]
    }
  }, {
    "fullUrl": "urn:uuid:fe34301b-71c6-4c70-a443-8cd4b0db5bf7",
    "resource": {
      "resourceType": "Organization",
      "id": "fe34301b-71c6-4c70-a443-8cd4b0db5bf7",
      "identifier": [ {
        "value": "NTN08"
      } ],
      "name": "Norfolk and Wisbech 111"
    }
  }, {
    "fullUrl": "urn:uuid:47b7c4b5-fc1c-4fb5-a453-5a5f092dda6b",
    "resource": {
      "resourceType": "RelatedPerson",
      "id": "47b7c4b5-fc1c-4fb5-a453-5a5f092dda6b",
      "patient": {
        "reference": "urn:uuid:ca778d05-a380-4ec5-ab2c-6de9746f3ce5"
      },
      "relationship": {
        "coding": [ {
          "system": "http://hl7.org/fhir/v2/0131",
          "code": "C",
          "display": "Emergency Contact"
        } ]
      },
      "telecom": [ {
        "system": "phone",
        "value": "tel:01233123123"
      } ]
    }
  }, {
    "fullUrl": "urn:uuid:6c073791-4fdc-4b07-bdb2-9e333b382f39",
    "resource": {
      "resourceType": "Device",
      "id": "6c073791-4fdc-4b07-bdb2-9e333b382f39",
      "model": "111 Adaptor",
      "version": "0.9.0"
    }
  }, {
    "fullUrl": "urn:uuid:5681e414-a53d-48ec-a69f-c2497016af72",
    "resource": {
      "resourceType": "List",
      "id": "5681e414-a53d-48ec-a69f-c2497016af72",
      "status": "current",
      "mode": "working",
      "title": "111 Report List",
      "code": {
        "coding": [ {
          "system": "http://snomed.info/sct",
          "code": "225390008",
          "display": "Triage"
        } ]
      },
      "subject": {
        "reference": "urn:uuid:ca778d05-a380-4ec5-ab2c-6de9746f3ce5"
      },
      "encounter": {
        "reference": "urn:uuid:00005fa9-d33a-48b3-9a7a-16159b06baa1"
      },
      "date": "2021-09-15T09:16:09+00:00",
      "source": {
        "reference": "urn:uuid:6c073791-4fdc-4b07-bdb2-9e333b382f39"
      },
      "orderedBy": {
        "coding": [ {
          "system": "http://hl7.org/fhir/list-order",
          "code": "event-date",
          "display": "Sorted by Event Date"
        } ]
      },
      "entry": [ {
        "item": {
          "reference": "urn:uuid:dc7bbb91-a198-4c86-bf29-9cae5363a786"
        }
      }, {
        "item": {
          "reference": "urn:uuid:6a54595b-3161-41e5-bf87-97723450b0d6"
        }
      }, {
        "item": {
          "reference": "urn:uuid:fe34301b-71c6-4c70-a443-8cd4b0db5bf7"
        }
      }, {
        "item": {
          "reference": "urn:uuid:7922254e-051f-4e08-8e7d-969cdc18ef0d"
        }
      }, {
        "item": {
          "reference": "urn:uuid:47b7c4b5-fc1c-4fb5-a453-5a5f092dda6b"
        }
      }, {
        "item": {
          "reference": "urn:uuid:d5d9c2e4-eef1-41f8-87fd-8306dce9e2db"
        }
      }, {
        "item": {
          "reference": "urn:uuid:99bf66d4-ce4b-4fdd-8eb0-54eb2189ee60"
        }
      }, {
        "item": {
          "reference": "urn:uuid:c46597e3-48e3-48b0-95c0-7414cebc58b1"
        }
      }, {
        "item": {
          "reference": "urn:uuid:03243a06-8ed4-4e8b-9cd6-5edea134a022"
        }
      }, {
        "item": {
          "reference": "urn:uuid:82f8fcf1-5158-40a0-98c3-fb7a30e18437"
        }
      }, {
        "item": {
          "reference": "urn:uuid:d107b525-450b-471f-ab3f-bc3e9758eeda"
        }
      }, {
        "item": {
          "reference": "urn:uuid:946cd217-77fd-4b86-85ea-6b23793ab585"
        }
      } ]
    }
  } ]
}