{
  "resourceType": "Bundle",
  "meta": {
    "lastUpdated": "2022-05-12T06:46:17.397+00:00"
  },
  "identifier": {
    "type": {
      "text": "ClinicalDocument VersionNumber"
    },
    "value": "1"
  },
  "type": "message",
  "entry": [ {
    "fullUrl": "urn:uuid:D78E4686-5082-4E76-9359-6A84AE0C9C10",
    "resource": {
      "resourceType": "MessageHeader",
      "id": "D78E4686-5082-4E76-9359-6A84AE0C9C10",
      "event": {
        "system": "https://fhir.nhs.uk/STU3/CodeSystem/EventType-1",
        "code": "referral-1",
        "display": "Referral"
      },
      "destination": [ {
        "endpoint": "urn:nhs-uk:addressing:ods:NVE06:DOSServiceID:1335970392"
      } ],
      "timestamp": "2021-05-11T08:53:28.000+00:00",
      "source": {
        "name": "NHS 111 Adaptor",
        "endpoint": "http://localhost:8080/report"
      },
      "reason": {
        "coding": [ {
          "system": "urn:nhs-itk:ns:201005:interaction",
          "code": "urn:nhs-itk:interaction:primaryOutofHourRecipientNHS111CDADocument-v2-0"
        } ]
      }
    }
  }, {
    "fullUrl": "urn:uuid:889e796d-ea7f-4877-89e3-199b7dcd50da",
    "resource": {
      "resourceType": "Encounter",
      "id": "889e796d-ea7f-4877-89e3-199b7dcd50da",
      "identifier": [ {
        "system": "2.16.840.1.113883.2.1.3.2.4.18.34",
        "value": "0060E06D-C899-440E-B58E-B5522662EC28"
      }, {
        "system": "2.16.840.1.113883.2.1.3.2.4.18.35",
        "value": "2100310382"
      } ],
      "status": "finished",
      "type": [ {
        "text": "111 Encounter Referral"
      } ],
      "subject": {
        "reference": "urn:uuid:1b2a5855-800e-4a60-b0f2-53190a78f0be"
      },
      "participant": [ {
        "type": [ {
          "coding": [ {
            "system": "http://hl7.org/fhir/ValueSet/encounter-participant-type",
            "code": "PPRF",
            "display": "Author"
          } ]
        } ],
        "individual": {
          "reference": "urn:uuid:10134ea9-ac27-4add-844e-1cf0b6a05f2d"
        }
      }, {
        "type": [ {
          "text": "Informant"
        } ],
        "individual": {
          "reference": "urn:uuid:a854dab3-0b8c-4761-b06a-094186c0ce11"
        }
      } ],
      "period": {
        "start": "2021-05-11T08:49:11+00:00",
        "end": "2021-05-11T08:53:28+00:00"
      },
      "location": [ {
        "location": {
          "reference": "urn:uuid:a449ac72-543c-4247-93be-7da7f9762a37"
        },
        "status": "active"
      }, {
        "location": {
          "reference": "urn:uuid:b4b2a58d-b136-4c16-9254-4d9aef5754a3"
        },
        "status": "completed"
      } ],
      "serviceProvider": {
        "reference": "urn:uuid:a5b99092-cfc9-491f-b295-a22a97c923ef"
      }
    }
  }, {
    "fullUrl": "urn:uuid:a5b99092-cfc9-491f-b295-a22a97c923ef",
    "resource": {
      "resourceType": "Organization",
      "id": "a5b99092-cfc9-491f-b295-a22a97c923ef",
      "active": true,
      "type": [ {
        "text": "CST"
      } ],
      "name": "Norfolk and Wisbech 111"
    }
  }, {
    "fullUrl": "urn:uuid:10134ea9-ac27-4add-844e-1cf0b6a05f2d",
    "resource": {
      "resourceType": "Practitioner",
      "id": "10134ea9-ac27-4add-844e-1cf0b6a05f2d",
      "active": true,
      "name": [ {
        "text": "Ben Smythson"
      } ]
    }
  }, {
    "fullUrl": "urn:uuid:a854dab3-0b8c-4761-b06a-094186c0ce11",
    "resource": {
      "resourceType": "RelatedPerson",
      "id": "a854dab3-0b8c-4761-b06a-094186c0ce11",
      "active": true,
      "patient": {
        "reference": "urn:uuid:1b2a5855-800e-4a60-b0f2-53190a78f0be"
      },
      "relationship": {
        "coding": [ {
          "system": "2.16.840.1.113883.2.1.3.2.4.16.45",
          "code": "21",
          "display": "Self"
        }, {
          "system": "http://hl7.org/fhir/v2/0131",
          "code": "C",
          "display": "Emergency Contact"
        } ]
      },
      "name": [ {
        "text": "Test Call TEST CALL DX06"
      } ],
      "telecom": [ {
        "system": "phone",
        "value": "tel:01233123123"
      } ],
      "gender": "unknown"
    }
  }, {
    "fullUrl": "urn:uuid:a449ac72-543c-4247-93be-7da7f9762a37",
    "resource": {
      "resourceType": "Location",
      "id": "a449ac72-543c-4247-93be-7da7f9762a37",
      "managingOrganization": {
        "reference": "urn:uuid:b35dcd0b-4c92-44ac-acf7-7981f372062a"
      }
    }
  }, {
    "fullUrl": "urn:uuid:b35dcd0b-4c92-44ac-acf7-7981f372062a",
    "resource": {
      "resourceType": "Organization",
      "id": "b35dcd0b-4c92-44ac-acf7-7981f372062a",
      "identifier": [ {
        "value": "Z10000"
      } ],
      "type": [ {
        "text": "GP Practice"
      } ],
      "name": "UNKNOWN"
    }
  }, {
    "fullUrl": "urn:uuid:b4b2a58d-b136-4c16-9254-4d9aef5754a3",
    "resource": {
      "resourceType": "Location",
      "id": "b4b2a58d-b136-4c16-9254-4d9aef5754a3",
      "address": {
        "type": "physical",
        "line": [ "313 VICTORIA ROAD", "LOWESTOFT" ],
        "postalCode": "NR33 9LS"
      }
    }
  }, {
    "fullUrl": "urn:uuid:1b2a5855-800e-4a60-b0f2-53190a78f0be",
    "resource": {
      "resourceType": "Patient",
      "id": "1b2a5855-800e-4a60-b0f2-53190a78f0be",
      "language": "en",
      "active": true,
      "name": [ {
        "use": "official",
        "family": "TEST CALL DX06",
        "given": [ "Test Call" ]
      } ],
      "telecom": [ {
        "system": "phone",
        "value": "tel:01233123123"
      } ],
      "gender": "male",
      "birthDate": "1996-03-25",
      "address": [ {
        "use": "home",
        "line": [ "313 VICTORIA ROAD", "LOWESTOFT" ],
        "postalCode": "NR33 9LS"
      }, {
        "type": "physical",
        "line": [ "313 VICTORIA ROAD", "LOWESTOFT" ],
        "postalCode": "NR33 9LS"
      } ],
      "generalPractitioner": [ {
        "reference": "urn:uuid:ea67aca7-aebd-428a-9eb5-aac3b62dae14"
      } ]
    }
  }, {
    "fullUrl": "urn:uuid:ea67aca7-aebd-428a-9eb5-aac3b62dae14",
    "resource": {
      "resourceType": "Organization",
      "id": "ea67aca7-aebd-428a-9eb5-aac3b62dae14",
      "identifier": [ {
        "value": "Z10000"
      } ],
      "type": [ {
        "text": "GP Practice"
      } ],
      "name": "UNKNOWN"
    }
  }, {
    "fullUrl": "urn:uuid:9879f549-eed3-4357-b3ec-edc49e26f821",
    "resource": {
      "resourceType": "HealthcareService",
      "id": "9879f549-eed3-4357-b3ec-edc49e26f821",
      "active": true,
      "providedBy": {
        "reference": "urn:uuid:30a62123-9bd8-4bbf-80ee-dabe9fc1b5e6"
      },
      "location": [ {
        "reference": "urn:uuid:8550ebec-c771-4581-9a29-847448a7afcd"
      } ],
      "name": "Out of Hours GP Service (Waveney) - Kirkley Mill Health Centre, Lowestoft"
    }
  }, {
    "fullUrl": "urn:uuid:8550ebec-c771-4581-9a29-847448a7afcd",
    "resource": {
      "resourceType": "Location",
      "id": "8550ebec-c771-4581-9a29-847448a7afcd",
      "managingOrganization": {
        "reference": "urn:uuid:30a62123-9bd8-4bbf-80ee-dabe9fc1b5e6"
      }
    }
  }, {
    "fullUrl": "urn:uuid:30a62123-9bd8-4bbf-80ee-dabe9fc1b5e6",
    "resource": {
      "resourceType": "Organization",
      "id": "30a62123-9bd8-4bbf-80ee-dabe9fc1b5e6",
      "identifier": [ {
        "value": "NVE06"
      } ],
      "type": [ {
        "coding": [ {
          "code": "PRCP",
          "display": "Out of Hours GP Service (Waveney) - Kirkley Mill Health Centre, Lowestoft"
        } ]
      } ],
      "name": "Out of Hours GP Service (Waveney) - Kirkley Mill Health Centre, Lowestoft"
    }
  }, {
    "fullUrl": "urn:uuid:0fa9fa50-500c-409b-b8ff-561d61b4f4ed",
    "resource": {
      "resourceType": "ReferralRequest",
      "id": "0fa9fa50-500c-409b-b8ff-561d61b4f4ed",
      "status": "active",
      "intent": "plan",
      "priority": "routine",
      "subject": {
        "reference": "urn:uuid:1b2a5855-800e-4a60-b0f2-53190a78f0be"
      },
      "context": {
        "reference": "urn:uuid:889e796d-ea7f-4877-89e3-199b7dcd50da"
      },
      "occurrencePeriod": {
        "start": "2021-05-11T08:53:28+00:00"
      },
      "authoredOn": "2021-05-11T08:53:28+00:00",
      "requester": {
        "agent": {
          "reference": "urn:uuid:bc75e14c-df8a-43de-9b74-6bfd9ad12667"
        },
        "onBehalfOf": {
          "reference": "urn:uuid:a5b99092-cfc9-491f-b295-a22a97c923ef"
        }
      },
      "recipient": [ {
        "reference": "urn:uuid:d1cb75e0-cd87-4be9-9629-5f1375810e83"
      }, {
        "reference": "urn:uuid:9879f549-eed3-4357-b3ec-edc49e26f821"
      } ],
      "reasonReference": [ {
        "reference": "urn:uuid:d4062cb1-bd8b-45a5-a574-40fcef800c91"
      } ],
      "supportingInfo": [ {
        "reference": "urn:uuid:2cffa1ba-ba1f-4a3e-a451-debf4f02af2c"
      } ]
    }
  }, {
    "fullUrl": "urn:uuid:2cffa1ba-ba1f-4a3e-a451-debf4f02af2c",
    "resource": {
      "resourceType": "ProcedureRequest",
      "id": "2cffa1ba-ba1f-4a3e-a451-debf4f02af2c",
      "status": "active",
      "intent": "plan",
      "priority": "routine",
      "doNotPerform": false,
      "code": {
        "coding": [ {
          "system": "2.16.840.1.113883.2.1.3.2.4.17.325",
          "code": "Dx06",
          "display": "To contact a local service within 6 hours"
        } ]
      },
      "subject": {
        "reference": "urn:uuid:1b2a5855-800e-4a60-b0f2-53190a78f0be"
      },
      "occurrencePeriod": {
        "start": "2021-05-11T08:53:28+00:00"
      },
      "reasonReference": [ {
        "reference": "urn:uuid:d4062cb1-bd8b-45a5-a574-40fcef800c91"
      } ]
    }
  }, {
    "fullUrl": "urn:uuid:d1cb75e0-cd87-4be9-9629-5f1375810e83",
    "resource": {
      "resourceType": "Practitioner",
      "id": "d1cb75e0-cd87-4be9-9629-5f1375810e83",
      "active": true,
      "telecom": [ {
        "system": "phone",
        "value": "tel:01233505450"
      } ],
      "address": [ {
        "type": "physical",
        "line": [ "Kingston House", "The Long Barrow", "Orbital Park", "Ashford", "Kent" ],
        "postalCode": "TN24 0GP"
      } ]
    }
  }, {
    "fullUrl": "urn:uuid:c23a0f1b-4711-49c9-b33b-e6ef8e6d9ef1",
    "resource": {
      "resourceType": "Composition",
      "id": "c23a0f1b-4711-49c9-b33b-e6ef8e6d9ef1",
      "identifier": {
        "use": "usual",
        "value": "192F7989-BE74-4F5C-AA94-FC0778DAC8AA"
      },
      "status": "final",
      "type": {
        "coding": [ {
          "system": "http://snomed.info/sct",
          "code": "371531000",
          "display": "Report of clinical encounter (record artifact)"
        } ]
      },
      "subject": {
        "reference": "urn:uuid:1b2a5855-800e-4a60-b0f2-53190a78f0be"
      },
      "encounter": {
        "reference": "urn:uuid:889e796d-ea7f-4877-89e3-199b7dcd50da"
      },
      "date": "2021-05-11T08:53:28+00:00",
      "author": [ {
        "reference": "urn:uuid:10134ea9-ac27-4add-844e-1cf0b6a05f2d"
      } ],
      "title": "111 Report",
      "confidentiality": "R",
      "section": [ {
        "section": [ {
          "title": "Patient's Reported Condition",
          "text": {
            "status": "generated",
            "div": "<div xmlns=\"http://www.w3.org/1999/xhtml\">&lt;content&gt;&amp;lt;CLEO Ref: 2100310382&amp;gt; Test Call for DX06.\n                                                        &lt;br/&gt;\n                                                    &lt;/content&gt;</div>"
          }
        }, {
          "title": "Pathways Disposition",
          "text": {
            "status": "generated",
            "div": "<div xmlns=\"http://www.w3.org/1999/xhtml\">&lt;content&gt;The individual needs to contact a local service within 6 hours. (Dx06)&lt;/content&gt;\n                                                    &lt;br/&gt;\n                                                    &lt;br/&gt;\n                                                    &lt;content&gt;Selected Service: 1335970392, Out of Hours GP Service (Waveney) - Kirkley Mill Health Centre, Lowestoft, 111&lt;/content&gt;\n                                                    &lt;br/&gt;</div>"
          }
        }, {
          "title": "Consultation Summary",
          "text": {
            "status": "generated",
            "div": "<div xmlns=\"http://www.w3.org/1999/xhtml\">&lt;content&gt;\n                                                        &lt;content&gt;Constant pain for more than 4 hours&lt;/content&gt;\n                                                        &lt;br/&gt;\n                                                        &lt;content&gt;Warm to touch&lt;/content&gt;\n                                                        &lt;br/&gt;\n                                                        &lt;content&gt;Illness - Test&lt;/content&gt;\n                                                        &lt;br/&gt;\n                                                    &lt;/content&gt;</div>"
          }
        }, {
          "title": "Pathways Assessment",
          "text": {
            "status": "generated",
            "div": "<div xmlns=\"http://www.w3.org/1999/xhtml\">&lt;content&gt;An injury or health problem was the reason for the contact.&lt;/content&gt;\n                                                    &lt;br/&gt;\n                                                    &lt;content&gt;Heavy bleeding had not occurred in the previous 2 hours.&lt;/content&gt;\n                                                    &lt;br/&gt;\n                                                    &lt;content&gt;An illness or health problem was the main problem. - Test&lt;/content&gt;\n                                                    &lt;br/&gt;\n                                                    &lt;content&gt;The individual was not fighting for breath.&lt;/content&gt;\n                                                    &lt;br/&gt;\n                                                    &lt;content&gt;The main reason for the assessment was not an allergic reaction, heart attack, chest/upper back pain, probable stroke, recent fit/seizure or suicide attempt.&lt;/content&gt;\n                                                    &lt;br/&gt;\n                                                    &lt;content&gt;The main reason for contact was not new confusion, declared diabetic hypo/hyperglycaemia, or ICD shock.&lt;/content&gt;\n                                                    &lt;br/&gt;\n                                                    &lt;content&gt;The skin on the torso felt normal, warm or hot.&lt;/content&gt;\n                                                    &lt;br/&gt;\n                                                    &lt;content&gt;There was no vomiting, diarrhoea, rectal bleeding, groin pain or groin swelling.&lt;/content&gt;\n                                                    &lt;br/&gt;\n                                                    &lt;content&gt;There was no new genital pain or swelling.&lt;/content&gt;\n                                                    &lt;br/&gt;\n                                                    &lt;content&gt;The individual was able to carry out most or all normal activities.&lt;/content&gt;\n                                                    &lt;br/&gt;\n                                                    &lt;content&gt;There was no crushing or severe aching chest, upper back or upper abdominal pain, or pain going to the arm, neck, jaw or shoulder.&lt;/content&gt;\n                                                    &lt;br/&gt;\n                                                    &lt;content&gt;The individual had not ingested a harmful or toxic substance.&lt;/content&gt;\n                                                    &lt;br/&gt;\n                                                    &lt;content&gt;There had been no black and tarry or red/maroon bowel motions.&lt;/content&gt;\n                                                    &lt;br/&gt;\n                                                    &lt;content&gt;There was no new or worsening confusion.&lt;/content&gt;\n                                                    &lt;br/&gt;\n                                                    &lt;content&gt;Breathing harder or faster when doing nothing was not described.&lt;/content&gt;\n                                                    &lt;br/&gt;\n                                                    &lt;content&gt;There was no new shoulder tip pain or pain in the lower right abdomen.&lt;/content&gt;\n                                                    &lt;br/&gt;\n                                                    &lt;content&gt;The individual did not use anticoagulant medication or have a bleeding/clotting disorder.&lt;/content&gt;\n                                                    &lt;br/&gt;\n                                                    &lt;content&gt;There was constant pain for 4 hours or more.&lt;/content&gt;\n                                                    &lt;br/&gt;</div>"
          }
        }, {
          "title": "Advice Given",
          "text": {
            "status": "generated",
            "div": "<div xmlns=\"http://www.w3.org/1999/xhtml\">&lt;content&gt;Unless advised not to, paracetamol may be used to relieve pain or fever. Follow the instructions in the pack. If in doubt ask a pharmacist.&lt;/content&gt;\n                                                    &lt;br/&gt;\n                                                    &lt;content&gt;Don't use ibuprofen or any other anti-inflammatory medication until you have spoken to a healthcare professional.&lt;/content&gt;\n                                                    &lt;br/&gt;\n                                                    &lt;content&gt;If there are any new symptoms, or if the condition gets worse, changes or you have any other concerns, call us back.&lt;/content&gt;\n                                                    &lt;br/&gt;\n                                                    &lt;content&gt;Remember to take a list of any current medications if you go to the out of hours surgery.&lt;/content&gt;\n                                                    &lt;br/&gt;</div>"
          }
        }, {
          "title": "SCR Consent",
          "text": {
            "status": "generated",
            "div": "<div xmlns=\"http://www.w3.org/1999/xhtml\">&lt;content&gt;Consent given for SCR sharing\n                                                        &lt;br/&gt;\n                                                        &lt;br/&gt;\n                                                    &lt;/content&gt;</div>"
          }
        } ]
      }, {
        "title": "ReferralRequest",
        "entry": [ {
          "reference": "urn:uuid:0fa9fa50-500c-409b-b8ff-561d61b4f4ed"
        } ]
      } ]
    }
  }, {
    "fullUrl": "urn:uuid:bb1bb6c9-b87b-4975-9118-1329c4b0c091",
    "resource": {
      "resourceType": "Consent",
      "id": "bb1bb6c9-b87b-4975-9118-1329c4b0c091",
      "identifier": {
        "use": "usual",
        "value": "192F7989-BE74-4F5C-AA94-FC0778DAC8AA"
      },
      "status": "active",
      "patient": {
        "reference": "urn:uuid:1b2a5855-800e-4a60-b0f2-53190a78f0be"
      },
      "period": {
        "start": "2021-05-11T08:49:11+00:00",
        "end": "2021-05-11T08:53:28+00:00"
      },
      "consentingParty": [ {
        "reference": "urn:uuid:1b2a5855-800e-4a60-b0f2-53190a78f0be"
      } ],
      "action": [ {
        "coding": [ {
          "system": "http://snomed.info/sct",
          "code": "425691002",
          "display": "Consent given for electronic record sharing"
        } ],
        "text": "Consent given for electronic record sharing"
      } ],
      "organization": [ {
        "reference": "urn:uuid:a5b99092-cfc9-491f-b295-a22a97c923ef"
      } ],
      "policyRule": "http://hl7.org/fhir/ConsentPolicy/opt-out",
      "data": [ {
        "meaning": "related",
        "reference": {
          "reference": "urn:uuid:889e796d-ea7f-4877-89e3-199b7dcd50da"
        }
      } ]
    }
  }, {
    "fullUrl": "urn:uuid:d4062cb1-bd8b-45a5-a574-40fcef800c91",
    "resource": {
      "resourceType": "Condition",
      "id": "d4062cb1-bd8b-45a5-a574-40fcef800c91",
      "clinicalStatus": "active",
      "verificationStatus": "unknown",
      "subject": {
        "reference": "urn:uuid:1b2a5855-800e-4a60-b0f2-53190a78f0be"
      },
      "context": {
        "reference": "urn:uuid:889e796d-ea7f-4877-89e3-199b7dcd50da"
      }
    }
  }, {
    "fullUrl": "urn:uuid:a59ca685-8e35-4214-8f07-f4d1610f630e",
    "resource": {
      "resourceType": "Observation",
      "id": "a59ca685-8e35-4214-8f07-f4d1610f630e",
      "status": "final",
      "code": {
        "coding": [ {
          "system": "http://snomed.info/sct",
          "code": "33962009",
          "display": "Presenting complaint"
        } ]
      },
      "subject": {
        "reference": "urn:uuid:1b2a5855-800e-4a60-b0f2-53190a78f0be"
      },
      "context": {
        "reference": "urn:uuid:889e796d-ea7f-4877-89e3-199b7dcd50da"
      },
      "valueString": "<CLEO Ref: 2100310382> Test Call for DX06.\n                                                        "
    }
  }, {
    "fullUrl": "urn:uuid:8541a9f5-9487-47f2-a0d4-4a0cef13e2e4",
    "resource": {
      "resourceType": "PractitionerRole",
      "id": "8541a9f5-9487-47f2-a0d4-4a0cef13e2e4",
      "practitioner": {
        "reference": "urn:uuid:10134ea9-ac27-4add-844e-1cf0b6a05f2d"
      },
      "organization": {
        "reference": "urn:uuid:ef57b09f-61a7-4e9a-9d50-ac58beae68d7"
      },
      "code": [ {
        "coding": [ {
          "system": "2.16.840.1.113883.2.1.3.2.4.17.196",
          "code": "NR1690",
          "display": "Call Operator"
        } ]
      } ]
    }
  }, {
    "fullUrl": "urn:uuid:ef57b09f-61a7-4e9a-9d50-ac58beae68d7",
    "resource": {
      "resourceType": "Organization",
      "id": "ef57b09f-61a7-4e9a-9d50-ac58beae68d7",
      "identifier": [ {
        "value": "NTN08"
      } ],
      "name": "Norfolk and Wisbech 111"
    }
  }, {
    "fullUrl": "urn:uuid:1d9e3409-caa8-4d8e-ab25-b8186ea53012",
    "resource": {
      "resourceType": "RelatedPerson",
      "id": "1d9e3409-caa8-4d8e-ab25-b8186ea53012",
      "patient": {
        "reference": "urn:uuid:1b2a5855-800e-4a60-b0f2-53190a78f0be"
      },
      "relationship": {
        "coding": [ {
          "system": "http://hl7.org/fhir/v2/0131",
          "code": "C",
          "display": "Emergency Contact"
        } ]
      },
      "telecom": [ {
        "system": "phone",
        "value": "tel:01233123123"
      } ]
    }
  }, {
    "fullUrl": "urn:uuid:bc75e14c-df8a-43de-9b74-6bfd9ad12667",
    "resource": {
      "resourceType": "Device",
      "id": "bc75e14c-df8a-43de-9b74-6bfd9ad12667",
      "model": "111 Adaptor",
      "version": "1.0.1"
    }
  }, {
    "fullUrl": "urn:uuid:7738e0f9-0f28-43b7-8c74-3b4a7ac1ca24",
    "resource": {
      "resourceType": "List",
      "id": "7738e0f9-0f28-43b7-8c74-3b4a7ac1ca24",
      "status": "current",
      "mode": "working",
      "title": "111 Report List",
      "code": {
        "coding": [ {
          "system": "http://snomed.info/sct",
          "code": "225390008",
          "display": "Triage"
        } ]
      },
      "subject": {
        "reference": "urn:uuid:1b2a5855-800e-4a60-b0f2-53190a78f0be"
      },
      "encounter": {
        "reference": "urn:uuid:889e796d-ea7f-4877-89e3-199b7dcd50da"
      },
      "date": "2021-05-11T08:53:28+00:00",
      "source": {
        "reference": "urn:uuid:bc75e14c-df8a-43de-9b74-6bfd9ad12667"
      },
      "orderedBy": {
        "coding": [ {
          "system": "http://hl7.org/fhir/list-order",
          "code": "event-date",
          "display": "Sorted by Event Date"
        } ]
      },
      "entry": [ {
        "item": {
          "reference": "urn:uuid:30a62123-9bd8-4bbf-80ee-dabe9fc1b5e6"
        }
      }, {
        "item": {
          "reference": "urn:uuid:d1cb75e0-cd87-4be9-9629-5f1375810e83"
        }
      }, {
        "item": {
          "reference": "urn:uuid:d4062cb1-bd8b-45a5-a574-40fcef800c91"
        }
      }, {
        "item": {
          "reference": "urn:uuid:b35dcd0b-4c92-44ac-acf7-7981f372062a"
        }
      }, {
        "item": {
          "reference": "urn:uuid:ea67aca7-aebd-428a-9eb5-aac3b62dae14"
        }
      }, {
        "item": {
          "reference": "urn:uuid:10134ea9-ac27-4add-844e-1cf0b6a05f2d"
        }
      }, {
        "item": {
          "reference": "urn:uuid:a854dab3-0b8c-4761-b06a-094186c0ce11"
        }
      }, {
        "item": {
          "reference": "urn:uuid:a59ca685-8e35-4214-8f07-f4d1610f630e"
        }
      }, {
        "item": {
          "reference": "urn:uuid:1d9e3409-caa8-4d8e-ab25-b8186ea53012"
        }
      }, {
        "item": {
          "reference": "urn:uuid:a5b99092-cfc9-491f-b295-a22a97c923ef"
        }
      }, {
        "item": {
          "reference": "urn:uuid:ef57b09f-61a7-4e9a-9d50-ac58beae68d7"
        }
      }, {
        "item": {
          "reference": "urn:uuid:0fa9fa50-500c-409b-b8ff-561d61b4f4ed"
        }
      } ]
    }
  } ]
}