{
  "resourceType": "Bundle",
  "identifier": {
    "type": {
      "text": "ClinicalDocument VersionNumber"
    },
    "value": "1"
  },
  "type": "message",
  "entry": [ {
    "fullUrl": "urn:uuid:D78E4686-5082-4E76-9359-6A84AE0C9C10",
    "resource": {
      "resourceType": "MessageHeader",
      "id": "D78E4686-5082-4E76-9359-6A84AE0C9C10",
      "event": {
        "system": "https://fhir.nhs.uk/STU3/CodeSystem/EventType-1",
        "code": "referral-1",
        "display": "Referral"
      },
      "destination": [ {
        "endpoint": "urn:nhs-uk:addressing:ods:NVE06:DOSServiceID:1335970392"
      } ],
      "timestamp": "2021-05-11T08:53:28.000+00:00",
      "source": {
        "name": "NHS 111 Adaptor",
        "endpoint": "http://localhost:8080/report"
      },
      "reason": {
        "coding": [ {
          "system": "urn:nhs-itk:ns:201005:interaction",
          "code": "urn:nhs-itk:interaction:primaryOutofHourRecipientNHS111CDADocument-v2-0"
        } ]
      }
    }
  }, {
    "fullUrl": "urn:uuid:e8278ae4-7c3b-4026-ad6a-a6b50a6c2e5c",
    "resource": {
      "resourceType": "Encounter",
      "id": "e8278ae4-7c3b-4026-ad6a-a6b50a6c2e5c",
      "identifier": [ {
        "system": "2.16.840.1.113883.2.1.3.2.4.18.34",
        "value": "0060E06D-C899-440E-B58E-B5522662EC28"
      }, {
        "system": "2.16.840.1.113883.2.1.3.2.4.18.35",
        "value": "2100310382"
      } ],
      "status": "finished",
      "type": [ {
        "text": "111 Encounter Referral"
      } ],
      "subject": {
        "reference": "urn:uuid:37c32391-1636-4f3e-a85e-5bd4690bd359"
      },
      "participant": [ {
        "type": [ {
          "coding": [ {
            "system": "http://hl7.org/fhir/ValueSet/encounter-participant-type",
            "code": "PPRF",
            "display": "Author"
          } ]
        } ],
        "individual": {
          "reference": "urn:uuid:c83c751e-0456-4d6f-98af-695d8daeba63"
        }
      }, {
        "type": [ {
          "text": "Informant"
        } ],
        "individual": {
          "reference": "urn:uuid:5af09071-8022-4d1f-bd41-7d0ab3844621"
        }
      } ],
      "period": {
        "start": "2021-05-11T08:53:28+00:00"
      },
      "location": [ {
        "location": {
          "reference": "urn:uuid:9534e5c5-26d0-4b33-a108-fc923442631f"
        },
        "status": "active"
      }, {
        "location": {
          "reference": "urn:uuid:888dfc43-a90e-4a6b-8930-e0d38f151f31"
        },
        "status": "completed"
      } ],
      "serviceProvider": {
        "reference": "urn:uuid:acbf65d8-443b-491e-b8ec-e135274e1dab"
      }
    }
  }, {
    "fullUrl": "urn:uuid:acbf65d8-443b-491e-b8ec-e135274e1dab",
    "resource": {
      "resourceType": "Organization",
      "id": "acbf65d8-443b-491e-b8ec-e135274e1dab",
      "active": true,
      "type": [ {
        "text": "CST"
      } ],
      "name": "Norfolk and Wisbech 111"
    }
  }, {
    "fullUrl": "urn:uuid:c83c751e-0456-4d6f-98af-695d8daeba63",
    "resource": {
      "resourceType": "Practitioner",
      "id": "c83c751e-0456-4d6f-98af-695d8daeba63",
      "active": true,
      "name": [ {
        "text": "Ben Smythson"
      } ]
    }
  }, {
    "fullUrl": "urn:uuid:5af09071-8022-4d1f-bd41-7d0ab3844621",
    "resource": {
      "resourceType": "RelatedPerson",
      "id": "5af09071-8022-4d1f-bd41-7d0ab3844621",
      "active": true,
      "patient": {
        "reference": "urn:uuid:37c32391-1636-4f3e-a85e-5bd4690bd359"
      },
      "relationship": {
        "coding": [ {
          "system": "2.16.840.1.113883.2.1.3.2.4.16.45",
          "code": "21",
          "display": "Self"
        }, {
          "system": "http://hl7.org/fhir/v2/0131",
          "code": "C",
          "display": "Emergency Contact"
        } ]
      },
      "name": [ {
        "text": "Test Call TEST CALL DX06"
      } ],
      "telecom": [ {
        "system": "phone",
        "value": "tel:01233123123"
      } ],
      "gender": "unknown"
    }
  }, {
    "fullUrl": "urn:uuid:9534e5c5-26d0-4b33-a108-fc923442631f",
    "resource": {
      "resourceType": "Location",
      "id": "9534e5c5-26d0-4b33-a108-fc923442631f",
      "managingOrganization": {
        "reference": "urn:uuid:fd1cb861-0dcb-4b8b-abf2-c6a4243f2ca0"
      }
    }
  }, {
    "fullUrl": "urn:uuid:fd1cb861-0dcb-4b8b-abf2-c6a4243f2ca0",
    "resource": {
      "resourceType": "Organization",
      "id": "fd1cb861-0dcb-4b8b-abf2-c6a4243f2ca0",
      "identifier": [ {
        "value": "Z10000"
      } ],
      "type": [ {
        "text": "GP Practice"
      } ],
      "name": "UNKNOWN"
    }
  }, {
    "fullUrl": "urn:uuid:888dfc43-a90e-4a6b-8930-e0d38f151f31",
    "resource": {
      "resourceType": "Location",
      "id": "888dfc43-a90e-4a6b-8930-e0d38f151f31",
      "address": {
        "type": "physical",
        "line": [ "313 VICTORIA ROAD", "LOWESTOFT" ],
        "postalCode": "NR33 9LS"
      }
    }
  }, {
    "fullUrl": "urn:uuid:37c32391-1636-4f3e-a85e-5bd4690bd359",
    "resource": {
      "resourceType": "Patient",
      "id": "37c32391-1636-4f3e-a85e-5bd4690bd359",
      "language": "en",
      "active": true,
      "name": [ {
        "use": "official",
        "family": "TEST CALL DX06",
        "given": [ "Test Call" ]
      } ],
      "telecom": [ {
        "system": "phone",
        "value": "tel:01233123123"
      } ],
      "gender": "male",
      "birthDate": "1996-03-25",
      "address": [ {
        "use": "home",
        "line": [ "313 VICTORIA ROAD", "LOWESTOFT" ],
        "postalCode": "NR33 9LS"
      }, {
        "type": "physical",
        "line": [ "313 VICTORIA ROAD", "LOWESTOFT" ],
        "postalCode": "NR33 9LS"
      } ],
      "generalPractitioner": [ {
        "reference": "urn:uuid:3102fae1-23ce-46d7-a5a8-8e9692870765"
      } ]
    }
  }, {
    "fullUrl": "urn:uuid:3102fae1-23ce-46d7-a5a8-8e9692870765",
    "resource": {
      "resourceType": "Organization",
      "id": "3102fae1-23ce-46d7-a5a8-8e9692870765",
      "identifier": [ {
        "value": "Z10000"
      } ],
      "type": [ {
        "text": "GP Practice"
      } ],
      "name": "UNKNOWN"
    }
  }, {
    "fullUrl": "urn:uuid:6ec9c2c1-ed6a-4199-8871-1f5b273b5d11",
    "resource": {
      "resourceType": "HealthcareService",
      "id": "6ec9c2c1-ed6a-4199-8871-1f5b273b5d11",
      "active": true,
      "providedBy": {
        "reference": "urn:uuid:6596aa78-5493-4c19-994e-9322fc9b1a0c"
      },
      "location": [ {
        "reference": "urn:uuid:737b11bb-99ab-46d5-b784-d14ccc4ec9ea"
      } ],
      "name": "Out of Hours GP Service (Waveney) - Kirkley Mill Health Centre, Lowestoft"
    }
  }, {
    "fullUrl": "urn:uuid:737b11bb-99ab-46d5-b784-d14ccc4ec9ea",
    "resource": {
      "resourceType": "Location",
      "id": "737b11bb-99ab-46d5-b784-d14ccc4ec9ea",
      "managingOrganization": {
        "reference": "urn:uuid:6596aa78-5493-4c19-994e-9322fc9b1a0c"
      }
    }
  }, {
    "fullUrl": "urn:uuid:6596aa78-5493-4c19-994e-9322fc9b1a0c",
    "resource": {
      "resourceType": "Organization",
      "id": "6596aa78-5493-4c19-994e-9322fc9b1a0c",
      "identifier": [ {
        "value": "NVE06"
      } ],
      "type": [ {
        "coding": [ {
          "code": "PRCP",
          "display": "Out of Hours GP Service (Waveney) - Kirkley Mill Health Centre, Lowestoft"
        } ]
      } ],
      "name": "Out of Hours GP Service (Waveney) - Kirkley Mill Health Centre, Lowestoft"
    }
  }, {
    "fullUrl": "urn:uuid:fd10d6d2-428f-4a01-9961-4cab0672a40c",
    "resource": {
      "resourceType": "ReferralRequest",
      "id": "fd10d6d2-428f-4a01-9961-4cab0672a40c",
      "status": "active",
      "intent": "plan",
      "priority": "routine",
      "subject": {
        "reference": "urn:uuid:37c32391-1636-4f3e-a85e-5bd4690bd359"
      },
      "context": {
        "reference": "urn:uuid:e8278ae4-7c3b-4026-ad6a-a6b50a6c2e5c"
      },
      "occurrencePeriod": {
        "start": "2022-05-05T07:31:37+00:00",
        "end": "2022-05-05T08:31:37+00:00"
      },
      "authoredOn": "2021-05-11T08:53:28+00:00",
      "requester": {
        "agent": {
          "reference": "urn:uuid:17065ff6-0940-42b0-bb63-283fd518fe4b"
        },
        "onBehalfOf": {
          "reference": "urn:uuid:acbf65d8-443b-491e-b8ec-e135274e1dab"
        }
      },
      "recipient": [ {
        "reference": "urn:uuid:00f5fdb0-38a0-4c54-98f6-35804c2778ec"
      }, {
        "reference": "urn:uuid:6ec9c2c1-ed6a-4199-8871-1f5b273b5d11"
      } ],
      "reasonReference": [ {
        "reference": "urn:uuid:0ce6e887-5320-46b5-85ea-33ecc8e08beb"
      } ],
      "supportingInfo": [ {
        "reference": "urn:uuid:f9e2060a-3741-49b6-a700-6b732235ff20"
      } ]
    }
  }, {
    "fullUrl": "urn:uuid:f9e2060a-3741-49b6-a700-6b732235ff20",
    "resource": {
      "resourceType": "ProcedureRequest",
      "id": "f9e2060a-3741-49b6-a700-6b732235ff20",
      "status": "active",
      "intent": "plan",
      "priority": "routine",
      "doNotPerform": false,
      "code": {
        "coding": [ {
          "system": "2.16.840.1.113883.2.1.3.2.4.17.325",
          "code": "Dx06",
          "display": "To contact a local service within 6 hours"
        } ]
      },
      "subject": {
        "reference": "urn:uuid:37c32391-1636-4f3e-a85e-5bd4690bd359"
      },
      "occurrencePeriod": {
        "start": "2022-05-05T07:31:37+00:00",
        "end": "2022-05-05T08:31:37+00:00"
      },
      "reasonReference": [ {
        "reference": "urn:uuid:0ce6e887-5320-46b5-85ea-33ecc8e08beb"
      } ]
    }
  }, {
    "fullUrl": "urn:uuid:00f5fdb0-38a0-4c54-98f6-35804c2778ec",
    "resource": {
      "resourceType": "Practitioner",
      "id": "00f5fdb0-38a0-4c54-98f6-35804c2778ec",
      "active": true,
      "telecom": [ {
        "system": "phone",
        "value": "tel:01233505450"
      } ],
      "address": [ {
        "type": "physical",
        "line": [ "Kingston House", "The Long Barrow", "Orbital Park", "Ashford", "Kent" ],
        "postalCode": "TN24 0GP"
      } ]
    }
  }, {
    "fullUrl": "urn:uuid:b87ac6b2-a03f-470f-8dc3-2a1435ad2bdb",
    "resource": {
      "resourceType": "Composition",
      "id": "b87ac6b2-a03f-470f-8dc3-2a1435ad2bdb",
      "identifier": {
        "use": "usual",
        "value": "192F7989-BE74-4F5C-AA94-FC0778DAC8AA"
      },
      "status": "final",
      "type": {
        "coding": [ {
          "system": "http://snomed.info/sct",
          "code": "371531000",
          "display": "Report of clinical encounter (record artifact)"
        } ]
      },
      "subject": {
        "reference": "urn:uuid:37c32391-1636-4f3e-a85e-5bd4690bd359"
      },
      "encounter": {
        "reference": "urn:uuid:e8278ae4-7c3b-4026-ad6a-a6b50a6c2e5c"
      },
      "date": "2021-05-11T08:53:28+00:00",
      "author": [ {
        "reference": "urn:uuid:c83c751e-0456-4d6f-98af-695d8daeba63"
      } ],
      "title": "111 Report",
      "confidentiality": "R",
      "section": [ {
        "section": [ {
          "title": "Patient's Reported Condition",
          "text": {
            "status": "generated",
            "div": "<div xmlns=\"http://www.w3.org/1999/xhtml\">&lt;content&gt;&amp;lt;CLEO Ref: 2100310382&amp;gt; Test Call for DX06.\n                                                        &lt;br/&gt;\n                                                    &lt;/content&gt;</div>"
          }
        }, {
          "title": "Pathways Disposition",
          "text": {
            "status": "generated",
            "div": "<div xmlns=\"http://www.w3.org/1999/xhtml\">&lt;content&gt;The individual needs to contact a local service within 6 hours. (Dx06)&lt;/content&gt;\n                                                    &lt;br/&gt;\n                                                    &lt;br/&gt;\n                                                    &lt;content&gt;Selected Service: 1335970392, Out of Hours GP Service (Waveney) - Kirkley Mill Health Centre, Lowestoft, 111&lt;/content&gt;\n                                                    &lt;br/&gt;</div>"
          }
        }, {
          "title": "Consultation Summary",
          "text": {
            "status": "generated",
            "div": "<div xmlns=\"http://www.w3.org/1999/xhtml\">&lt;content&gt;\n                                                        &lt;content&gt;Constant pain for more than 4 hours&lt;/content&gt;\n                                                        &lt;br/&gt;\n                                                        &lt;content&gt;Warm to touch&lt;/content&gt;\n                                                        &lt;br/&gt;\n                                                        &lt;content&gt;Illness - Test&lt;/content&gt;\n                                                        &lt;br/&gt;\n                                                    &lt;/content&gt;</div>"
          }
        }, {
          "title": "Pathways Assessment",
          "text": {
            "status": "generated",
            "div": "<div xmlns=\"http://www.w3.org/1999/xhtml\">&lt;content&gt;An injury or health problem was the reason for the contact.&lt;/content&gt;\n                                                    &lt;br/&gt;\n                                                    &lt;content&gt;Heavy bleeding had not occurred in the previous 2 hours.&lt;/content&gt;\n                                                    &lt;br/&gt;\n                                                    &lt;content&gt;An illness or health problem was the main problem. - Test&lt;/content&gt;\n                                                    &lt;br/&gt;\n                                                    &lt;content&gt;The individual was not fighting for breath.&lt;/content&gt;\n                                                    &lt;br/&gt;\n                                                    &lt;content&gt;The main reason for the assessment was not an allergic reaction, heart attack, chest/upper back pain, probable stroke, recent fit/seizure or suicide attempt.&lt;/content&gt;\n                                                    &lt;br/&gt;\n                                                    &lt;content&gt;The main reason for contact was not new confusion, declared diabetic hypo/hyperglycaemia, or ICD shock.&lt;/content&gt;\n                                                    &lt;br/&gt;\n                                                    &lt;content&gt;The skin on the torso felt normal, warm or hot.&lt;/content&gt;\n                                                    &lt;br/&gt;\n                                                    &lt;content&gt;There was no vomiting, diarrhoea, rectal bleeding, groin pain or groin swelling.&lt;/content&gt;\n                                                    &lt;br/&gt;\n                                                    &lt;content&gt;There was no new genital pain or swelling.&lt;/content&gt;\n                                                    &lt;br/&gt;\n                                                    &lt;content&gt;The individual was able to carry out most or all normal activities.&lt;/content&gt;\n                                                    &lt;br/&gt;\n                                                    &lt;content&gt;There was no crushing or severe aching chest, upper back or upper abdominal pain, or pain going to the arm, neck, jaw or shoulder.&lt;/content&gt;\n                                                    &lt;br/&gt;\n                                                    &lt;content&gt;The individual had not ingested a harmful or toxic substance.&lt;/content&gt;\n                                                    &lt;br/&gt;\n                                                    &lt;content&gt;There had been no black and tarry or red/maroon bowel motions.&lt;/content&gt;\n                                                    &lt;br/&gt;\n                                                    &lt;content&gt;There was no new or worsening confusion.&lt;/content&gt;\n                                                    &lt;br/&gt;\n                                                    &lt;content&gt;Breathing harder or faster when doing nothing was not described.&lt;/content&gt;\n                                                    &lt;br/&gt;\n                                                    &lt;content&gt;There was no new shoulder tip pain or pain in the lower right abdomen.&lt;/content&gt;\n                                                    &lt;br/&gt;\n                                                    &lt;content&gt;The individual did not use anticoagulant medication or have a bleeding/clotting disorder.&lt;/content&gt;\n                                                    &lt;br/&gt;\n                                                    &lt;content&gt;There was constant pain for 4 hours or more.&lt;/content&gt;\n                                                    &lt;br/&gt;</div>"
          }
        }, {
          "title": "Advice Given",
          "text": {
            "status": "generated",
            "div": "<div xmlns=\"http://www.w3.org/1999/xhtml\">&lt;content&gt;Unless advised not to, paracetamol may be used to relieve pain or fever. Follow the instructions in the pack. If in doubt ask a pharmacist.&lt;/content&gt;\n                                                    &lt;br/&gt;\n                                                    &lt;content&gt;Don't use ibuprofen or any other anti-inflammatory medication until you have spoken to a healthcare professional.&lt;/content&gt;\n                                                    &lt;br/&gt;\n                                                    &lt;content&gt;If there are any new symptoms, or if the condition gets worse, changes or you have any other concerns, call us back.&lt;/content&gt;\n                                                    &lt;br/&gt;\n                                                    &lt;content&gt;Remember to take a list of any current medications if you go to the out of hours surgery.&lt;/content&gt;\n                                                    &lt;br/&gt;</div>"
          }
        }, {
          "title": "SCR Consent",
          "text": {
            "status": "generated",
            "div": "<div xmlns=\"http://www.w3.org/1999/xhtml\">&lt;content&gt;Consent given for SCR sharing\n                                                        &lt;br/&gt;\n                                                        &lt;br/&gt;\n                                                    &lt;/content&gt;</div>"
          }
        } ]
      }, {
        "title": "ReferralRequest",
        "entry": [ {
          "reference": "urn:uuid:fd10d6d2-428f-4a01-9961-4cab0672a40c"
        } ]
      } ]
    }
  }, {
    "fullUrl": "urn:uuid:e9f6ac03-f35e-4670-8f95-27bd51b75f13",
    "resource": {
      "resourceType": "Consent",
      "id": "e9f6ac03-f35e-4670-8f95-27bd51b75f13",
      "identifier": {
        "use": "usual",
        "value": "192F7989-BE74-4F5C-AA94-FC0778DAC8AA"
      },
      "status": "active",
      "patient": {
        "reference": "urn:uuid:37c32391-1636-4f3e-a85e-5bd4690bd359"
      },
      "period": {
        "start": "2021-05-11T08:53:28+00:00"
      },
      "consentingParty": [ {
        "reference": "urn:uuid:37c32391-1636-4f3e-a85e-5bd4690bd359"
      } ],
      "action": [ {
        "coding": [ {
          "system": "http://snomed.info/sct",
          "code": "425691002",
          "display": "Consent given for electronic record sharing"
        } ],
        "text": "Consent given for electronic record sharing"
      } ],
      "organization": [ {
        "reference": "urn:uuid:acbf65d8-443b-491e-b8ec-e135274e1dab"
      } ],
      "policyRule": "http://hl7.org/fhir/ConsentPolicy/opt-out",
      "data": [ {
        "meaning": "related",
        "reference": {
          "reference": "urn:uuid:e8278ae4-7c3b-4026-ad6a-a6b50a6c2e5c"
        }
      } ]
    }
  }, {
    "fullUrl": "urn:uuid:0ce6e887-5320-46b5-85ea-33ecc8e08beb",
    "resource": {
      "resourceType": "Condition",
      "id": "0ce6e887-5320-46b5-85ea-33ecc8e08beb",
      "clinicalStatus": "active",
      "verificationStatus": "unknown",
      "subject": {
        "reference": "urn:uuid:37c32391-1636-4f3e-a85e-5bd4690bd359"
      },
      "context": {
        "reference": "urn:uuid:e8278ae4-7c3b-4026-ad6a-a6b50a6c2e5c"
      }
    }
  }, {
    "fullUrl": "urn:uuid:7db51c18-9786-4927-8057-d65061b575a6",
    "resource": {
      "resourceType": "Observation",
      "id": "7db51c18-9786-4927-8057-d65061b575a6",
      "status": "final",
      "code": {
        "coding": [ {
          "system": "http://snomed.info/sct",
          "code": "33962009",
          "display": "Presenting complaint"
        } ]
      },
      "subject": {
        "reference": "urn:uuid:37c32391-1636-4f3e-a85e-5bd4690bd359"
      },
      "context": {
        "reference": "urn:uuid:e8278ae4-7c3b-4026-ad6a-a6b50a6c2e5c"
      },
      "valueString": "<CLEO Ref: 2100310382> Test Call for DX06.\n                                                        "
    }
  }, {
    "fullUrl": "urn:uuid:4a7136de-d4f5-4b6b-9b0c-6cf7e1c77272",
    "resource": {
      "resourceType": "PractitionerRole",
      "id": "4a7136de-d4f5-4b6b-9b0c-6cf7e1c77272",
      "practitioner": {
        "reference": "urn:uuid:c83c751e-0456-4d6f-98af-695d8daeba63"
      },
      "organization": {
        "reference": "urn:uuid:b7f45915-09c3-4ce3-833a-d3e83e177dc1"
      },
      "code": [ {
        "coding": [ {
          "system": "2.16.840.1.113883.2.1.3.2.4.17.196",
          "code": "NR1690",
          "display": "Call Operator"
        } ]
      } ]
    }
  }, {
    "fullUrl": "urn:uuid:b7f45915-09c3-4ce3-833a-d3e83e177dc1",
    "resource": {
      "resourceType": "Organization",
      "id": "b7f45915-09c3-4ce3-833a-d3e83e177dc1",
      "identifier": [ {
        "value": "NTN08"
      } ],
      "name": "Norfolk and Wisbech 111"
    }
  }, {
    "fullUrl": "urn:uuid:259033ca-1690-4e7d-9afe-1e1a7c2b7ae1",
    "resource": {
      "resourceType": "RelatedPerson",
      "id": "259033ca-1690-4e7d-9afe-1e1a7c2b7ae1",
      "patient": {
        "reference": "urn:uuid:37c32391-1636-4f3e-a85e-5bd4690bd359"
      },
      "relationship": {
        "coding": [ {
          "system": "http://hl7.org/fhir/v2/0131",
          "code": "C",
          "display": "Emergency Contact"
        } ]
      },
      "telecom": [ {
        "system": "phone",
        "value": "tel:01233123123"
      } ]
    }
  }, {
    "fullUrl": "urn:uuid:17065ff6-0940-42b0-bb63-283fd518fe4b",
    "resource": {
      "resourceType": "Device",
      "id": "17065ff6-0940-42b0-bb63-283fd518fe4b",
      "model": "111 Adaptor",
      "version": "1.0.1"
    }
  }, {
    "fullUrl": "urn:uuid:e22b8cd5-2079-4ff3-88de-85c44fe4e4ef",
    "resource": {
      "resourceType": "List",
      "id": "e22b8cd5-2079-4ff3-88de-85c44fe4e4ef",
      "status": "current",
      "mode": "working",
      "title": "111 Report List",
      "code": {
        "coding": [ {
          "system": "http://snomed.info/sct",
          "code": "225390008",
          "display": "Triage"
        } ]
      },
      "subject": {
        "reference": "urn:uuid:37c32391-1636-4f3e-a85e-5bd4690bd359"
      },
      "encounter": {
        "reference": "urn:uuid:e8278ae4-7c3b-4026-ad6a-a6b50a6c2e5c"
      },
      "date": "2021-05-11T08:53:28+00:00",
      "source": {
        "reference": "urn:uuid:17065ff6-0940-42b0-bb63-283fd518fe4b"
      },
      "orderedBy": {
        "coding": [ {
          "system": "http://hl7.org/fhir/list-order",
          "code": "event-date",
          "display": "Sorted by Event Date"
        } ]
      },
      "entry": [ {
        "item": {
          "reference": "urn:uuid:5af09071-8022-4d1f-bd41-7d0ab3844621"
        }
      }, {
        "item": {
          "reference": "urn:uuid:acbf65d8-443b-491e-b8ec-e135274e1dab"
        }
      }, {
        "item": {
          "reference": "urn:uuid:3102fae1-23ce-46d7-a5a8-8e9692870765"
        }
      }, {
        "item": {
          "reference": "urn:uuid:b7f45915-09c3-4ce3-833a-d3e83e177dc1"
        }
      }, {
        "item": {
          "reference": "urn:uuid:c83c751e-0456-4d6f-98af-695d8daeba63"
        }
      }, {
        "item": {
          "reference": "urn:uuid:6596aa78-5493-4c19-994e-9322fc9b1a0c"
        }
      }, {
        "item": {
          "reference": "urn:uuid:259033ca-1690-4e7d-9afe-1e1a7c2b7ae1"
        }
      }, {
        "item": {
          "reference": "urn:uuid:00f5fdb0-38a0-4c54-98f6-35804c2778ec"
        }
      }, {
        "item": {
          "reference": "urn:uuid:0ce6e887-5320-46b5-85ea-33ecc8e08beb"
        }
      }, {
        "item": {
          "reference": "urn:uuid:fd1cb861-0dcb-4b8b-abf2-c6a4243f2ca0"
        }
      }, {
        "item": {
          "reference": "urn:uuid:7db51c18-9786-4927-8057-d65061b575a6"
        }
      }, {
        "item": {
          "reference": "urn:uuid:fd10d6d2-428f-4a01-9961-4cab0672a40c"
        }
      } ]
    }
  } ]
}