{
  "resourceType": "Bundle",
  "meta": {
    "lastUpdated": "2022-05-12T06:46:17.572+00:00"
  },
  "identifier": {
    "type": {
      "text": "ClinicalDocument VersionNumber"
    },
    "value": "1"
  },
  "type": "message",
  "entry": [ {
    "fullUrl": "urn:uuid:4A4DE551-F585-49BB-A1D3-12DCC764AF52",
    "resource": {
      "resourceType": "MessageHeader",
      "id": "4A4DE551-F585-49BB-A1D3-12DCC764AF52",
      "event": {
        "system": "https://fhir.nhs.uk/STU3/CodeSystem/EventType-1",
        "code": "referral-1",
        "display": "Referral"
      },
      "destination": [ {
        "endpoint": "urn:nhs-uk:addressing:ods:NVE06:DOSServiceID:1335970392"
      } ],
      "timestamp": "2021-05-11T08:58:52.000+00:00",
      "source": {
        "name": "NHS 111 Adaptor",
        "endpoint": "http://localhost:8080/report"
      },
      "reason": {
        "coding": [ {
          "system": "urn:nhs-itk:ns:201005:interaction",
          "code": "urn:nhs-itk:interaction:primaryOutofHourRecipientNHS111CDADocument-v2-0"
        } ]
      }
    }
  }, {
    "fullUrl": "urn:uuid:8c8241e7-a70f-45bc-8b3e-6c0a75c00fec",
    "resource": {
      "resourceType": "Encounter",
      "id": "8c8241e7-a70f-45bc-8b3e-6c0a75c00fec",
      "identifier": [ {
        "system": "2.16.840.1.113883.2.1.3.2.4.18.34",
        "value": "D21E3785-658E-4B35-A8B2-2E59906B8983"
      }, {
        "system": "2.16.840.1.113883.2.1.3.2.4.18.35",
        "value": "2100310384"
      } ],
      "status": "finished",
      "type": [ {
        "text": "111 Encounter Referral"
      } ],
      "subject": {
        "reference": "urn:uuid:9bfed4af-57cf-463d-9810-cdac722390a7"
      },
      "participant": [ {
        "type": [ {
          "coding": [ {
            "system": "http://hl7.org/fhir/ValueSet/encounter-participant-type",
            "code": "PPRF",
            "display": "Author"
          } ]
        } ],
        "individual": {
          "reference": "urn:uuid:214d3cf7-5df0-44e5-9450-9148bd770992"
        }
      }, {
        "type": [ {
          "text": "Informant"
        } ],
        "individual": {
          "reference": "urn:uuid:89177c2c-f9b1-49e8-a754-6023decce52a"
        }
      } ],
      "period": {
        "start": "2021-05-11T08:54:54+00:00",
        "end": "2021-05-11T08:58:52+00:00"
      },
      "location": [ {
        "location": {
          "reference": "urn:uuid:1ff02225-5524-4ca3-acee-f4f21e8260ee"
        },
        "status": "active"
      }, {
        "location": {
          "reference": "urn:uuid:bd6ffd87-300e-4392-b823-b0e28e04b703"
        },
        "status": "completed"
      } ],
      "serviceProvider": {
        "reference": "urn:uuid:bd79e2fc-356c-4aec-a31f-d544c083b054"
      }
    }
  }, {
    "fullUrl": "urn:uuid:bd79e2fc-356c-4aec-a31f-d544c083b054",
    "resource": {
      "resourceType": "Organization",
      "id": "bd79e2fc-356c-4aec-a31f-d544c083b054",
      "active": true,
      "type": [ {
        "text": "CST"
      } ],
      "name": "Norfolk and Wisbech 111"
    }
  }, {
    "fullUrl": "urn:uuid:214d3cf7-5df0-44e5-9450-9148bd770992",
    "resource": {
      "resourceType": "Practitioner",
      "id": "214d3cf7-5df0-44e5-9450-9148bd770992",
      "active": true,
      "name": [ {
        "text": "Ben Smythson"
      } ]
    }
  }, {
    "fullUrl": "urn:uuid:89177c2c-f9b1-49e8-a754-6023decce52a",
    "resource": {
      "resourceType": "RelatedPerson",
      "id": "89177c2c-f9b1-49e8-a754-6023decce52a",
      "active": true,
      "patient": {
        "reference": "urn:uuid:9bfed4af-57cf-463d-9810-cdac722390a7"
      },
      "relationship": {
        "coding": [ {
          "system": "2.16.840.1.113883.2.1.3.2.4.16.45",
          "code": "21",
          "display": "Self"
        }, {
          "system": "http://hl7.org/fhir/v2/0131",
          "code": "C",
          "display": "Emergency Contact"
        } ]
      },
      "name": [ {
        "text": "Test Call TEST CALL DX07"
      } ],
      "telecom": [ {
        "system": "phone",
        "value": "tel:01233123123"
      } ],
      "gender": "unknown"
    }
  }, {
    "fullUrl": "urn:uuid:1ff02225-5524-4ca3-acee-f4f21e8260ee",
    "resource": {
      "resourceType": "Location",
      "id": "1ff02225-5524-4ca3-acee-f4f21e8260ee",
      "managingOrganization": {
        "reference": "urn:uuid:90937b0f-46b9-476a-89f3-b020aefea861"
      }
    }
  }, {
    "fullUrl": "urn:uuid:90937b0f-46b9-476a-89f3-b020aefea861",
    "resource": {
      "resourceType": "Organization",
      "id": "90937b0f-46b9-476a-89f3-b020aefea861",
      "identifier": [ {
        "value": "Z10000"
      } ],
      "type": [ {
        "text": "GP Practice"
      } ],
      "name": "UNKNOWN"
    }
  }, {
    "fullUrl": "urn:uuid:bd6ffd87-300e-4392-b823-b0e28e04b703",
    "resource": {
      "resourceType": "Location",
      "id": "bd6ffd87-300e-4392-b823-b0e28e04b703",
      "address": {
        "type": "physical",
        "line": [ "313 VICTORIA ROAD", "LOWESTOFT" ],
        "postalCode": "NR33 9LS"
      }
    }
  }, {
    "fullUrl": "urn:uuid:9bfed4af-57cf-463d-9810-cdac722390a7",
    "resource": {
      "resourceType": "Patient",
      "id": "9bfed4af-57cf-463d-9810-cdac722390a7",
      "language": "en",
      "active": true,
      "name": [ {
        "use": "official",
        "family": "TEST CALL DX07",
        "given": [ "Test Call" ]
      } ],
      "telecom": [ {
        "system": "phone",
        "value": "tel:01233123123"
      } ],
      "gender": "male",
      "birthDate": "1996-03-25",
      "address": [ {
        "use": "home",
        "line": [ "313 VICTORIA ROAD", "LOWESTOFT" ],
        "postalCode": "NR33 9LS"
      }, {
        "type": "physical",
        "line": [ "313 VICTORIA ROAD", "LOWESTOFT" ],
        "postalCode": "NR33 9LS"
      } ],
      "generalPractitioner": [ {
        "reference": "urn:uuid:078d1ecc-251c-4577-be6b-d874f3ec2720"
      } ]
    }
  }, {
    "fullUrl": "urn:uuid:078d1ecc-251c-4577-be6b-d874f3ec2720",
    "resource": {
      "resourceType": "Organization",
      "id": "078d1ecc-251c-4577-be6b-d874f3ec2720",
      "identifier": [ {
        "value": "Z10000"
      } ],
      "type": [ {
        "text": "GP Practice"
      } ],
      "name": "UNKNOWN"
    }
  }, {
    "fullUrl": "urn:uuid:4f6317e8-9531-4745-bac7-5121bba2fd3e",
    "resource": {
      "resourceType": "HealthcareService",
      "id": "4f6317e8-9531-4745-bac7-5121bba2fd3e",
      "active": true,
      "providedBy": {
        "reference": "urn:uuid:5a6a956b-d0ed-4272-93f9-961e0c2b7b6b"
      },
      "location": [ {
        "reference": "urn:uuid:6a3cc92f-b801-405f-99b4-bb773335850d"
      } ],
      "name": "Out of Hours GP Service (Waveney) - Kirkley Mill Health Centre, Lowestoft"
    }
  }, {
    "fullUrl": "urn:uuid:6a3cc92f-b801-405f-99b4-bb773335850d",
    "resource": {
      "resourceType": "Location",
      "id": "6a3cc92f-b801-405f-99b4-bb773335850d",
      "managingOrganization": {
        "reference": "urn:uuid:5a6a956b-d0ed-4272-93f9-961e0c2b7b6b"
      }
    }
  }, {
    "fullUrl": "urn:uuid:5a6a956b-d0ed-4272-93f9-961e0c2b7b6b",
    "resource": {
      "resourceType": "Organization",
      "id": "5a6a956b-d0ed-4272-93f9-961e0c2b7b6b",
      "identifier": [ {
        "value": "NVE06"
      } ],
      "type": [ {
        "coding": [ {
          "code": "PRCP",
          "display": "Out of Hours GP Service (Waveney) - Kirkley Mill Health Centre, Lowestoft"
        } ]
      } ],
      "name": "Out of Hours GP Service (Waveney) - Kirkley Mill Health Centre, Lowestoft"
    }
  }, {
    "fullUrl": "urn:uuid:61274c06-f19b-467b-a3ac-18b625886902",
    "resource": {
      "resourceType": "ReferralRequest",
      "id": "61274c06-f19b-467b-a3ac-18b625886902",
      "status": "active",
      "intent": "plan",
      "priority": "routine",
      "subject": {
        "reference": "urn:uuid:9bfed4af-57cf-463d-9810-cdac722390a7"
      },
      "context": {
        "reference": "urn:uuid:8c8241e7-a70f-45bc-8b3e-6c0a75c00fec"
      },
      "occurrencePeriod": {
        "start": "2021-05-11T08:58:52+00:00"
      },
      "authoredOn": "2021-05-11T08:58:52+00:00",
      "requester": {
        "agent": {
          "reference": "urn:uuid:95c7ef47-a3ee-4fcc-9ab7-f6304faff3f2"
        },
        "onBehalfOf": {
          "reference": "urn:uuid:bd79e2fc-356c-4aec-a31f-d544c083b054"
        }
      },
      "recipient": [ {
        "reference": "urn:uuid:cb3a7bbd-dd05-4805-a623-46b62be49e8d"
      }, {
        "reference": "urn:uuid:4f6317e8-9531-4745-bac7-5121bba2fd3e"
      } ],
      "reasonReference": [ {
        "reference": "urn:uuid:fcb5a2f2-ca8b-4d21-817d-be88e0577bdd"
      } ],
      "supportingInfo": [ {
        "reference": "urn:uuid:f6de6297-d635-4b0f-84cc-f50018e6be41"
      } ]
    }
  }, {
    "fullUrl": "urn:uuid:f6de6297-d635-4b0f-84cc-f50018e6be41",
    "resource": {
      "resourceType": "ProcedureRequest",
      "id": "f6de6297-d635-4b0f-84cc-f50018e6be41",
      "status": "active",
      "intent": "plan",
      "priority": "routine",
      "doNotPerform": false,
      "code": {
        "coding": [ {
          "system": "2.16.840.1.113883.2.1.3.2.4.17.325",
          "code": "Dx07",
          "display": "To contact a local service within 12 hours"
        } ]
      },
      "subject": {
        "reference": "urn:uuid:9bfed4af-57cf-463d-9810-cdac722390a7"
      },
      "occurrencePeriod": {
        "start": "2021-05-11T08:58:52+00:00"
      },
      "reasonReference": [ {
        "reference": "urn:uuid:fcb5a2f2-ca8b-4d21-817d-be88e0577bdd"
      } ]
    }
  }, {
    "fullUrl": "urn:uuid:cb3a7bbd-dd05-4805-a623-46b62be49e8d",
    "resource": {
      "resourceType": "Practitioner",
      "id": "cb3a7bbd-dd05-4805-a623-46b62be49e8d",
      "active": true,
      "telecom": [ {
        "system": "phone",
        "value": "tel:01233505450"
      } ],
      "address": [ {
        "type": "physical",
        "line": [ "Kingston House", "The Long Barrow", "Orbital Park", "Ashford", "Kent" ],
        "postalCode": "TN24 0GP"
      } ]
    }
  }, {
    "fullUrl": "urn:uuid:af318d1f-61b5-4559-97b4-5ec45b49a48c",
    "resource": {
      "resourceType": "Composition",
      "id": "af318d1f-61b5-4559-97b4-5ec45b49a48c",
      "identifier": {
        "use": "usual",
        "value": "B172BCF7-DD1C-4508-B781-6BE68ABD1F79"
      },
      "status": "final",
      "type": {
        "coding": [ {
          "system": "http://snomed.info/sct",
          "code": "371531000",
          "display": "Report of clinical encounter (record artifact)"
        } ]
      },
      "subject": {
        "reference": "urn:uuid:9bfed4af-57cf-463d-9810-cdac722390a7"
      },
      "encounter": {
        "reference": "urn:uuid:8c8241e7-a70f-45bc-8b3e-6c0a75c00fec"
      },
      "date": "2021-05-11T08:58:52+00:00",
      "author": [ {
        "reference": "urn:uuid:214d3cf7-5df0-44e5-9450-9148bd770992"
      } ],
      "title": "111 Report",
      "confidentiality": "R",
      "section": [ {
        "section": [ {
          "title": "Patient's Reported Condition",
          "text": {
            "status": "generated",
            "div": "<div xmlns=\"http://www.w3.org/1999/xhtml\">&lt;content&gt;&amp;lt;CLEO Ref: 2100310384&amp;gt; Test Call for Dx07.\n                                                        &lt;br/&gt;\n                                                    &lt;/content&gt;</div>"
          }
        }, {
          "title": "Pathways Disposition",
          "text": {
            "status": "generated",
            "div": "<div xmlns=\"http://www.w3.org/1999/xhtml\">&lt;content&gt;The individual needs to contact a local service within 12 hours. (Dx07)&lt;/content&gt;\n                                                    &lt;br/&gt;\n                                                    &lt;br/&gt;\n                                                    &lt;content&gt;Selected Service: 1335970392, Out of Hours GP Service (Waveney) - Kirkley Mill Health Centre, Lowestoft, 111&lt;/content&gt;\n                                                    &lt;br/&gt;</div>"
          }
        }, {
          "title": "Consultation Summary",
          "text": {
            "status": "generated",
            "div": "<div xmlns=\"http://www.w3.org/1999/xhtml\">&lt;content&gt;\n                                                        &lt;content&gt;Excessive thirst in last 4 weeks&lt;/content&gt;\n                                                        &lt;br/&gt;\n                                                        &lt;content&gt;Warm to touch&lt;/content&gt;\n                                                        &lt;br/&gt;\n                                                        &lt;content&gt;Illness - Test&lt;/content&gt;\n                                                        &lt;br/&gt;\n                                                    &lt;/content&gt;</div>"
          }
        }, {
          "title": "Pathways Assessment",
          "text": {
            "status": "generated",
            "div": "<div xmlns=\"http://www.w3.org/1999/xhtml\">&lt;content&gt;An injury or health problem was the reason for the contact.&lt;/content&gt;\n                                                    &lt;br/&gt;\n                                                    &lt;content&gt;Heavy bleeding had not occurred in the previous 2 hours.&lt;/content&gt;\n                                                    &lt;br/&gt;\n                                                    &lt;content&gt;An illness or health problem was the main problem. - Test&lt;/content&gt;\n                                                    &lt;br/&gt;\n                                                    &lt;content&gt;The individual was not fighting for breath.&lt;/content&gt;\n                                                    &lt;br/&gt;\n                                                    &lt;content&gt;The main reason for the assessment was not an allergic reaction, heart attack, chest/upper back pain, probable stroke, recent fit/seizure or suicide attempt.&lt;/content&gt;\n                                                    &lt;br/&gt;\n                                                    &lt;content&gt;The main reason for contact was not new confusion, declared diabetic hypo/hyperglycaemia, or ICD shock.&lt;/content&gt;\n                                                    &lt;br/&gt;\n                                                    &lt;content&gt;The skin on the torso felt normal, warm or hot.&lt;/content&gt;\n                                                    &lt;br/&gt;\n                                                    &lt;content&gt;There was no vomiting, diarrhoea, rectal bleeding, groin pain or groin swelling.&lt;/content&gt;\n                                                    &lt;br/&gt;\n                                                    &lt;content&gt;There was no new genital pain or swelling.&lt;/content&gt;\n                                                    &lt;br/&gt;\n                                                    &lt;content&gt;The individual was able to carry out most or all normal activities.&lt;/content&gt;\n                                                    &lt;br/&gt;\n                                                    &lt;content&gt;There was no crushing or severe aching chest, upper back or upper abdominal pain, or pain going to the arm, neck, jaw or shoulder.&lt;/content&gt;\n                                                    &lt;br/&gt;\n                                                    &lt;content&gt;The individual had not ingested a harmful or toxic substance.&lt;/content&gt;\n                                                    &lt;br/&gt;\n                                                    &lt;content&gt;There had been no black and tarry or red/maroon bowel motions.&lt;/content&gt;\n                                                    &lt;br/&gt;\n                                                    &lt;content&gt;There was no new or worsening confusion.&lt;/content&gt;\n                                                    &lt;br/&gt;\n                                                    &lt;content&gt;Breathing harder or faster when doing nothing was not described.&lt;/content&gt;\n                                                    &lt;br/&gt;\n                                                    &lt;content&gt;There was no new shoulder tip pain or pain in the lower right abdomen.&lt;/content&gt;\n                                                    &lt;br/&gt;\n                                                    &lt;content&gt;The individual did not use anticoagulant medication or have a bleeding/clotting disorder.&lt;/content&gt;\n                                                    &lt;br/&gt;\n                                                    &lt;content&gt;The individual had not been in constant pain for 4 hours or more.&lt;/content&gt;\n                                                    &lt;br/&gt;\n                                                    &lt;content&gt;The individual was not jaundiced.&lt;/content&gt;\n                                                    &lt;br/&gt;\n                                                    &lt;content&gt;The individual had experienced extreme thirst during the previous 4 weeks.&lt;/content&gt;\n                                                    &lt;br/&gt;</div>"
          }
        }, {
          "title": "Advice Given",
          "text": {
            "status": "generated",
            "div": "<div xmlns=\"http://www.w3.org/1999/xhtml\">&lt;content&gt;Unless advised not to, paracetamol may be used to relieve pain or fever. Follow the instructions in the pack. If in doubt ask a pharmacist.&lt;/content&gt;\n                                                    &lt;br/&gt;\n                                                    &lt;content&gt;Don't use ibuprofen or any other anti-inflammatory medication until you have spoken to a healthcare professional.&lt;/content&gt;\n                                                    &lt;br/&gt;\n                                                    &lt;content&gt;If there are any new symptoms, or if the condition gets worse, changes or you have any other concerns, call us back.&lt;/content&gt;\n                                                    &lt;br/&gt;\n                                                    &lt;content&gt;Remember to take a list of any current medications if you go to the out of hours surgery.&lt;/content&gt;\n                                                    &lt;br/&gt;</div>"
          }
        }, {
          "title": "SCR Consent",
          "text": {
            "status": "generated",
            "div": "<div xmlns=\"http://www.w3.org/1999/xhtml\">&lt;content&gt;Consent given for SCR sharing\n                                                        &lt;br/&gt;\n                                                        &lt;br/&gt;\n                                                    &lt;/content&gt;</div>"
          }
        } ]
      }, {
        "title": "ReferralRequest",
        "entry": [ {
          "reference": "urn:uuid:61274c06-f19b-467b-a3ac-18b625886902"
        } ]
      } ]
    }
  }, {
    "fullUrl": "urn:uuid:a85cecbd-d91b-45a8-9343-6900834d9ead",
    "resource": {
      "resourceType": "Consent",
      "id": "a85cecbd-d91b-45a8-9343-6900834d9ead",
      "identifier": {
        "use": "usual",
        "value": "B172BCF7-DD1C-4508-B781-6BE68ABD1F79"
      },
      "status": "active",
      "patient": {
        "reference": "urn:uuid:9bfed4af-57cf-463d-9810-cdac722390a7"
      },
      "period": {
        "start": "2021-05-11T08:54:54+00:00",
        "end": "2021-05-11T08:58:52+00:00"
      },
      "consentingParty": [ {
        "reference": "urn:uuid:9bfed4af-57cf-463d-9810-cdac722390a7"
      } ],
      "action": [ {
        "coding": [ {
          "system": "http://snomed.info/sct",
          "code": "425691002",
          "display": "Consent given for electronic record sharing"
        } ],
        "text": "Consent given for electronic record sharing"
      } ],
      "organization": [ {
        "reference": "urn:uuid:bd79e2fc-356c-4aec-a31f-d544c083b054"
      } ],
      "policyRule": "http://hl7.org/fhir/ConsentPolicy/opt-out",
      "data": [ {
        "meaning": "related",
        "reference": {
          "reference": "urn:uuid:8c8241e7-a70f-45bc-8b3e-6c0a75c00fec"
        }
      } ]
    }
  }, {
    "fullUrl": "urn:uuid:fcb5a2f2-ca8b-4d21-817d-be88e0577bdd",
    "resource": {
      "resourceType": "Condition",
      "id": "fcb5a2f2-ca8b-4d21-817d-be88e0577bdd",
      "clinicalStatus": "active",
      "verificationStatus": "unknown",
      "subject": {
        "reference": "urn:uuid:9bfed4af-57cf-463d-9810-cdac722390a7"
      },
      "context": {
        "reference": "urn:uuid:8c8241e7-a70f-45bc-8b3e-6c0a75c00fec"
      }
    }
  }, {
    "fullUrl": "urn:uuid:49399d7e-ab4a-4fc8-ba68-249fe07d0783",
    "resource": {
      "resourceType": "Observation",
      "id": "49399d7e-ab4a-4fc8-ba68-249fe07d0783",
      "status": "final",
      "code": {
        "coding": [ {
          "system": "http://snomed.info/sct",
          "code": "33962009",
          "display": "Presenting complaint"
        } ]
      },
      "subject": {
        "reference": "urn:uuid:9bfed4af-57cf-463d-9810-cdac722390a7"
      },
      "context": {
        "reference": "urn:uuid:8c8241e7-a70f-45bc-8b3e-6c0a75c00fec"
      },
      "valueString": "<CLEO Ref: 2100310384> Test Call for Dx07.\n                                                        "
    }
  }, {
    "fullUrl": "urn:uuid:52afb955-6c3e-4486-852e-c771737cd332",
    "resource": {
      "resourceType": "PractitionerRole",
      "id": "52afb955-6c3e-4486-852e-c771737cd332",
      "practitioner": {
        "reference": "urn:uuid:214d3cf7-5df0-44e5-9450-9148bd770992"
      },
      "organization": {
        "reference": "urn:uuid:b6980c74-8565-4f22-9dbd-60127b884e83"
      },
      "code": [ {
        "coding": [ {
          "system": "2.16.840.1.113883.2.1.3.2.4.17.196",
          "code": "NR1690",
          "display": "Call Operator"
        } ]
      } ]
    }
  }, {
    "fullUrl": "urn:uuid:b6980c74-8565-4f22-9dbd-60127b884e83",
    "resource": {
      "resourceType": "Organization",
      "id": "b6980c74-8565-4f22-9dbd-60127b884e83",
      "identifier": [ {
        "value": "NTN08"
      } ],
      "name": "Norfolk and Wisbech 111"
    }
  }, {
    "fullUrl": "urn:uuid:7d7ec375-9423-4619-91a6-39dc7e2e2a4e",
    "resource": {
      "resourceType": "RelatedPerson",
      "id": "7d7ec375-9423-4619-91a6-39dc7e2e2a4e",
      "patient": {
        "reference": "urn:uuid:9bfed4af-57cf-463d-9810-cdac722390a7"
      },
      "relationship": {
        "coding": [ {
          "system": "http://hl7.org/fhir/v2/0131",
          "code": "C",
          "display": "Emergency Contact"
        } ]
      },
      "telecom": [ {
        "system": "phone",
        "value": "tel:01233123123"
      } ]
    }
  }, {
    "fullUrl": "urn:uuid:95c7ef47-a3ee-4fcc-9ab7-f6304faff3f2",
    "resource": {
      "resourceType": "Device",
      "id": "95c7ef47-a3ee-4fcc-9ab7-f6304faff3f2",
      "model": "111 Adaptor",
      "version": "1.0.1"
    }
  }, {
    "fullUrl": "urn:uuid:3a5452dd-77c1-4cda-8281-e1f5f7288ba3",
    "resource": {
      "resourceType": "List",
      "id": "3a5452dd-77c1-4cda-8281-e1f5f7288ba3",
      "status": "current",
      "mode": "working",
      "title": "111 Report List",
      "code": {
        "coding": [ {
          "system": "http://snomed.info/sct",
          "code": "225390008",
          "display": "Triage"
        } ]
      },
      "subject": {
        "reference": "urn:uuid:9bfed4af-57cf-463d-9810-cdac722390a7"
      },
      "encounter": {
        "reference": "urn:uuid:8c8241e7-a70f-45bc-8b3e-6c0a75c00fec"
      },
      "date": "2021-05-11T08:58:52+00:00",
      "source": {
        "reference": "urn:uuid:95c7ef47-a3ee-4fcc-9ab7-f6304faff3f2"
      },
      "orderedBy": {
        "coding": [ {
          "system": "http://hl7.org/fhir/list-order",
          "code": "event-date",
          "display": "Sorted by Event Date"
        } ]
      },
      "entry": [ {
        "item": {
          "reference": "urn:uuid:bd79e2fc-356c-4aec-a31f-d544c083b054"
        }
      }, {
        "item": {
          "reference": "urn:uuid:cb3a7bbd-dd05-4805-a623-46b62be49e8d"
        }
      }, {
        "item": {
          "reference": "urn:uuid:5a6a956b-d0ed-4272-93f9-961e0c2b7b6b"
        }
      }, {
        "item": {
          "reference": "urn:uuid:49399d7e-ab4a-4fc8-ba68-249fe07d0783"
        }
      }, {
        "item": {
          "reference": "urn:uuid:078d1ecc-251c-4577-be6b-d874f3ec2720"
        }
      }, {
        "item": {
          "reference": "urn:uuid:fcb5a2f2-ca8b-4d21-817d-be88e0577bdd"
        }
      }, {
        "item": {
          "reference": "urn:uuid:214d3cf7-5df0-44e5-9450-9148bd770992"
        }
      }, {
        "item": {
          "reference": "urn:uuid:90937b0f-46b9-476a-89f3-b020aefea861"
        }
      }, {
        "item": {
          "reference": "urn:uuid:b6980c74-8565-4f22-9dbd-60127b884e83"
        }
      }, {
        "item": {
          "reference": "urn:uuid:89177c2c-f9b1-49e8-a754-6023decce52a"
        }
      }, {
        "item": {
          "reference": "urn:uuid:7d7ec375-9423-4619-91a6-39dc7e2e2a4e"
        }
      }, {
        "item": {
          "reference": "urn:uuid:61274c06-f19b-467b-a3ac-18b625886902"
        }
      } ]
    }
  } ]
}