{
  "resourceType": "Bundle",
  "identifier": {
    "type": {
      "text": "ClinicalDocument VersionNumber"
    },
    "value": "1"
  },
  "type": "message",
  "entry": [ {
    "fullUrl": "urn:uuid:4A4DE551-F585-49BB-A1D3-12DCC764AF52",
    "resource": {
      "resourceType": "MessageHeader",
      "id": "4A4DE551-F585-49BB-A1D3-12DCC764AF52",
      "event": {
        "system": "https://fhir.nhs.uk/STU3/CodeSystem/EventType-1",
        "code": "referral-1",
        "display": "Referral"
      },
      "destination": [ {
        "endpoint": "urn:nhs-uk:addressing:ods:NVE06:DOSServiceID:1335970392"
      } ],
      "timestamp": "2021-05-11T08:58:52.000+00:00",
      "source": {
        "name": "NHS 111 Adaptor",
        "endpoint": "http://localhost:8080/report"
      },
      "reason": {
        "coding": [ {
          "system": "urn:nhs-itk:ns:201005:interaction",
          "code": "urn:nhs-itk:interaction:primaryOutofHourRecipientNHS111CDADocument-v2-0"
        } ]
      }
    },
    "response": {
      "status": "success",
      "lastModified": "2022-05-09T13:25:20.236+00:00"
    }
  }, {
    "fullUrl": "urn:uuid:4e160554-e377-40fc-b039-a542c0e81cd4",
    "resource": {
      "resourceType": "Encounter",
      "id": "4e160554-e377-40fc-b039-a542c0e81cd4",
      "identifier": [ {
        "system": "2.16.840.1.113883.2.1.3.2.4.18.34",
        "value": "D21E3785-658E-4B35-A8B2-2E59906B8983"
      }, {
        "system": "2.16.840.1.113883.2.1.3.2.4.18.35",
        "value": "2100310384"
      } ],
      "status": "finished",
      "type": [ {
        "text": "111 Encounter Referral"
      } ],
      "subject": {
        "reference": "urn:uuid:15ce5ac1-92e6-439a-921c-2182027837df"
      },
      "participant": [ {
        "type": [ {
          "coding": [ {
            "system": "http://hl7.org/fhir/ValueSet/encounter-participant-type",
            "code": "PPRF",
            "display": "Author"
          } ]
        } ],
        "individual": {
          "reference": "urn:uuid:0a9c3fa5-dd7f-4bb9-95c3-878caf938600"
        }
      }, {
        "type": [ {
          "text": "Informant"
        } ],
        "individual": {
          "reference": "urn:uuid:2d052064-0c5e-4117-ab3d-12f34523c62d"
        }
      } ],
      "period": {
        "start": "2021-05-11T08:54:54+00:00",
        "end": "2021-05-11T08:58:52+00:00"
      },
      "location": [ {
        "location": {
          "reference": "urn:uuid:7c423c9d-e44f-444c-8517-300aa36eb775"
        },
        "status": "active"
      }, {
        "location": {
          "reference": "urn:uuid:0cc84ff5-a108-48dc-81b8-8422202fafa0"
        },
        "status": "completed"
      } ],
      "serviceProvider": {
        "reference": "urn:uuid:6c4d30f4-6fcd-4e0a-868b-47b28eb7cf4a"
      }
    }
  }, {
    "fullUrl": "urn:uuid:6c4d30f4-6fcd-4e0a-868b-47b28eb7cf4a",
    "resource": {
      "resourceType": "Organization",
      "id": "6c4d30f4-6fcd-4e0a-868b-47b28eb7cf4a",
      "active": true,
      "type": [ {
        "text": "CST"
      } ],
      "name": "Norfolk and Wisbech 111"
    }
  }, {
    "fullUrl": "urn:uuid:0a9c3fa5-dd7f-4bb9-95c3-878caf938600",
    "resource": {
      "resourceType": "Practitioner",
      "id": "0a9c3fa5-dd7f-4bb9-95c3-878caf938600",
      "active": true,
      "name": [ {
        "text": "Ben Smythson"
      } ]
    }
  }, {
    "fullUrl": "urn:uuid:2d052064-0c5e-4117-ab3d-12f34523c62d",
    "resource": {
      "resourceType": "RelatedPerson",
      "id": "2d052064-0c5e-4117-ab3d-12f34523c62d",
      "active": true,
      "patient": {
        "reference": "urn:uuid:15ce5ac1-92e6-439a-921c-2182027837df"
      },
      "relationship": {
        "coding": [ {
          "system": "2.16.840.1.113883.2.1.3.2.4.16.45",
          "code": "21",
          "display": "Self"
        }, {
          "system": "http://hl7.org/fhir/v2/0131",
          "code": "C",
          "display": "Emergency Contact"
        } ]
      },
      "name": [ {
        "text": "Test Call TEST CALL DX07"
      } ],
      "telecom": [ {
        "system": "phone",
        "value": "tel:01233123123"
      } ],
      "gender": "unknown"
    }
  }, {
    "fullUrl": "urn:uuid:7c423c9d-e44f-444c-8517-300aa36eb775",
    "resource": {
      "resourceType": "Location",
      "id": "7c423c9d-e44f-444c-8517-300aa36eb775",
      "managingOrganization": {
        "reference": "urn:uuid:e8bfb085-75f3-42aa-9d3b-634244b9e832"
      }
    }
  }, {
    "fullUrl": "urn:uuid:e8bfb085-75f3-42aa-9d3b-634244b9e832",
    "resource": {
      "resourceType": "Organization",
      "id": "e8bfb085-75f3-42aa-9d3b-634244b9e832",
      "identifier": [ {
        "value": "Z10000"
      } ],
      "type": [ {
        "text": "GP Practice"
      } ],
      "name": "UNKNOWN"
    }
  }, {
    "fullUrl": "urn:uuid:0cc84ff5-a108-48dc-81b8-8422202fafa0",
    "resource": {
      "resourceType": "Location",
      "id": "0cc84ff5-a108-48dc-81b8-8422202fafa0",
      "address": {
        "type": "physical",
        "line": [ "313 VICTORIA ROAD", "LOWESTOFT" ],
        "postalCode": "NR33 9LS"
      }
    }
  }, {
    "fullUrl": "urn:uuid:15ce5ac1-92e6-439a-921c-2182027837df",
    "resource": {
      "resourceType": "Patient",
      "id": "15ce5ac1-92e6-439a-921c-2182027837df",
      "language": "en",
      "active": true,
      "name": [ {
        "use": "official",
        "family": "TEST CALL DX07",
        "given": [ "Test Call" ]
      } ],
      "telecom": [ {
        "system": "phone",
        "value": "tel:01233123123"
      } ],
      "gender": "male",
      "birthDate": "1996-03-25",
      "address": [ {
        "use": "home",
        "line": [ "313 VICTORIA ROAD", "LOWESTOFT" ],
        "postalCode": "NR33 9LS"
      }, {
        "type": "physical",
        "line": [ "313 VICTORIA ROAD", "LOWESTOFT" ],
        "postalCode": "NR33 9LS"
      } ],
      "generalPractitioner": [ {
        "reference": "urn:uuid:7fef5228-49b0-4434-92a5-f5f77f3af08c"
      } ]
    }
  }, {
    "fullUrl": "urn:uuid:7fef5228-49b0-4434-92a5-f5f77f3af08c",
    "resource": {
      "resourceType": "Organization",
      "id": "7fef5228-49b0-4434-92a5-f5f77f3af08c",
      "identifier": [ {
        "value": "Z10000"
      } ],
      "type": [ {
        "text": "GP Practice"
      } ],
      "name": "UNKNOWN"
    }
  }, {
    "fullUrl": "urn:uuid:82833823-5159-4466-b0fc-c581f96f15d1",
    "resource": {
      "resourceType": "HealthcareService",
      "id": "82833823-5159-4466-b0fc-c581f96f15d1",
      "active": true,
      "providedBy": {
        "reference": "urn:uuid:92379087-f499-4284-8705-622b391f1764"
      },
      "location": [ {
        "reference": "urn:uuid:c01fb580-e415-4e61-b123-c15aabdc14ac"
      } ],
      "name": "Out of Hours GP Service (Waveney) - Kirkley Mill Health Centre, Lowestoft"
    }
  }, {
    "fullUrl": "urn:uuid:c01fb580-e415-4e61-b123-c15aabdc14ac",
    "resource": {
      "resourceType": "Location",
      "id": "c01fb580-e415-4e61-b123-c15aabdc14ac",
      "managingOrganization": {
        "reference": "urn:uuid:92379087-f499-4284-8705-622b391f1764"
      }
    }
  }, {
    "fullUrl": "urn:uuid:92379087-f499-4284-8705-622b391f1764",
    "resource": {
      "resourceType": "Organization",
      "id": "92379087-f499-4284-8705-622b391f1764",
      "identifier": [ {
        "value": "NVE06"
      } ],
      "type": [ {
        "coding": [ {
          "code": "PRCP",
          "display": "Out of Hours GP Service (Waveney) - Kirkley Mill Health Centre, Lowestoft"
        } ]
      } ],
      "name": "Out of Hours GP Service (Waveney) - Kirkley Mill Health Centre, Lowestoft"
    }
  }, {
    "fullUrl": "urn:uuid:821d7972-be90-420e-b6f3-5af4501ec9d4",
    "resource": {
      "resourceType": "ReferralRequest",
      "id": "821d7972-be90-420e-b6f3-5af4501ec9d4",
      "status": "active",
      "intent": "plan",
      "priority": "routine",
      "subject": {
        "reference": "urn:uuid:15ce5ac1-92e6-439a-921c-2182027837df"
      },
      "context": {
        "reference": "urn:uuid:4e160554-e377-40fc-b039-a542c0e81cd4"
      },
      "occurrencePeriod": {
        "start": "2021-05-11T08:58:52+00:00"
      },
      "authoredOn": "2021-05-11T08:58:52+00:00",
      "requester": {
        "agent": {
          "reference": "urn:uuid:d4361b46-c705-4f00-bab3-146a46d2400b"
        },
        "onBehalfOf": {
          "reference": "urn:uuid:6c4d30f4-6fcd-4e0a-868b-47b28eb7cf4a"
        }
      },
      "recipient": [ {
        "reference": "urn:uuid:bc0f3945-6681-493b-8908-2381829872d5"
      }, {
        "reference": "urn:uuid:82833823-5159-4466-b0fc-c581f96f15d1"
      } ],
      "reasonReference": [ {
        "reference": "urn:uuid:66c6a9d3-045b-4dff-9a61-f0fd114f7708"
      } ],
      "supportingInfo": [ {
        "reference": "urn:uuid:269f38b9-5dfe-43f4-a8a5-6d1d55ee625c"
      } ]
    }
  }, {
    "fullUrl": "urn:uuid:269f38b9-5dfe-43f4-a8a5-6d1d55ee625c",
    "resource": {
      "resourceType": "ProcedureRequest",
      "id": "269f38b9-5dfe-43f4-a8a5-6d1d55ee625c",
      "status": "active",
      "intent": "plan",
      "priority": "routine",
      "doNotPerform": false,
      "code": {
        "coding": [ {
          "system": "2.16.840.1.113883.2.1.3.2.4.17.325",
          "code": "Dx07",
          "display": "To contact a local service within 12 hours"
        } ]
      },
      "subject": {
        "reference": "urn:uuid:15ce5ac1-92e6-439a-921c-2182027837df"
      },
      "occurrencePeriod": {
        "start": "2021-05-11T08:58:52+00:00"
      },
      "reasonReference": [ {
        "reference": "urn:uuid:66c6a9d3-045b-4dff-9a61-f0fd114f7708"
      } ]
    }
  }, {
    "fullUrl": "urn:uuid:bc0f3945-6681-493b-8908-2381829872d5",
    "resource": {
      "resourceType": "Practitioner",
      "id": "bc0f3945-6681-493b-8908-2381829872d5",
      "active": true,
      "telecom": [ {
        "system": "phone",
        "value": "tel:01233505450"
      } ],
      "address": [ {
        "type": "physical",
        "line": [ "Kingston House", "The Long Barrow", "Orbital Park", "Ashford", "Kent" ],
        "postalCode": "TN24 0GP"
      } ]
    }
  }, {
    "fullUrl": "urn:uuid:26823266-6800-4af0-8f62-1a369ac4785e",
    "resource": {
      "resourceType": "Composition",
      "id": "26823266-6800-4af0-8f62-1a369ac4785e",
      "identifier": {
        "use": "usual",
        "value": "B172BCF7-DD1C-4508-B781-6BE68ABD1F79"
      },
      "status": "final",
      "type": {
        "coding": [ {
          "system": "http://snomed.info/sct",
          "code": "371531000",
          "display": "Report of clinical encounter (record artifact)"
        } ]
      },
      "subject": {
        "reference": "urn:uuid:15ce5ac1-92e6-439a-921c-2182027837df"
      },
      "encounter": {
        "reference": "urn:uuid:4e160554-e377-40fc-b039-a542c0e81cd4"
      },
      "date": "2021-05-11T08:58:52+00:00",
      "author": [ {
        "reference": "urn:uuid:0a9c3fa5-dd7f-4bb9-95c3-878caf938600"
      } ],
      "title": "111 Report",
      "confidentiality": "R",
      "section": [ {
        "section": [ {
          "title": "Patient's Reported Condition",
          "text": {
            "status": "generated",
            "div": "<div xmlns=\"http://www.w3.org/1999/xhtml\">&lt;content&gt;&amp;lt;CLEO Ref: 2100310384&amp;gt; Test Call for Dx07.\n                                                        &lt;br/&gt;\n                                                    &lt;/content&gt;</div>"
          }
        }, {
          "title": "Pathways Disposition",
          "text": {
            "status": "generated",
            "div": "<div xmlns=\"http://www.w3.org/1999/xhtml\">&lt;content&gt;The individual needs to contact a local service within 12 hours. (Dx07)&lt;/content&gt;\n                                                    &lt;br/&gt;\n                                                    &lt;br/&gt;\n                                                    &lt;content&gt;Selected Service: 1335970392, Out of Hours GP Service (Waveney) - Kirkley Mill Health Centre, Lowestoft, 111&lt;/content&gt;\n                                                    &lt;br/&gt;</div>"
          }
        }, {
          "title": "Consultation Summary",
          "text": {
            "status": "generated",
            "div": "<div xmlns=\"http://www.w3.org/1999/xhtml\">&lt;content&gt;\n                                                        &lt;content&gt;Excessive thirst in last 4 weeks&lt;/content&gt;\n                                                        &lt;br/&gt;\n                                                        &lt;content&gt;Warm to touch&lt;/content&gt;\n                                                        &lt;br/&gt;\n                                                        &lt;content&gt;Illness - Test&lt;/content&gt;\n                                                        &lt;br/&gt;\n                                                    &lt;/content&gt;</div>"
          }
        }, {
          "title": "Pathways Assessment",
          "text": {
            "status": "generated",
            "div": "<div xmlns=\"http://www.w3.org/1999/xhtml\">&lt;content&gt;An injury or health problem was the reason for the contact.&lt;/content&gt;\n                                                    &lt;br/&gt;\n                                                    &lt;content&gt;Heavy bleeding had not occurred in the previous 2 hours.&lt;/content&gt;\n                                                    &lt;br/&gt;\n                                                    &lt;content&gt;An illness or health problem was the main problem. - Test&lt;/content&gt;\n                                                    &lt;br/&gt;\n                                                    &lt;content&gt;The individual was not fighting for breath.&lt;/content&gt;\n                                                    &lt;br/&gt;\n                                                    &lt;content&gt;The main reason for the assessment was not an allergic reaction, heart attack, chest/upper back pain, probable stroke, recent fit/seizure or suicide attempt.&lt;/content&gt;\n                                                    &lt;br/&gt;\n                                                    &lt;content&gt;The main reason for contact was not new confusion, declared diabetic hypo/hyperglycaemia, or ICD shock.&lt;/content&gt;\n                                                    &lt;br/&gt;\n                                                    &lt;content&gt;The skin on the torso felt normal, warm or hot.&lt;/content&gt;\n                                                    &lt;br/&gt;\n                                                    &lt;content&gt;There was no vomiting, diarrhoea, rectal bleeding, groin pain or groin swelling.&lt;/content&gt;\n                                                    &lt;br/&gt;\n                                                    &lt;content&gt;There was no new genital pain or swelling.&lt;/content&gt;\n                                                    &lt;br/&gt;\n                                                    &lt;content&gt;The individual was able to carry out most or all normal activities.&lt;/content&gt;\n                                                    &lt;br/&gt;\n                                                    &lt;content&gt;There was no crushing or severe aching chest, upper back or upper abdominal pain, or pain going to the arm, neck, jaw or shoulder.&lt;/content&gt;\n                                                    &lt;br/&gt;\n                                                    &lt;content&gt;The individual had not ingested a harmful or toxic substance.&lt;/content&gt;\n                                                    &lt;br/&gt;\n                                                    &lt;content&gt;There had been no black and tarry or red/maroon bowel motions.&lt;/content&gt;\n                                                    &lt;br/&gt;\n                                                    &lt;content&gt;There was no new or worsening confusion.&lt;/content&gt;\n                                                    &lt;br/&gt;\n                                                    &lt;content&gt;Breathing harder or faster when doing nothing was not described.&lt;/content&gt;\n                                                    &lt;br/&gt;\n                                                    &lt;content&gt;There was no new shoulder tip pain or pain in the lower right abdomen.&lt;/content&gt;\n                                                    &lt;br/&gt;\n                                                    &lt;content&gt;The individual did not use anticoagulant medication or have a bleeding/clotting disorder.&lt;/content&gt;\n                                                    &lt;br/&gt;\n                                                    &lt;content&gt;The individual had not been in constant pain for 4 hours or more.&lt;/content&gt;\n                                                    &lt;br/&gt;\n                                                    &lt;content&gt;The individual was not jaundiced.&lt;/content&gt;\n                                                    &lt;br/&gt;\n                                                    &lt;content&gt;The individual had experienced extreme thirst during the previous 4 weeks.&lt;/content&gt;\n                                                    &lt;br/&gt;</div>"
          }
        }, {
          "title": "Advice Given",
          "text": {
            "status": "generated",
            "div": "<div xmlns=\"http://www.w3.org/1999/xhtml\">&lt;content&gt;Unless advised not to, paracetamol may be used to relieve pain or fever. Follow the instructions in the pack. If in doubt ask a pharmacist.&lt;/content&gt;\n                                                    &lt;br/&gt;\n                                                    &lt;content&gt;Don't use ibuprofen or any other anti-inflammatory medication until you have spoken to a healthcare professional.&lt;/content&gt;\n                                                    &lt;br/&gt;\n                                                    &lt;content&gt;If there are any new symptoms, or if the condition gets worse, changes or you have any other concerns, call us back.&lt;/content&gt;\n                                                    &lt;br/&gt;\n                                                    &lt;content&gt;Remember to take a list of any current medications if you go to the out of hours surgery.&lt;/content&gt;\n                                                    &lt;br/&gt;</div>"
          }
        }, {
          "title": "SCR Consent",
          "text": {
            "status": "generated",
            "div": "<div xmlns=\"http://www.w3.org/1999/xhtml\">&lt;content&gt;Consent given for SCR sharing\n                                                        &lt;br/&gt;\n                                                        &lt;br/&gt;\n                                                    &lt;/content&gt;</div>"
          }
        } ]
      }, {
        "title": "ReferralRequest",
        "entry": [ {
          "reference": "urn:uuid:821d7972-be90-420e-b6f3-5af4501ec9d4"
        } ]
      } ]
    }
  }, {
    "fullUrl": "urn:uuid:520619c7-f2b6-418c-a096-f464a743173a",
    "resource": {
      "resourceType": "Consent",
      "id": "520619c7-f2b6-418c-a096-f464a743173a",
      "identifier": {
        "use": "usual",
        "value": "B172BCF7-DD1C-4508-B781-6BE68ABD1F79"
      },
      "status": "active",
      "patient": {
        "reference": "urn:uuid:15ce5ac1-92e6-439a-921c-2182027837df"
      },
      "period": {
        "start": "2021-05-11T08:54:54+00:00",
        "end": "2021-05-11T08:58:52+00:00"
      },
      "consentingParty": [ {
        "reference": "urn:uuid:15ce5ac1-92e6-439a-921c-2182027837df"
      } ],
      "action": [ {
        "coding": [ {
          "system": "http://snomed.info/sct",
          "code": "425691002",
          "display": "Consent given for electronic record sharing"
        } ],
        "text": "Consent given for electronic record sharing"
      } ],
      "organization": [ {
        "reference": "urn:uuid:6c4d30f4-6fcd-4e0a-868b-47b28eb7cf4a"
      } ],
      "policyRule": "http://hl7.org/fhir/ConsentPolicy/opt-out",
      "data": [ {
        "meaning": "related",
        "reference": {
          "reference": "urn:uuid:4e160554-e377-40fc-b039-a542c0e81cd4"
        }
      } ]
    }
  }, {
    "fullUrl": "urn:uuid:66c6a9d3-045b-4dff-9a61-f0fd114f7708",
    "resource": {
      "resourceType": "Condition",
      "id": "66c6a9d3-045b-4dff-9a61-f0fd114f7708",
      "clinicalStatus": "active",
      "verificationStatus": "unknown",
      "subject": {
        "reference": "urn:uuid:15ce5ac1-92e6-439a-921c-2182027837df"
      },
      "context": {
        "reference": "urn:uuid:4e160554-e377-40fc-b039-a542c0e81cd4"
      }
    }
  }, {
    "fullUrl": "urn:uuid:1ea62eef-ca5d-4c4c-a228-9d92a9958297",
    "resource": {
      "resourceType": "Observation",
      "id": "1ea62eef-ca5d-4c4c-a228-9d92a9958297",
      "status": "final",
      "code": {
        "coding": [ {
          "system": "http://snomed.info/sct",
          "code": "33962009",
          "display": "Presenting complaint"
        } ]
      },
      "subject": {
        "reference": "urn:uuid:15ce5ac1-92e6-439a-921c-2182027837df"
      },
      "context": {
        "reference": "urn:uuid:4e160554-e377-40fc-b039-a542c0e81cd4"
      },
      "valueString": "<CLEO Ref: 2100310384> Test Call for Dx07.\n                                                        "
    }
  }, {
    "fullUrl": "urn:uuid:1b2bab85-a440-438f-87ee-c90657f4945a",
    "resource": {
      "resourceType": "PractitionerRole",
      "id": "1b2bab85-a440-438f-87ee-c90657f4945a",
      "practitioner": {
        "reference": "urn:uuid:0a9c3fa5-dd7f-4bb9-95c3-878caf938600"
      },
      "organization": {
        "reference": "urn:uuid:96ddfb0d-3061-4637-bad0-cd950f0e02b8"
      },
      "code": [ {
        "coding": [ {
          "system": "2.16.840.1.113883.2.1.3.2.4.17.196",
          "code": "NR1690",
          "display": "Call Operator"
        } ]
      } ]
    }
  }, {
    "fullUrl": "urn:uuid:96ddfb0d-3061-4637-bad0-cd950f0e02b8",
    "resource": {
      "resourceType": "Organization",
      "id": "96ddfb0d-3061-4637-bad0-cd950f0e02b8",
      "identifier": [ {
        "value": "NTN08"
      } ],
      "name": "Norfolk and Wisbech 111"
    }
  }, {
    "fullUrl": "urn:uuid:f2265a96-849e-4ecd-9bb5-55526ab927ba",
    "resource": {
      "resourceType": "RelatedPerson",
      "id": "f2265a96-849e-4ecd-9bb5-55526ab927ba",
      "patient": {
        "reference": "urn:uuid:15ce5ac1-92e6-439a-921c-2182027837df"
      },
      "relationship": {
        "coding": [ {
          "system": "http://hl7.org/fhir/v2/0131",
          "code": "C",
          "display": "Emergency Contact"
        } ]
      },
      "telecom": [ {
        "system": "phone",
        "value": "tel:01233123123"
      } ]
    }
  }, {
    "fullUrl": "urn:uuid:d4361b46-c705-4f00-bab3-146a46d2400b",
    "resource": {
      "resourceType": "Device",
      "id": "d4361b46-c705-4f00-bab3-146a46d2400b",
      "model": "111 Adaptor",
      "version": "1.0.1"
    }
  }, {
    "fullUrl": "urn:uuid:623b43ca-1b72-44c8-a4c7-6a090ad0b7ab",
    "resource": {
      "resourceType": "List",
      "id": "623b43ca-1b72-44c8-a4c7-6a090ad0b7ab",
      "status": "current",
      "mode": "working",
      "title": "111 Report List",
      "code": {
        "coding": [ {
          "system": "http://snomed.info/sct",
          "code": "225390008",
          "display": "Triage"
        } ]
      },
      "subject": {
        "reference": "urn:uuid:15ce5ac1-92e6-439a-921c-2182027837df"
      },
      "encounter": {
        "reference": "urn:uuid:4e160554-e377-40fc-b039-a542c0e81cd4"
      },
      "date": "2021-05-11T08:58:52+00:00",
      "source": {
        "reference": "urn:uuid:d4361b46-c705-4f00-bab3-146a46d2400b"
      },
      "orderedBy": {
        "coding": [ {
          "system": "http://hl7.org/fhir/list-order",
          "code": "event-date",
          "display": "Sorted by Event Date"
        } ]
      },
      "entry": [ {
        "item": {
          "reference": "urn:uuid:92379087-f499-4284-8705-622b391f1764"
        }
      }, {
        "item": {
          "reference": "urn:uuid:f2265a96-849e-4ecd-9bb5-55526ab927ba"
        }
      }, {
        "item": {
          "reference": "urn:uuid:66c6a9d3-045b-4dff-9a61-f0fd114f7708"
        }
      }, {
        "item": {
          "reference": "urn:uuid:2d052064-0c5e-4117-ab3d-12f34523c62d"
        }
      }, {
        "item": {
          "reference": "urn:uuid:0a9c3fa5-dd7f-4bb9-95c3-878caf938600"
        }
      }, {
        "item": {
          "reference": "urn:uuid:bc0f3945-6681-493b-8908-2381829872d5"
        }
      }, {
        "item": {
          "reference": "urn:uuid:1ea62eef-ca5d-4c4c-a228-9d92a9958297"
        }
      }, {
        "item": {
          "reference": "urn:uuid:96ddfb0d-3061-4637-bad0-cd950f0e02b8"
        }
      }, {
        "item": {
          "reference": "urn:uuid:6c4d30f4-6fcd-4e0a-868b-47b28eb7cf4a"
        }
      }, {
        "item": {
          "reference": "urn:uuid:e8bfb085-75f3-42aa-9d3b-634244b9e832"
        }
      }, {
        "item": {
          "reference": "urn:uuid:7fef5228-49b0-4434-92a5-f5f77f3af08c"
        }
      }, {
        "item": {
          "reference": "urn:uuid:821d7972-be90-420e-b6f3-5af4501ec9d4"
        }
      } ]
    }
  } ]
}