{
  "resourceType": "Bundle",
  "meta": {
    "lastUpdated": "2022-05-12T07:25:18.497+00:00"
  },
  "identifier": {
    "type": {
      "text": "ClinicalDocument VersionNumber"
    },
    "value": "1"
  },
  "type": "message",
  "entry": [ {
    "fullUrl": "urn:uuid:D78E4686-5082-4E76-9359-6A84AE0C9C10",
    "resource": {
      "resourceType": "MessageHeader",
      "id": "D78E4686-5082-4E76-9359-6A84AE0C9C10",
      "event": {
        "system": "https://fhir.nhs.uk/STU3/CodeSystem/EventType-1",
        "code": "referral-1",
        "display": "Referral"
      },
      "destination": [ {
        "endpoint": "urn:nhs-uk:addressing:ods:NVE06:DOSServiceID:1335970392"
      } ],
      "timestamp": "2021-05-11T08:53:28.000+00:00",
      "source": {
        "name": "NHS 111 Adaptor",
        "endpoint": "http://localhost:8080/report"
      },
      "reason": {
        "coding": [ {
          "system": "urn:nhs-itk:ns:201005:interaction",
          "code": "urn:nhs-itk:interaction:primaryOutofHourRecipientNHS111CDADocument-v2-0"
        } ]
      }
    }
  }, {
    "fullUrl": "urn:uuid:723e8ec6-552e-4847-ab43-619afcc770b5",
    "resource": {
      "resourceType": "Encounter",
      "id": "723e8ec6-552e-4847-ab43-619afcc770b5",
      "identifier": [ {
        "system": "2.16.840.1.113883.2.1.3.2.4.18.34",
        "value": "0060E06D-C899-440E-B58E-B5522662EC28"
      }, {
        "system": "2.16.840.1.113883.2.1.3.2.4.18.35",
        "value": "2100310382"
      } ],
      "status": "finished",
      "type": [ {
        "text": "111 Encounter Referral"
      } ],
      "subject": {
        "reference": "urn:uuid:617da5f4-aee1-49ba-8eaf-9129f018b1eb"
      },
      "participant": [ {
        "type": [ {
          "coding": [ {
            "system": "http://hl7.org/fhir/ValueSet/encounter-participant-type",
            "code": "PPRF",
            "display": "Author"
          } ]
        } ],
        "individual": {
          "reference": "urn:uuid:394bdf97-b2a9-414c-b9d2-f88389130c3e"
        }
      }, {
        "type": [ {
          "text": "Informant"
        } ],
        "individual": {
          "reference": "urn:uuid:93e7234e-a0fb-4602-944a-8c77f86e3bd8"
        }
      } ],
      "period": {
        "start": "2021-05-11T08:49:11+00:00",
        "end": "2021-05-11T08:53:28+00:00"
      },
      "location": [ {
        "location": {
          "reference": "urn:uuid:e05705d3-ba9d-427a-8b50-22ac8e1d50e2"
        },
        "status": "active"
      }, {
        "location": {
          "reference": "urn:uuid:36c44df3-15a9-4aa8-bf8a-15670cf2d20a"
        },
        "status": "completed"
      } ],
      "serviceProvider": {
        "reference": "urn:uuid:585875e8-2a71-45b0-954d-8d6700b29a16"
      }
    }
  }, {
    "fullUrl": "urn:uuid:585875e8-2a71-45b0-954d-8d6700b29a16",
    "resource": {
      "resourceType": "Organization",
      "id": "585875e8-2a71-45b0-954d-8d6700b29a16",
      "active": true,
      "type": [ {
        "text": "CST"
      } ],
      "name": "Norfolk and Wisbech 111"
    }
  }, {
    "fullUrl": "urn:uuid:394bdf97-b2a9-414c-b9d2-f88389130c3e",
    "resource": {
      "resourceType": "Practitioner",
      "id": "394bdf97-b2a9-414c-b9d2-f88389130c3e",
      "active": true,
      "name": [ {
        "text": "Ben Smythson"
      } ]
    }
  }, {
    "fullUrl": "urn:uuid:93e7234e-a0fb-4602-944a-8c77f86e3bd8",
    "resource": {
      "resourceType": "RelatedPerson",
      "id": "93e7234e-a0fb-4602-944a-8c77f86e3bd8",
      "active": true,
      "patient": {
        "reference": "urn:uuid:617da5f4-aee1-49ba-8eaf-9129f018b1eb"
      },
      "relationship": {
        "coding": [ {
          "system": "2.16.840.1.113883.2.1.3.2.4.16.45",
          "code": "21",
          "display": "Self"
        }, {
          "system": "http://hl7.org/fhir/v2/0131",
          "code": "C",
          "display": "Emergency Contact"
        } ]
      },
      "name": [ {
        "text": "Test Call TEST CALL DX06"
      } ],
      "telecom": [ {
        "system": "phone",
        "value": "tel:01233123123"
      } ],
      "gender": "unknown"
    }
  }, {
    "fullUrl": "urn:uuid:e05705d3-ba9d-427a-8b50-22ac8e1d50e2",
    "resource": {
      "resourceType": "Location",
      "id": "e05705d3-ba9d-427a-8b50-22ac8e1d50e2",
      "managingOrganization": {
        "reference": "urn:uuid:cea3d114-5596-4120-8fbf-10a584f8bb4e"
      }
    }
  }, {
    "fullUrl": "urn:uuid:cea3d114-5596-4120-8fbf-10a584f8bb4e",
    "resource": {
      "resourceType": "Organization",
      "id": "cea3d114-5596-4120-8fbf-10a584f8bb4e",
      "identifier": [ {
        "value": "Z10000"
      } ],
      "type": [ {
        "text": "GP Practice"
      } ],
      "name": "UNKNOWN"
    }
  }, {
    "fullUrl": "urn:uuid:36c44df3-15a9-4aa8-bf8a-15670cf2d20a",
    "resource": {
      "resourceType": "Location",
      "id": "36c44df3-15a9-4aa8-bf8a-15670cf2d20a",
      "address": {
        "type": "physical",
        "line": [ "313 VICTORIA ROAD", "LOWESTOFT" ],
        "postalCode": "NR33 9LS"
      }
    }
  }, {
    "fullUrl": "urn:uuid:617da5f4-aee1-49ba-8eaf-9129f018b1eb",
    "resource": {
      "resourceType": "Patient",
      "id": "617da5f4-aee1-49ba-8eaf-9129f018b1eb",
      "language": "en",
      "active": true,
      "name": [ {
        "use": "official",
        "family": "TEST CALL DX06",
        "given": [ "Test Call" ]
      } ],
      "telecom": [ {
        "system": "phone",
        "value": "tel:01233123123"
      } ],
      "gender": "male",
      "birthDate": "1996-03-25",
      "address": [ {
        "use": "home",
        "line": [ "313 VICTORIA ROAD", "LOWESTOFT" ],
        "postalCode": "NR33 9LS"
      }, {
        "type": "physical",
        "line": [ "313 VICTORIA ROAD", "LOWESTOFT" ],
        "postalCode": "NR33 9LS"
      } ],
      "generalPractitioner": [ {
        "reference": "urn:uuid:588a40a2-bd41-4956-81ac-22c1ce4449c7"
      } ]
    }
  }, {
    "fullUrl": "urn:uuid:588a40a2-bd41-4956-81ac-22c1ce4449c7",
    "resource": {
      "resourceType": "Organization",
      "id": "588a40a2-bd41-4956-81ac-22c1ce4449c7",
      "identifier": [ {
        "value": "Z10000"
      } ],
      "type": [ {
        "text": "GP Practice"
      } ],
      "name": "UNKNOWN"
    }
  }, {
    "fullUrl": "urn:uuid:d8a01d09-9583-48bd-b87f-a824a200ade0",
    "resource": {
      "resourceType": "HealthcareService",
      "id": "d8a01d09-9583-48bd-b87f-a824a200ade0",
      "active": true,
      "providedBy": {
        "reference": "urn:uuid:1bf777f3-9126-415c-b49a-36afe9f86239"
      },
      "location": [ {
        "reference": "urn:uuid:39926c31-a97f-49c4-88db-acaba5e64273"
      } ],
      "name": "Out of Hours GP Service (Waveney) - Kirkley Mill Health Centre, Lowestoft"
    }
  }, {
    "fullUrl": "urn:uuid:39926c31-a97f-49c4-88db-acaba5e64273",
    "resource": {
      "resourceType": "Location",
      "id": "39926c31-a97f-49c4-88db-acaba5e64273",
      "managingOrganization": {
        "reference": "urn:uuid:1bf777f3-9126-415c-b49a-36afe9f86239"
      }
    }
  }, {
    "fullUrl": "urn:uuid:1bf777f3-9126-415c-b49a-36afe9f86239",
    "resource": {
      "resourceType": "Organization",
      "id": "1bf777f3-9126-415c-b49a-36afe9f86239",
      "identifier": [ {
        "value": "NVE06"
      } ],
      "type": [ {
        "coding": [ {
          "code": "PRCP",
          "display": "Out of Hours GP Service (Waveney) - Kirkley Mill Health Centre, Lowestoft"
        } ]
      } ],
      "name": "Out of Hours GP Service (Waveney) - Kirkley Mill Health Centre, Lowestoft"
    }
  }, {
    "fullUrl": "urn:uuid:9af2f885-e5d0-4316-9a0f-29c5162377b5",
    "resource": {
      "resourceType": "ReferralRequest",
      "id": "9af2f885-e5d0-4316-9a0f-29c5162377b5",
      "status": "active",
      "intent": "plan",
      "priority": "routine",
      "subject": {
        "reference": "urn:uuid:617da5f4-aee1-49ba-8eaf-9129f018b1eb"
      },
      "context": {
        "reference": "urn:uuid:723e8ec6-552e-4847-ab43-619afcc770b5"
      },
      "occurrencePeriod": {
        "start": "2021-05-11T08:53:28+00:00"
      },
      "authoredOn": "2021-05-11T08:53:28+00:00",
      "requester": {
        "agent": {
          "reference": "urn:uuid:922222c5-75b6-47fd-9861-9e2acee27044"
        },
        "onBehalfOf": {
          "reference": "urn:uuid:585875e8-2a71-45b0-954d-8d6700b29a16"
        }
      },
      "recipient": [ {
        "reference": "urn:uuid:e412e733-7927-4aa1-b0a6-4649cfead052"
      }, {
        "reference": "urn:uuid:d8a01d09-9583-48bd-b87f-a824a200ade0"
      } ],
      "reasonReference": [ {
        "reference": "urn:uuid:db0a8598-64d9-4210-8cac-c3cb0a6188d8"
      } ],
      "supportingInfo": [ {
        "reference": "urn:uuid:0d055e10-4932-4150-9991-e35662a6ef4d"
      } ]
    }
  }, {
    "fullUrl": "urn:uuid:0d055e10-4932-4150-9991-e35662a6ef4d",
    "resource": {
      "resourceType": "ProcedureRequest",
      "id": "0d055e10-4932-4150-9991-e35662a6ef4d",
      "status": "active",
      "intent": "plan",
      "priority": "routine",
      "doNotPerform": false,
      "code": {
        "coding": [ {
          "system": "2.16.840.1.113883.2.1.3.2.4.17.325",
          "code": "Dx06",
          "display": "To contact a local service within 6 hours"
        } ]
      },
      "subject": {
        "reference": "urn:uuid:617da5f4-aee1-49ba-8eaf-9129f018b1eb"
      },
      "occurrencePeriod": {
        "start": "2021-05-11T08:53:28+00:00"
      },
      "reasonReference": [ {
        "reference": "urn:uuid:db0a8598-64d9-4210-8cac-c3cb0a6188d8"
      } ]
    }
  }, {
    "fullUrl": "urn:uuid:e412e733-7927-4aa1-b0a6-4649cfead052",
    "resource": {
      "resourceType": "Practitioner",
      "id": "e412e733-7927-4aa1-b0a6-4649cfead052",
      "active": true,
      "telecom": [ {
        "system": "phone",
        "value": "tel:01233505450"
      } ],
      "address": [ {
        "type": "physical",
        "line": [ "Kingston House", "The Long Barrow", "Orbital Park", "Ashford", "Kent" ],
        "postalCode": "TN24 0GP"
      } ]
    }
  }, {
    "fullUrl": "urn:uuid:c2f9f334-4439-4f69-bd42-55e5b5c8818f",
    "resource": {
      "resourceType": "Composition",
      "id": "c2f9f334-4439-4f69-bd42-55e5b5c8818f",
      "identifier": {
        "use": "usual",
        "value": "192F7989-BE74-4F5C-AA94-FC0778DAC8AA"
      },
      "status": "final",
      "type": {
        "coding": [ {
          "system": "http://snomed.info/sct",
          "code": "371531000",
          "display": "Report of clinical encounter (record artifact)"
        } ]
      },
      "subject": {
        "reference": "urn:uuid:617da5f4-aee1-49ba-8eaf-9129f018b1eb"
      },
      "encounter": {
        "reference": "urn:uuid:723e8ec6-552e-4847-ab43-619afcc770b5"
      },
      "date": "2021-05-11T08:53:28+00:00",
      "author": [ {
        "reference": "urn:uuid:394bdf97-b2a9-414c-b9d2-f88389130c3e"
      } ],
      "title": "111 Report",
      "confidentiality": "R",
      "section": [ {
        "section": [ {
          "title": "Patient's Reported Condition",
          "text": {
            "status": "generated",
            "div": "<div xmlns=\"http://www.w3.org/1999/xhtml\">&lt;content&gt;&amp;lt;CLEO Ref: 2100310382&amp;gt; Test Call for DX06.\n                                                        &lt;br/&gt;\n                                                    &lt;/content&gt;</div>"
          }
        }, {
          "title": "Pathways Disposition",
          "text": {
            "status": "generated",
            "div": "<div xmlns=\"http://www.w3.org/1999/xhtml\">&lt;content&gt;The individual needs to contact a local service within 6 hours. (Dx06)&lt;/content&gt;\n                                                    &lt;br/&gt;\n                                                    &lt;br/&gt;\n                                                    &lt;content&gt;Selected Service: 1335970392, Out of Hours GP Service (Waveney) - Kirkley Mill Health Centre, Lowestoft, 111&lt;/content&gt;\n                                                    &lt;br/&gt;</div>"
          }
        }, {
          "title": "Consultation Summary",
          "text": {
            "status": "generated",
            "div": "<div xmlns=\"http://www.w3.org/1999/xhtml\">&lt;content&gt;\n                                                        &lt;content&gt;Constant pain for more than 4 hours&lt;/content&gt;\n                                                        &lt;br/&gt;\n                                                        &lt;content&gt;Warm to touch&lt;/content&gt;\n                                                        &lt;br/&gt;\n                                                        &lt;content&gt;Illness - Test&lt;/content&gt;\n                                                        &lt;br/&gt;\n                                                    &lt;/content&gt;</div>"
          }
        }, {
          "title": "Pathways Assessment",
          "text": {
            "status": "generated",
            "div": "<div xmlns=\"http://www.w3.org/1999/xhtml\">&lt;content&gt;An injury or health problem was the reason for the contact.&lt;/content&gt;\n                                                    &lt;br/&gt;\n                                                    &lt;content&gt;Heavy bleeding had not occurred in the previous 2 hours.&lt;/content&gt;\n                                                    &lt;br/&gt;\n                                                    &lt;content&gt;An illness or health problem was the main problem. - Test&lt;/content&gt;\n                                                    &lt;br/&gt;\n                                                    &lt;content&gt;The individual was not fighting for breath.&lt;/content&gt;\n                                                    &lt;br/&gt;\n                                                    &lt;content&gt;The main reason for the assessment was not an allergic reaction, heart attack, chest/upper back pain, probable stroke, recent fit/seizure or suicide attempt.&lt;/content&gt;\n                                                    &lt;br/&gt;\n                                                    &lt;content&gt;The main reason for contact was not new confusion, declared diabetic hypo/hyperglycaemia, or ICD shock.&lt;/content&gt;\n                                                    &lt;br/&gt;\n                                                    &lt;content&gt;The skin on the torso felt normal, warm or hot.&lt;/content&gt;\n                                                    &lt;br/&gt;\n                                                    &lt;content&gt;There was no vomiting, diarrhoea, rectal bleeding, groin pain or groin swelling.&lt;/content&gt;\n                                                    &lt;br/&gt;\n                                                    &lt;content&gt;There was no new genital pain or swelling.&lt;/content&gt;\n                                                    &lt;br/&gt;\n                                                    &lt;content&gt;The individual was able to carry out most or all normal activities.&lt;/content&gt;\n                                                    &lt;br/&gt;\n                                                    &lt;content&gt;There was no crushing or severe aching chest, upper back or upper abdominal pain, or pain going to the arm, neck, jaw or shoulder.&lt;/content&gt;\n                                                    &lt;br/&gt;\n                                                    &lt;content&gt;The individual had not ingested a harmful or toxic substance.&lt;/content&gt;\n                                                    &lt;br/&gt;\n                                                    &lt;content&gt;There had been no black and tarry or red/maroon bowel motions.&lt;/content&gt;\n                                                    &lt;br/&gt;\n                                                    &lt;content&gt;There was no new or worsening confusion.&lt;/content&gt;\n                                                    &lt;br/&gt;\n                                                    &lt;content&gt;Breathing harder or faster when doing nothing was not described.&lt;/content&gt;\n                                                    &lt;br/&gt;\n                                                    &lt;content&gt;There was no new shoulder tip pain or pain in the lower right abdomen.&lt;/content&gt;\n                                                    &lt;br/&gt;\n                                                    &lt;content&gt;The individual did not use anticoagulant medication or have a bleeding/clotting disorder.&lt;/content&gt;\n                                                    &lt;br/&gt;\n                                                    &lt;content&gt;There was constant pain for 4 hours or more.&lt;/content&gt;\n                                                    &lt;br/&gt;</div>"
          }
        }, {
          "title": "Advice Given",
          "text": {
            "status": "generated",
            "div": "<div xmlns=\"http://www.w3.org/1999/xhtml\">&lt;content&gt;Unless advised not to, paracetamol may be used to relieve pain or fever. Follow the instructions in the pack. If in doubt ask a pharmacist.&lt;/content&gt;\n                                                    &lt;br/&gt;\n                                                    &lt;content&gt;Don't use ibuprofen or any other anti-inflammatory medication until you have spoken to a healthcare professional.&lt;/content&gt;\n                                                    &lt;br/&gt;\n                                                    &lt;content&gt;If there are any new symptoms, or if the condition gets worse, changes or you have any other concerns, call us back.&lt;/content&gt;\n                                                    &lt;br/&gt;\n                                                    &lt;content&gt;Remember to take a list of any current medications if you go to the out of hours surgery.&lt;/content&gt;\n                                                    &lt;br/&gt;</div>"
          }
        }, {
          "title": "SCR Consent",
          "text": {
            "status": "generated",
            "div": "<div xmlns=\"http://www.w3.org/1999/xhtml\">&lt;content&gt;Consent given for SCR sharing\n                                                        &lt;br/&gt;\n                                                        &lt;br/&gt;\n                                                    &lt;/content&gt;</div>"
          }
        } ]
      }, {
        "title": "ReferralRequest",
        "entry": [ {
          "reference": "urn:uuid:9af2f885-e5d0-4316-9a0f-29c5162377b5"
        } ]
      } ]
    }
  }, {
    "fullUrl": "urn:uuid:a7abe055-6f04-4069-9c10-39d3acdd7e63",
    "resource": {
      "resourceType": "Consent",
      "id": "a7abe055-6f04-4069-9c10-39d3acdd7e63",
      "identifier": {
        "use": "usual",
        "value": "192F7989-BE74-4F5C-AA94-FC0778DAC8AA"
      },
      "status": "active",
      "patient": {
        "reference": "urn:uuid:617da5f4-aee1-49ba-8eaf-9129f018b1eb"
      },
      "period": {
        "start": "2021-05-11T08:49:11+00:00",
        "end": "2021-05-11T08:53:28+00:00"
      },
      "consentingParty": [ {
        "reference": "urn:uuid:617da5f4-aee1-49ba-8eaf-9129f018b1eb"
      } ],
      "action": [ {
        "coding": [ {
          "system": "http://snomed.info/sct",
          "code": "425691002",
          "display": "Consent given for electronic record sharing"
        } ],
        "text": "Consent given for electronic record sharing"
      } ],
      "organization": [ {
        "reference": "urn:uuid:585875e8-2a71-45b0-954d-8d6700b29a16"
      } ],
      "policyRule": "http://hl7.org/fhir/ConsentPolicy/opt-out",
      "data": [ {
        "meaning": "related",
        "reference": {
          "reference": "urn:uuid:723e8ec6-552e-4847-ab43-619afcc770b5"
        }
      } ]
    }
  }, {
    "fullUrl": "urn:uuid:db0a8598-64d9-4210-8cac-c3cb0a6188d8",
    "resource": {
      "resourceType": "Condition",
      "id": "db0a8598-64d9-4210-8cac-c3cb0a6188d8",
      "clinicalStatus": "active",
      "verificationStatus": "unknown",
      "subject": {
        "reference": "urn:uuid:617da5f4-aee1-49ba-8eaf-9129f018b1eb"
      },
      "context": {
        "reference": "urn:uuid:723e8ec6-552e-4847-ab43-619afcc770b5"
      }
    }
  }, {
    "fullUrl": "urn:uuid:1f58b311-da01-42f1-858d-6a4592ed86dd",
    "resource": {
      "resourceType": "Observation",
      "id": "1f58b311-da01-42f1-858d-6a4592ed86dd",
      "status": "final",
      "code": {
        "coding": [ {
          "system": "http://snomed.info/sct",
          "code": "33962009",
          "display": "Presenting complaint"
        } ]
      },
      "subject": {
        "reference": "urn:uuid:617da5f4-aee1-49ba-8eaf-9129f018b1eb"
      },
      "context": {
        "reference": "urn:uuid:723e8ec6-552e-4847-ab43-619afcc770b5"
      },
      "valueString": "<CLEO Ref: 2100310382> Test Call for DX06.\n                                                        "
    }
  }, {
    "fullUrl": "urn:uuid:66b08f28-ab52-4c4c-939d-74e437bac800",
    "resource": {
      "resourceType": "PractitionerRole",
      "id": "66b08f28-ab52-4c4c-939d-74e437bac800",
      "practitioner": {
        "reference": "urn:uuid:394bdf97-b2a9-414c-b9d2-f88389130c3e"
      },
      "organization": {
        "reference": "urn:uuid:b3059253-4c40-4dd9-91c3-520f87a0fc54"
      },
      "code": [ {
        "coding": [ {
          "system": "2.16.840.1.113883.2.1.3.2.4.17.196",
          "code": "NR1690",
          "display": "Call Operator"
        } ]
      } ]
    }
  }, {
    "fullUrl": "urn:uuid:b3059253-4c40-4dd9-91c3-520f87a0fc54",
    "resource": {
      "resourceType": "Organization",
      "id": "b3059253-4c40-4dd9-91c3-520f87a0fc54",
      "identifier": [ {
        "value": "NTN08"
      } ],
      "name": "Norfolk and Wisbech 111"
    }
  }, {
    "fullUrl": "urn:uuid:6af9929d-de89-425d-92fc-9e1c81497909",
    "resource": {
      "resourceType": "RelatedPerson",
      "id": "6af9929d-de89-425d-92fc-9e1c81497909",
      "patient": {
        "reference": "urn:uuid:617da5f4-aee1-49ba-8eaf-9129f018b1eb"
      },
      "relationship": {
        "coding": [ {
          "system": "http://hl7.org/fhir/v2/0131",
          "code": "C",
          "display": "Emergency Contact"
        } ]
      },
      "telecom": [ {
        "system": "phone",
        "value": "tel:01233123123"
      } ]
    }
  }, {
    "fullUrl": "urn:uuid:922222c5-75b6-47fd-9861-9e2acee27044",
    "resource": {
      "resourceType": "Device",
      "id": "922222c5-75b6-47fd-9861-9e2acee27044",
      "model": "111 Adaptor",
      "version": "1.0.3"
    }
  }, {
    "fullUrl": "urn:uuid:62095573-2266-4524-aa36-cd101bbab3c3",
    "resource": {
      "resourceType": "List",
      "id": "62095573-2266-4524-aa36-cd101bbab3c3",
      "status": "current",
      "mode": "working",
      "title": "111 Report List",
      "code": {
        "coding": [ {
          "system": "http://snomed.info/sct",
          "code": "225390008",
          "display": "Triage"
        } ]
      },
      "subject": {
        "reference": "urn:uuid:617da5f4-aee1-49ba-8eaf-9129f018b1eb"
      },
      "encounter": {
        "reference": "urn:uuid:723e8ec6-552e-4847-ab43-619afcc770b5"
      },
      "date": "2021-05-11T08:53:28+00:00",
      "source": {
        "reference": "urn:uuid:922222c5-75b6-47fd-9861-9e2acee27044"
      },
      "orderedBy": {
        "coding": [ {
          "system": "http://hl7.org/fhir/list-order",
          "code": "event-date",
          "display": "Sorted by Event Date"
        } ]
      },
      "entry": [ {
        "item": {
          "reference": "urn:uuid:db0a8598-64d9-4210-8cac-c3cb0a6188d8"
        }
      }, {
        "item": {
          "reference": "urn:uuid:cea3d114-5596-4120-8fbf-10a584f8bb4e"
        }
      }, {
        "item": {
          "reference": "urn:uuid:585875e8-2a71-45b0-954d-8d6700b29a16"
        }
      }, {
        "item": {
          "reference": "urn:uuid:588a40a2-bd41-4956-81ac-22c1ce4449c7"
        }
      }, {
        "item": {
          "reference": "urn:uuid:b3059253-4c40-4dd9-91c3-520f87a0fc54"
        }
      }, {
        "item": {
          "reference": "urn:uuid:e412e733-7927-4aa1-b0a6-4649cfead052"
        }
      }, {
        "item": {
          "reference": "urn:uuid:394bdf97-b2a9-414c-b9d2-f88389130c3e"
        }
      }, {
        "item": {
          "reference": "urn:uuid:93e7234e-a0fb-4602-944a-8c77f86e3bd8"
        }
      }, {
        "item": {
          "reference": "urn:uuid:1bf777f3-9126-415c-b49a-36afe9f86239"
        }
      }, {
        "item": {
          "reference": "urn:uuid:1f58b311-da01-42f1-858d-6a4592ed86dd"
        }
      }, {
        "item": {
          "reference": "urn:uuid:6af9929d-de89-425d-92fc-9e1c81497909"
        }
      }, {
        "item": {
          "reference": "urn:uuid:9af2f885-e5d0-4316-9a0f-29c5162377b5"
        }
      } ]
    }
  } ]
}