{
  "resourceType": "Bundle",
  "identifier": {
    "type": {
      "text": "ClinicalDocument VersionNumber"
    },
    "value": "1"
  },
  "type": "message",
  "entry": [ {
    "fullUrl": "urn:uuid:D78E4686-5082-4E76-9359-6A84AE0C9C10",
    "resource": {
      "resourceType": "MessageHeader",
      "id": "D78E4686-5082-4E76-9359-6A84AE0C9C10",
      "event": {
        "system": "https://fhir.nhs.uk/STU3/CodeSystem/EventType-1",
        "code": "referral-1",
        "display": "Referral"
      },
      "destination": [ {
        "endpoint": "urn:nhs-uk:addressing:ods:NVE06:DOSServiceID:1335970392"
      } ],
      "timestamp": "2021-05-11T08:53:28.000+00:00",
      "source": {
        "name": "NHS 111 Adaptor",
        "endpoint": "http://localhost:8080/report"
      },
      "reason": {
        "coding": [ {
          "system": "urn:nhs-itk:ns:201005:interaction",
          "code": "urn:nhs-itk:interaction:primaryOutofHourRecipientNHS111CDADocument-v2-0"
        } ]
      }
    },
    "response": {
      "status": "success",
      "lastModified": "2022-05-05T12:28:00.038+00:00"
    }
  }, {
    "fullUrl": "urn:uuid:c4c91c80-584e-4b7d-8765-1c483decd9f9",
    "resource": {
      "resourceType": "Encounter",
      "id": "c4c91c80-584e-4b7d-8765-1c483decd9f9",
      "identifier": [ {
        "system": "2.16.840.1.113883.2.1.3.2.4.18.34",
        "value": "0060E06D-C899-440E-B58E-B5522662EC28"
      }, {
        "system": "2.16.840.1.113883.2.1.3.2.4.18.35",
        "value": "2100310382"
      } ],
      "status": "finished",
      "type": [ {
        "text": "111 Encounter Referral"
      } ],
      "subject": {
        "reference": "urn:uuid:99a95c5e-615b-4754-9308-b160ec09e359"
      },
      "participant": [ {
        "type": [ {
          "coding": [ {
            "system": "http://hl7.org/fhir/ValueSet/encounter-participant-type",
            "code": "PPRF",
            "display": "Author"
          } ]
        } ],
        "individual": {
          "reference": "urn:uuid:9b705252-6804-4ba8-9e7b-94190fb4a593"
        }
      }, {
        "type": [ {
          "text": "Informant"
        } ],
        "individual": {
          "reference": "urn:uuid:d36d56ba-df92-424d-b2cc-280d598e1a73"
        }
      } ],
      "period": {
        "start": "2021-05-11T08:49:11+00:00",
        "end": "2021-05-11T08:53:28+00:00"
      },
      "location": [ {
        "location": {
          "reference": "urn:uuid:4034f8df-f4c3-441c-81a5-7fbead2ff636"
        },
        "status": "active"
      }, {
        "location": {
          "reference": "urn:uuid:10dc3eef-8da4-4aab-a244-b09e5417ecf0"
        },
        "status": "completed"
      } ],
      "serviceProvider": {
        "reference": "urn:uuid:993720a8-8e06-4359-9111-2de5326bcad2"
      }
    }
  }, {
    "fullUrl": "urn:uuid:993720a8-8e06-4359-9111-2de5326bcad2",
    "resource": {
      "resourceType": "Organization",
      "id": "993720a8-8e06-4359-9111-2de5326bcad2",
      "active": true,
      "type": [ {
        "text": "CST"
      } ],
      "name": "Norfolk and Wisbech 111"
    }
  }, {
    "fullUrl": "urn:uuid:9b705252-6804-4ba8-9e7b-94190fb4a593",
    "resource": {
      "resourceType": "Practitioner",
      "id": "9b705252-6804-4ba8-9e7b-94190fb4a593",
      "active": true,
      "name": [ {
        "text": "Ben Smythson"
      } ]
    }
  }, {
    "fullUrl": "urn:uuid:d36d56ba-df92-424d-b2cc-280d598e1a73",
    "resource": {
      "resourceType": "RelatedPerson",
      "id": "d36d56ba-df92-424d-b2cc-280d598e1a73",
      "active": true,
      "patient": {
        "reference": "urn:uuid:99a95c5e-615b-4754-9308-b160ec09e359"
      },
      "relationship": {
        "coding": [ {
          "system": "2.16.840.1.113883.2.1.3.2.4.16.45",
          "code": "21",
          "display": "Self"
        }, {
          "system": "http://hl7.org/fhir/v2/0131",
          "code": "C",
          "display": "Emergency Contact"
        } ]
      },
      "name": [ {
        "text": "Test Call TEST CALL DX06"
      } ],
      "telecom": [ {
        "system": "phone",
        "value": "tel:01233123123"
      } ],
      "gender": "unknown"
    }
  }, {
    "fullUrl": "urn:uuid:4034f8df-f4c3-441c-81a5-7fbead2ff636",
    "resource": {
      "resourceType": "Location",
      "id": "4034f8df-f4c3-441c-81a5-7fbead2ff636",
      "managingOrganization": {
        "reference": "urn:uuid:bbf513f7-986e-4751-9b63-b909c63c8bef"
      }
    }
  }, {
    "fullUrl": "urn:uuid:bbf513f7-986e-4751-9b63-b909c63c8bef",
    "resource": {
      "resourceType": "Organization",
      "id": "bbf513f7-986e-4751-9b63-b909c63c8bef",
      "identifier": [ {
        "value": "Z10000"
      } ],
      "type": [ {
        "text": "GP Practice"
      } ],
      "name": "UNKNOWN"
    }
  }, {
    "fullUrl": "urn:uuid:10dc3eef-8da4-4aab-a244-b09e5417ecf0",
    "resource": {
      "resourceType": "Location",
      "id": "10dc3eef-8da4-4aab-a244-b09e5417ecf0",
      "address": {
        "type": "physical",
        "line": [ "313 VICTORIA ROAD", "LOWESTOFT" ],
        "postalCode": "NR33 9LS"
      }
    }
  }, {
    "fullUrl": "urn:uuid:99a95c5e-615b-4754-9308-b160ec09e359",
    "resource": {
      "resourceType": "Patient",
      "id": "99a95c5e-615b-4754-9308-b160ec09e359",
      "language": "en",
      "active": true,
      "name": [ {
        "use": "official",
        "family": "TEST CALL DX06",
        "given": [ "Test Call" ]
      } ],
      "telecom": [ {
        "system": "phone",
        "value": "tel:01233123123"
      } ],
      "gender": "male",
      "birthDate": "1996-03-25",
      "address": [ {
        "use": "home",
        "line": [ "313 VICTORIA ROAD", "LOWESTOFT" ],
        "postalCode": "NR33 9LS"
      }, {
        "type": "physical",
        "line": [ "313 VICTORIA ROAD", "LOWESTOFT" ],
        "postalCode": "NR33 9LS"
      } ],
      "generalPractitioner": [ {
        "reference": "urn:uuid:bbc0541e-e422-4344-9e15-f5e32484a44c"
      } ]
    }
  }, {
    "fullUrl": "urn:uuid:bbc0541e-e422-4344-9e15-f5e32484a44c",
    "resource": {
      "resourceType": "Organization",
      "id": "bbc0541e-e422-4344-9e15-f5e32484a44c",
      "identifier": [ {
        "value": "Z10000"
      } ],
      "type": [ {
        "text": "GP Practice"
      } ],
      "name": "UNKNOWN"
    }
  }, {
    "fullUrl": "urn:uuid:6b4b4206-3d4f-42d7-849c-283a967d0ac0",
    "resource": {
      "resourceType": "HealthcareService",
      "id": "6b4b4206-3d4f-42d7-849c-283a967d0ac0",
      "active": true,
      "providedBy": {
        "reference": "urn:uuid:03d65c8a-8c53-42e3-8bbf-afddace110f9"
      },
      "location": [ {
        "reference": "urn:uuid:ec279bbf-1e76-42c2-8c6c-b529d4f17a4a"
      } ],
      "name": "Out of Hours GP Service (Waveney) - Kirkley Mill Health Centre, Lowestoft"
    }
  }, {
    "fullUrl": "urn:uuid:ec279bbf-1e76-42c2-8c6c-b529d4f17a4a",
    "resource": {
      "resourceType": "Location",
      "id": "ec279bbf-1e76-42c2-8c6c-b529d4f17a4a",
      "managingOrganization": {
        "reference": "urn:uuid:03d65c8a-8c53-42e3-8bbf-afddace110f9"
      }
    }
  }, {
    "fullUrl": "urn:uuid:03d65c8a-8c53-42e3-8bbf-afddace110f9",
    "resource": {
      "resourceType": "Organization",
      "id": "03d65c8a-8c53-42e3-8bbf-afddace110f9",
      "identifier": [ {
        "value": "NVE06"
      } ],
      "type": [ {
        "coding": [ {
          "code": "PRCP",
          "display": "Out of Hours GP Service (Waveney) - Kirkley Mill Health Centre, Lowestoft"
        } ]
      } ],
      "name": "Out of Hours GP Service (Waveney) - Kirkley Mill Health Centre, Lowestoft"
    }
  }, {
    "fullUrl": "urn:uuid:02a3d248-cb9c-438f-8891-1f4715f94e14",
    "resource": {
      "resourceType": "ReferralRequest",
      "id": "02a3d248-cb9c-438f-8891-1f4715f94e14",
      "status": "active",
      "intent": "plan",
      "priority": "routine",
      "subject": {
        "reference": "urn:uuid:99a95c5e-615b-4754-9308-b160ec09e359"
      },
      "context": {
        "reference": "urn:uuid:c4c91c80-584e-4b7d-8765-1c483decd9f9"
      },
      "occurrencePeriod": {
        "start": "2021-05-11T08:53:28+00:00"
      },
      "authoredOn": "2021-05-11T08:53:28+00:00",
      "requester": {
        "agent": {
          "reference": "urn:uuid:b6266a60-691d-40ef-9df0-33ef76f4e26c"
        },
        "onBehalfOf": {
          "reference": "urn:uuid:993720a8-8e06-4359-9111-2de5326bcad2"
        }
      },
      "recipient": [ {
        "reference": "urn:uuid:383ebbed-4a6f-441f-ac86-e6c6a82ede63"
      }, {
        "reference": "urn:uuid:6b4b4206-3d4f-42d7-849c-283a967d0ac0"
      } ],
      "reasonReference": [ {
        "reference": "urn:uuid:2ef7d024-0e1a-4c70-a373-662f623f049e"
      } ],
      "supportingInfo": [ {
        "reference": "urn:uuid:11d5b4ca-f381-409c-b4b9-5f8deed5617a"
      } ]
    }
  }, {
    "fullUrl": "urn:uuid:11d5b4ca-f381-409c-b4b9-5f8deed5617a",
    "resource": {
      "resourceType": "ProcedureRequest",
      "id": "11d5b4ca-f381-409c-b4b9-5f8deed5617a",
      "status": "active",
      "intent": "plan",
      "priority": "routine",
      "doNotPerform": false,
      "code": {
        "coding": [ {
          "system": "2.16.840.1.113883.2.1.3.2.4.17.325",
          "code": "Dx06",
          "display": "To contact a local service within 6 hours"
        } ]
      },
      "subject": {
        "reference": "urn:uuid:99a95c5e-615b-4754-9308-b160ec09e359"
      },
      "occurrencePeriod": {
        "start": "2021-05-11T08:53:28+00:00"
      },
      "reasonReference": [ {
        "reference": "urn:uuid:2ef7d024-0e1a-4c70-a373-662f623f049e"
      } ]
    }
  }, {
    "fullUrl": "urn:uuid:383ebbed-4a6f-441f-ac86-e6c6a82ede63",
    "resource": {
      "resourceType": "Practitioner",
      "id": "383ebbed-4a6f-441f-ac86-e6c6a82ede63",
      "active": true,
      "telecom": [ {
        "system": "phone",
        "value": "tel:01233505450"
      } ],
      "address": [ {
        "type": "physical",
        "line": [ "Kingston House", "The Long Barrow", "Orbital Park", "Ashford", "Kent" ],
        "postalCode": "TN24 0GP"
      } ]
    }
  }, {
    "fullUrl": "urn:uuid:8f287f3a-d1a3-401e-9494-7cd26316d817",
    "resource": {
      "resourceType": "Composition",
      "id": "8f287f3a-d1a3-401e-9494-7cd26316d817",
      "identifier": {
        "use": "usual",
        "value": "192F7989-BE74-4F5C-AA94-FC0778DAC8AA"
      },
      "status": "final",
      "type": {
        "coding": [ {
          "system": "http://snomed.info/sct",
          "code": "371531000",
          "display": "Report of clinical encounter (record artifact)"
        } ]
      },
      "subject": {
        "reference": "urn:uuid:99a95c5e-615b-4754-9308-b160ec09e359"
      },
      "encounter": {
        "reference": "urn:uuid:c4c91c80-584e-4b7d-8765-1c483decd9f9"
      },
      "date": "2021-05-11T08:53:28+00:00",
      "author": [ {
        "reference": "urn:uuid:9b705252-6804-4ba8-9e7b-94190fb4a593"
      } ],
      "title": "111 Report",
      "confidentiality": "R",
      "section": [ {
        "section": [ {
          "title": "Patient's Reported Condition",
          "text": {
            "status": "generated",
            "div": "<div xmlns=\"http://www.w3.org/1999/xhtml\">&lt;content&gt;&amp;lt;CLEO Ref: 2100310382&amp;gt; Test Call for DX06.\n                                                        &lt;br/&gt;\n                                                    &lt;/content&gt;</div>"
          }
        }, {
          "title": "Pathways Disposition",
          "text": {
            "status": "generated",
            "div": "<div xmlns=\"http://www.w3.org/1999/xhtml\">&lt;content&gt;The individual needs to contact a local service within 6 hours. (Dx06)&lt;/content&gt;\n                                                    &lt;br/&gt;\n                                                    &lt;br/&gt;\n                                                    &lt;content&gt;Selected Service: 1335970392, Out of Hours GP Service (Waveney) - Kirkley Mill Health Centre, Lowestoft, 111&lt;/content&gt;\n                                                    &lt;br/&gt;</div>"
          }
        }, {
          "title": "Consultation Summary",
          "text": {
            "status": "generated",
            "div": "<div xmlns=\"http://www.w3.org/1999/xhtml\">&lt;content&gt;\n                                                        &lt;content&gt;Constant pain for more than 4 hours&lt;/content&gt;\n                                                        &lt;br/&gt;\n                                                        &lt;content&gt;Warm to touch&lt;/content&gt;\n                                                        &lt;br/&gt;\n                                                        &lt;content&gt;Illness - Test&lt;/content&gt;\n                                                        &lt;br/&gt;\n                                                    &lt;/content&gt;</div>"
          }
        }, {
          "title": "Pathways Assessment",
          "text": {
            "status": "generated",
            "div": "<div xmlns=\"http://www.w3.org/1999/xhtml\">&lt;content&gt;An injury or health problem was the reason for the contact.&lt;/content&gt;\n                                                    &lt;br/&gt;\n                                                    &lt;content&gt;Heavy bleeding had not occurred in the previous 2 hours.&lt;/content&gt;\n                                                    &lt;br/&gt;\n                                                    &lt;content&gt;An illness or health problem was the main problem. - Test&lt;/content&gt;\n                                                    &lt;br/&gt;\n                                                    &lt;content&gt;The individual was not fighting for breath.&lt;/content&gt;\n                                                    &lt;br/&gt;\n                                                    &lt;content&gt;The main reason for the assessment was not an allergic reaction, heart attack, chest/upper back pain, probable stroke, recent fit/seizure or suicide attempt.&lt;/content&gt;\n                                                    &lt;br/&gt;\n                                                    &lt;content&gt;The main reason for contact was not new confusion, declared diabetic hypo/hyperglycaemia, or ICD shock.&lt;/content&gt;\n                                                    &lt;br/&gt;\n                                                    &lt;content&gt;The skin on the torso felt normal, warm or hot.&lt;/content&gt;\n                                                    &lt;br/&gt;\n                                                    &lt;content&gt;There was no vomiting, diarrhoea, rectal bleeding, groin pain or groin swelling.&lt;/content&gt;\n                                                    &lt;br/&gt;\n                                                    &lt;content&gt;There was no new genital pain or swelling.&lt;/content&gt;\n                                                    &lt;br/&gt;\n                                                    &lt;content&gt;The individual was able to carry out most or all normal activities.&lt;/content&gt;\n                                                    &lt;br/&gt;\n                                                    &lt;content&gt;There was no crushing or severe aching chest, upper back or upper abdominal pain, or pain going to the arm, neck, jaw or shoulder.&lt;/content&gt;\n                                                    &lt;br/&gt;\n                                                    &lt;content&gt;The individual had not ingested a harmful or toxic substance.&lt;/content&gt;\n                                                    &lt;br/&gt;\n                                                    &lt;content&gt;There had been no black and tarry or red/maroon bowel motions.&lt;/content&gt;\n                                                    &lt;br/&gt;\n                                                    &lt;content&gt;There was no new or worsening confusion.&lt;/content&gt;\n                                                    &lt;br/&gt;\n                                                    &lt;content&gt;Breathing harder or faster when doing nothing was not described.&lt;/content&gt;\n                                                    &lt;br/&gt;\n                                                    &lt;content&gt;There was no new shoulder tip pain or pain in the lower right abdomen.&lt;/content&gt;\n                                                    &lt;br/&gt;\n                                                    &lt;content&gt;The individual did not use anticoagulant medication or have a bleeding/clotting disorder.&lt;/content&gt;\n                                                    &lt;br/&gt;\n                                                    &lt;content&gt;There was constant pain for 4 hours or more.&lt;/content&gt;\n                                                    &lt;br/&gt;</div>"
          }
        }, {
          "title": "Advice Given",
          "text": {
            "status": "generated",
            "div": "<div xmlns=\"http://www.w3.org/1999/xhtml\">&lt;content&gt;Unless advised not to, paracetamol may be used to relieve pain or fever. Follow the instructions in the pack. If in doubt ask a pharmacist.&lt;/content&gt;\n                                                    &lt;br/&gt;\n                                                    &lt;content&gt;Don't use ibuprofen or any other anti-inflammatory medication until you have spoken to a healthcare professional.&lt;/content&gt;\n                                                    &lt;br/&gt;\n                                                    &lt;content&gt;If there are any new symptoms, or if the condition gets worse, changes or you have any other concerns, call us back.&lt;/content&gt;\n                                                    &lt;br/&gt;\n                                                    &lt;content&gt;Remember to take a list of any current medications if you go to the out of hours surgery.&lt;/content&gt;\n                                                    &lt;br/&gt;</div>"
          }
        }, {
          "title": "SCR Consent",
          "text": {
            "status": "generated",
            "div": "<div xmlns=\"http://www.w3.org/1999/xhtml\">&lt;content&gt;Consent given for SCR sharing\n                                                        &lt;br/&gt;\n                                                        &lt;br/&gt;\n                                                    &lt;/content&gt;</div>"
          }
        } ]
      }, {
        "title": "ReferralRequest",
        "entry": [ {
          "reference": "urn:uuid:02a3d248-cb9c-438f-8891-1f4715f94e14"
        } ]
      } ]
    }
  }, {
    "fullUrl": "urn:uuid:157ca53d-1b09-4450-b821-d1b9a68402f3",
    "resource": {
      "resourceType": "Consent",
      "id": "157ca53d-1b09-4450-b821-d1b9a68402f3",
      "identifier": {
        "use": "usual",
        "value": "192F7989-BE74-4F5C-AA94-FC0778DAC8AA"
      },
      "status": "active",
      "patient": {
        "reference": "urn:uuid:99a95c5e-615b-4754-9308-b160ec09e359"
      },
      "period": {
        "start": "2021-05-11T08:49:11+00:00",
        "end": "2021-05-11T08:53:28+00:00"
      },
      "consentingParty": [ {
        "reference": "urn:uuid:99a95c5e-615b-4754-9308-b160ec09e359"
      } ],
      "action": [ {
        "coding": [ {
          "system": "http://snomed.info/sct",
          "code": "425691002",
          "display": "Consent given for electronic record sharing"
        } ],
        "text": "Consent given for electronic record sharing"
      } ],
      "organization": [ {
        "reference": "urn:uuid:993720a8-8e06-4359-9111-2de5326bcad2"
      } ],
      "policyRule": "http://hl7.org/fhir/ConsentPolicy/opt-out",
      "data": [ {
        "meaning": "related",
        "reference": {
          "reference": "urn:uuid:c4c91c80-584e-4b7d-8765-1c483decd9f9"
        }
      } ]
    }
  }, {
    "fullUrl": "urn:uuid:2ef7d024-0e1a-4c70-a373-662f623f049e",
    "resource": {
      "resourceType": "Condition",
      "id": "2ef7d024-0e1a-4c70-a373-662f623f049e",
      "clinicalStatus": "active",
      "verificationStatus": "unknown",
      "subject": {
        "reference": "urn:uuid:99a95c5e-615b-4754-9308-b160ec09e359"
      },
      "context": {
        "reference": "urn:uuid:c4c91c80-584e-4b7d-8765-1c483decd9f9"
      }
    }
  }, {
    "fullUrl": "urn:uuid:de38fd5b-e13f-4fee-bec8-419e5d049ee6",
    "resource": {
      "resourceType": "Observation",
      "id": "de38fd5b-e13f-4fee-bec8-419e5d049ee6",
      "status": "final",
      "code": {
        "coding": [ {
          "system": "http://snomed.info/sct",
          "code": "33962009",
          "display": "Presenting complaint"
        } ]
      },
      "subject": {
        "reference": "urn:uuid:99a95c5e-615b-4754-9308-b160ec09e359"
      },
      "context": {
        "reference": "urn:uuid:c4c91c80-584e-4b7d-8765-1c483decd9f9"
      },
      "valueString": "<CLEO Ref: 2100310382> Test Call for DX06.\n                                                        "
    }
  }, {
    "fullUrl": "urn:uuid:b1be60cd-2fe4-466b-a369-b99beb7e4819",
    "resource": {
      "resourceType": "PractitionerRole",
      "id": "b1be60cd-2fe4-466b-a369-b99beb7e4819",
      "practitioner": {
        "reference": "urn:uuid:9b705252-6804-4ba8-9e7b-94190fb4a593"
      },
      "organization": {
        "reference": "urn:uuid:eb187877-f1e5-4c20-978f-567ad9330a37"
      },
      "code": [ {
        "coding": [ {
          "system": "2.16.840.1.113883.2.1.3.2.4.17.196",
          "code": "NR1690",
          "display": "Call Operator"
        } ]
      } ]
    }
  }, {
    "fullUrl": "urn:uuid:eb187877-f1e5-4c20-978f-567ad9330a37",
    "resource": {
      "resourceType": "Organization",
      "id": "eb187877-f1e5-4c20-978f-567ad9330a37",
      "identifier": [ {
        "value": "NTN08"
      } ],
      "name": "Norfolk and Wisbech 111"
    }
  }, {
    "fullUrl": "urn:uuid:80017cc7-16b5-4dca-867f-b49f1cc37fc9",
    "resource": {
      "resourceType": "RelatedPerson",
      "id": "80017cc7-16b5-4dca-867f-b49f1cc37fc9",
      "patient": {
        "reference": "urn:uuid:99a95c5e-615b-4754-9308-b160ec09e359"
      },
      "relationship": {
        "coding": [ {
          "system": "http://hl7.org/fhir/v2/0131",
          "code": "C",
          "display": "Emergency Contact"
        } ]
      },
      "telecom": [ {
        "system": "phone",
        "value": "tel:01233123123"
      } ]
    }
  }, {
    "fullUrl": "urn:uuid:b6266a60-691d-40ef-9df0-33ef76f4e26c",
    "resource": {
      "resourceType": "Device",
      "id": "b6266a60-691d-40ef-9df0-33ef76f4e26c",
      "model": "111 Adaptor",
      "version": "1.0.1"
    }
  }, {
    "fullUrl": "urn:uuid:cddcc8cd-3f2a-4896-80d7-5e88b86ecfdb",
    "resource": {
      "resourceType": "List",
      "id": "cddcc8cd-3f2a-4896-80d7-5e88b86ecfdb",
      "status": "current",
      "mode": "working",
      "title": "111 Report List",
      "code": {
        "coding": [ {
          "system": "http://snomed.info/sct",
          "code": "225390008",
          "display": "Triage"
        } ]
      },
      "subject": {
        "reference": "urn:uuid:99a95c5e-615b-4754-9308-b160ec09e359"
      },
      "encounter": {
        "reference": "urn:uuid:c4c91c80-584e-4b7d-8765-1c483decd9f9"
      },
      "date": "2021-05-11T08:53:28+00:00",
      "source": {
        "reference": "urn:uuid:b6266a60-691d-40ef-9df0-33ef76f4e26c"
      },
      "orderedBy": {
        "coding": [ {
          "system": "http://hl7.org/fhir/list-order",
          "code": "event-date",
          "display": "Sorted by Event Date"
        } ]
      },
      "entry": [ {
        "item": {
          "reference": "urn:uuid:bbf513f7-986e-4751-9b63-b909c63c8bef"
        }
      }, {
        "item": {
          "reference": "urn:uuid:bbc0541e-e422-4344-9e15-f5e32484a44c"
        }
      }, {
        "item": {
          "reference": "urn:uuid:2ef7d024-0e1a-4c70-a373-662f623f049e"
        }
      }, {
        "item": {
          "reference": "urn:uuid:eb187877-f1e5-4c20-978f-567ad9330a37"
        }
      }, {
        "item": {
          "reference": "urn:uuid:de38fd5b-e13f-4fee-bec8-419e5d049ee6"
        }
      }, {
        "item": {
          "reference": "urn:uuid:9b705252-6804-4ba8-9e7b-94190fb4a593"
        }
      }, {
        "item": {
          "reference": "urn:uuid:80017cc7-16b5-4dca-867f-b49f1cc37fc9"
        }
      }, {
        "item": {
          "reference": "urn:uuid:d36d56ba-df92-424d-b2cc-280d598e1a73"
        }
      }, {
        "item": {
          "reference": "urn:uuid:993720a8-8e06-4359-9111-2de5326bcad2"
        }
      }, {
        "item": {
          "reference": "urn:uuid:383ebbed-4a6f-441f-ac86-e6c6a82ede63"
        }
      }, {
        "item": {
          "reference": "urn:uuid:03d65c8a-8c53-42e3-8bbf-afddace110f9"
        }
      }, {
        "item": {
          "reference": "urn:uuid:02a3d248-cb9c-438f-8891-1f4715f94e14"
        }
      } ]
    }
  } ]
}