{
  "resourceType": "Bundle",
  "identifier": {
    "type": {
      "text": "ClinicalDocument VersionNumber"
    },
    "value": "1"
  },
  "type": "message",
  "entry": [ {
    "fullUrl": "urn:uuid:D78E4686-5082-4E76-9359-6A84AE0C9C10",
    "resource": {
      "resourceType": "MessageHeader",
      "id": "D78E4686-5082-4E76-9359-6A84AE0C9C10",
      "event": {
        "system": "https://fhir.nhs.uk/STU3/CodeSystem/EventType-1",
        "code": "referral-1",
        "display": "Referral"
      },
      "destination": [ {
        "endpoint": "urn:nhs-uk:addressing:ods:NVE06:DOSServiceID:1335970392"
      } ],
      "timestamp": "2021-05-11T08:53:28.000+00:00",
      "source": {
        "name": "NHS 111 Adaptor",
        "endpoint": "http://localhost:8080/report"
      },
      "reason": {
        "coding": [ {
          "system": "urn:nhs-itk:ns:201005:interaction",
          "code": "urn:nhs-itk:interaction:primaryOutofHourRecipientNHS111CDADocument-v2-0"
        } ]
      }
    }
  }, {
    "fullUrl": "urn:uuid:13440ffb-2916-496e-8d2d-d7024daea9f9",
    "resource": {
      "resourceType": "Encounter",
      "id": "13440ffb-2916-496e-8d2d-d7024daea9f9",
      "identifier": [ {
        "system": "2.16.840.1.113883.2.1.3.2.4.18.34",
        "value": "0060E06D-C899-440E-B58E-B5522662EC28"
      }, {
        "system": "2.16.840.1.113883.2.1.3.2.4.18.35",
        "value": "2100310382"
      } ],
      "status": "finished",
      "type": [ {
        "text": "111 Encounter Referral"
      } ],
      "subject": {
        "reference": "urn:uuid:57bf279a-48aa-4d59-a4a7-7932b00d3b7c"
      },
      "participant": [ {
        "type": [ {
          "coding": [ {
            "system": "http://hl7.org/fhir/ValueSet/encounter-participant-type",
            "code": "PPRF",
            "display": "Author"
          } ]
        } ],
        "individual": {
          "reference": "urn:uuid:18b2141c-47a9-4664-9700-63d5f8bd9db3"
        }
      }, {
        "type": [ {
          "text": "Informant"
        } ],
        "individual": {
          "reference": "urn:uuid:040f5a74-914f-4b1c-8aaf-91cccbff1dfd"
        }
      } ],
      "period": {
        "start": "2021-05-11T08:53:28+00:00"
      },
      "location": [ {
        "location": {
          "reference": "urn:uuid:984d9159-f41d-49f7-b9fb-98517aeff5e8"
        },
        "status": "active"
      }, {
        "location": {
          "reference": "urn:uuid:b5f5f51f-866b-4a04-88fe-af8d9d53c32f"
        },
        "status": "completed"
      } ],
      "serviceProvider": {
        "reference": "urn:uuid:8ff8bd12-1f2a-48d6-afe6-3ac4d8f8654f"
      }
    }
  }, {
    "fullUrl": "urn:uuid:8ff8bd12-1f2a-48d6-afe6-3ac4d8f8654f",
    "resource": {
      "resourceType": "Organization",
      "id": "8ff8bd12-1f2a-48d6-afe6-3ac4d8f8654f",
      "active": true,
      "type": [ {
        "text": "CST"
      } ],
      "name": "Norfolk and Wisbech 111"
    }
  }, {
    "fullUrl": "urn:uuid:18b2141c-47a9-4664-9700-63d5f8bd9db3",
    "resource": {
      "resourceType": "Practitioner",
      "id": "18b2141c-47a9-4664-9700-63d5f8bd9db3",
      "active": true,
      "name": [ {
        "text": "Ben Smythson"
      } ]
    }
  }, {
    "fullUrl": "urn:uuid:040f5a74-914f-4b1c-8aaf-91cccbff1dfd",
    "resource": {
      "resourceType": "RelatedPerson",
      "id": "040f5a74-914f-4b1c-8aaf-91cccbff1dfd",
      "active": true,
      "patient": {
        "reference": "urn:uuid:57bf279a-48aa-4d59-a4a7-7932b00d3b7c"
      },
      "relationship": {
        "coding": [ {
          "system": "2.16.840.1.113883.2.1.3.2.4.16.45",
          "code": "21",
          "display": "Self"
        }, {
          "system": "http://hl7.org/fhir/v2/0131",
          "code": "C",
          "display": "Emergency Contact"
        } ]
      },
      "name": [ {
        "text": "Test Call TEST CALL DX06"
      } ],
      "telecom": [ {
        "system": "phone",
        "value": "tel:01233123123"
      } ],
      "gender": "unknown"
    }
  }, {
    "fullUrl": "urn:uuid:984d9159-f41d-49f7-b9fb-98517aeff5e8",
    "resource": {
      "resourceType": "Location",
      "id": "984d9159-f41d-49f7-b9fb-98517aeff5e8",
      "managingOrganization": {
        "reference": "urn:uuid:87395c7b-618a-4e45-8fa2-2dadb71779d1"
      }
    }
  }, {
    "fullUrl": "urn:uuid:87395c7b-618a-4e45-8fa2-2dadb71779d1",
    "resource": {
      "resourceType": "Organization",
      "id": "87395c7b-618a-4e45-8fa2-2dadb71779d1",
      "identifier": [ {
        "value": "Z10000"
      } ],
      "type": [ {
        "text": "GP Practice"
      } ],
      "name": "UNKNOWN"
    }
  }, {
    "fullUrl": "urn:uuid:b5f5f51f-866b-4a04-88fe-af8d9d53c32f",
    "resource": {
      "resourceType": "Location",
      "id": "b5f5f51f-866b-4a04-88fe-af8d9d53c32f",
      "address": {
        "type": "physical",
        "line": [ "313 VICTORIA ROAD", "LOWESTOFT" ],
        "postalCode": "NR33 9LS"
      }
    }
  }, {
    "fullUrl": "urn:uuid:57bf279a-48aa-4d59-a4a7-7932b00d3b7c",
    "resource": {
      "resourceType": "Patient",
      "id": "57bf279a-48aa-4d59-a4a7-7932b00d3b7c",
      "language": "en",
      "active": true,
      "name": [ {
        "use": "official",
        "family": "TEST CALL DX06",
        "given": [ "Test Call" ]
      } ],
      "telecom": [ {
        "system": "phone",
        "value": "tel:01233123123"
      } ],
      "gender": "male",
      "birthDate": "1996-03-25",
      "address": [ {
        "use": "home",
        "line": [ "313 VICTORIA ROAD", "LOWESTOFT" ],
        "postalCode": "NR33 9LS"
      }, {
        "type": "physical",
        "line": [ "313 VICTORIA ROAD", "LOWESTOFT" ],
        "postalCode": "NR33 9LS"
      } ],
      "generalPractitioner": [ {
        "reference": "urn:uuid:053ba587-f21a-42cf-a78e-3218dd332bd2"
      } ]
    }
  }, {
    "fullUrl": "urn:uuid:053ba587-f21a-42cf-a78e-3218dd332bd2",
    "resource": {
      "resourceType": "Organization",
      "id": "053ba587-f21a-42cf-a78e-3218dd332bd2",
      "identifier": [ {
        "value": "Z10000"
      } ],
      "type": [ {
        "text": "GP Practice"
      } ],
      "name": "UNKNOWN"
    }
  }, {
    "fullUrl": "urn:uuid:d6d35f8b-0423-47d1-a325-5d6e711c7fc3",
    "resource": {
      "resourceType": "HealthcareService",
      "id": "d6d35f8b-0423-47d1-a325-5d6e711c7fc3",
      "active": true,
      "providedBy": {
        "reference": "urn:uuid:b7fa7342-ed6f-4710-9c7d-ebe74501bba1"
      },
      "location": [ {
        "reference": "urn:uuid:0577cbcb-c697-4b48-878b-ae55fa297b33"
      } ],
      "name": "Out of Hours GP Service (Waveney) - Kirkley Mill Health Centre, Lowestoft"
    }
  }, {
    "fullUrl": "urn:uuid:0577cbcb-c697-4b48-878b-ae55fa297b33",
    "resource": {
      "resourceType": "Location",
      "id": "0577cbcb-c697-4b48-878b-ae55fa297b33",
      "managingOrganization": {
        "reference": "urn:uuid:b7fa7342-ed6f-4710-9c7d-ebe74501bba1"
      }
    }
  }, {
    "fullUrl": "urn:uuid:b7fa7342-ed6f-4710-9c7d-ebe74501bba1",
    "resource": {
      "resourceType": "Organization",
      "id": "b7fa7342-ed6f-4710-9c7d-ebe74501bba1",
      "identifier": [ {
        "value": "NVE06"
      } ],
      "type": [ {
        "coding": [ {
          "code": "PRCP",
          "display": "Out of Hours GP Service (Waveney) - Kirkley Mill Health Centre, Lowestoft"
        } ]
      } ],
      "name": "Out of Hours GP Service (Waveney) - Kirkley Mill Health Centre, Lowestoft"
    }
  }, {
    "fullUrl": "urn:uuid:d98466f6-6206-4ebb-ae52-b5e5de89057e",
    "resource": {
      "resourceType": "ReferralRequest",
      "id": "d98466f6-6206-4ebb-ae52-b5e5de89057e",
      "status": "active",
      "intent": "plan",
      "priority": "routine",
      "subject": {
        "reference": "urn:uuid:57bf279a-48aa-4d59-a4a7-7932b00d3b7c"
      },
      "context": {
        "reference": "urn:uuid:13440ffb-2916-496e-8d2d-d7024daea9f9"
      },
      "occurrencePeriod": {
        "start": "2022-04-07T07:52:15+00:00",
        "end": "2022-04-07T08:52:15+00:00"
      },
      "authoredOn": "2021-05-11T08:53:28+00:00",
      "requester": {
        "agent": {
          "reference": "urn:uuid:33e1faf8-11ae-4319-8b49-266561ed63b6"
        },
        "onBehalfOf": {
          "reference": "urn:uuid:8ff8bd12-1f2a-48d6-afe6-3ac4d8f8654f"
        }
      },
      "recipient": [ {
        "reference": "urn:uuid:638c286d-5884-4b79-be07-d1058919e767"
      }, {
        "reference": "urn:uuid:d6d35f8b-0423-47d1-a325-5d6e711c7fc3"
      } ],
      "reasonReference": [ {
        "reference": "urn:uuid:9190b1c4-6f7a-41ee-b23e-adf5d1653140"
      } ],
      "supportingInfo": [ {
        "reference": "urn:uuid:08f66fed-c415-451d-b742-9a4f930814a1"
      } ]
    }
  }, {
    "fullUrl": "urn:uuid:08f66fed-c415-451d-b742-9a4f930814a1",
    "resource": {
      "resourceType": "ProcedureRequest",
      "id": "08f66fed-c415-451d-b742-9a4f930814a1",
      "status": "active",
      "intent": "plan",
      "priority": "routine",
      "doNotPerform": false,
      "code": {
        "coding": [ {
          "system": "2.16.840.1.113883.2.1.3.2.4.17.325",
          "code": "Dx06",
          "display": "To contact a local service within 6 hours"
        } ]
      },
      "subject": {
        "reference": "urn:uuid:57bf279a-48aa-4d59-a4a7-7932b00d3b7c"
      },
      "occurrencePeriod": {
        "start": "2022-04-07T07:52:15+00:00",
        "end": "2022-04-07T08:52:15+00:00"
      },
      "reasonReference": [ {
        "reference": "urn:uuid:9190b1c4-6f7a-41ee-b23e-adf5d1653140"
      } ]
    }
  }, {
    "fullUrl": "urn:uuid:638c286d-5884-4b79-be07-d1058919e767",
    "resource": {
      "resourceType": "Practitioner",
      "id": "638c286d-5884-4b79-be07-d1058919e767",
      "active": true,
      "telecom": [ {
        "system": "phone",
        "value": "tel:01233505450"
      } ],
      "address": [ {
        "type": "physical",
        "line": [ "Kingston House", "The Long Barrow", "Orbital Park", "Ashford", "Kent" ],
        "postalCode": "TN24 0GP"
      } ]
    }
  }, {
    "fullUrl": "urn:uuid:27e4b4e9-46db-499e-b5d2-419ee7d20eff",
    "resource": {
      "resourceType": "Composition",
      "id": "27e4b4e9-46db-499e-b5d2-419ee7d20eff",
      "identifier": {
        "use": "usual",
        "value": "192F7989-BE74-4F5C-AA94-FC0778DAC8AA"
      },
      "status": "final",
      "type": {
        "coding": [ {
          "system": "http://snomed.info/sct",
          "code": "371531000",
          "display": "Report of clinical encounter (record artifact)"
        } ]
      },
      "subject": {
        "reference": "urn:uuid:57bf279a-48aa-4d59-a4a7-7932b00d3b7c"
      },
      "encounter": {
        "reference": "urn:uuid:13440ffb-2916-496e-8d2d-d7024daea9f9"
      },
      "date": "2022-04-07T07:52:15+00:00",
      "author": [ {
        "reference": "urn:uuid:18b2141c-47a9-4664-9700-63d5f8bd9db3"
      } ],
      "title": "111 Report",
      "confidentiality": "R",
      "section": [ {
        "section": [ {
          "title": "Patient's Reported Condition",
          "text": {
            "status": "generated",
            "div": "<div xmlns=\"http://www.w3.org/1999/xhtml\">&lt;content&gt;&amp;lt;CLEO Ref: 2100310382&amp;gt; Test Call for DX06.\n                                                        &lt;br/&gt;\n                                                    &lt;/content&gt;</div>"
          }
        }, {
          "title": "Pathways Disposition",
          "text": {
            "status": "generated",
            "div": "<div xmlns=\"http://www.w3.org/1999/xhtml\">&lt;content&gt;The individual needs to contact a local service within 6 hours. (Dx06)&lt;/content&gt;\n                                                    &lt;br/&gt;\n                                                    &lt;br/&gt;\n                                                    &lt;content&gt;Selected Service: 1335970392, Out of Hours GP Service (Waveney) - Kirkley Mill Health Centre, Lowestoft, 111&lt;/content&gt;\n                                                    &lt;br/&gt;</div>"
          }
        }, {
          "title": "Consultation Summary",
          "text": {
            "status": "generated",
            "div": "<div xmlns=\"http://www.w3.org/1999/xhtml\">&lt;content&gt;\n                                                        &lt;content&gt;Constant pain for more than 4 hours&lt;/content&gt;\n                                                        &lt;br/&gt;\n                                                        &lt;content&gt;Warm to touch&lt;/content&gt;\n                                                        &lt;br/&gt;\n                                                        &lt;content&gt;Illness - Test&lt;/content&gt;\n                                                        &lt;br/&gt;\n                                                    &lt;/content&gt;</div>"
          }
        }, {
          "title": "Pathways Assessment",
          "text": {
            "status": "generated",
            "div": "<div xmlns=\"http://www.w3.org/1999/xhtml\">&lt;content&gt;An injury or health problem was the reason for the contact.&lt;/content&gt;\n                                                    &lt;br/&gt;\n                                                    &lt;content&gt;Heavy bleeding had not occurred in the previous 2 hours.&lt;/content&gt;\n                                                    &lt;br/&gt;\n                                                    &lt;content&gt;An illness or health problem was the main problem. - Test&lt;/content&gt;\n                                                    &lt;br/&gt;\n                                                    &lt;content&gt;The individual was not fighting for breath.&lt;/content&gt;\n                                                    &lt;br/&gt;\n                                                    &lt;content&gt;The main reason for the assessment was not an allergic reaction, heart attack, chest/upper back pain, probable stroke, recent fit/seizure or suicide attempt.&lt;/content&gt;\n                                                    &lt;br/&gt;\n                                                    &lt;content&gt;The main reason for contact was not new confusion, declared diabetic hypo/hyperglycaemia, or ICD shock.&lt;/content&gt;\n                                                    &lt;br/&gt;\n                                                    &lt;content&gt;The skin on the torso felt normal, warm or hot.&lt;/content&gt;\n                                                    &lt;br/&gt;\n                                                    &lt;content&gt;There was no vomiting, diarrhoea, rectal bleeding, groin pain or groin swelling.&lt;/content&gt;\n                                                    &lt;br/&gt;\n                                                    &lt;content&gt;There was no new genital pain or swelling.&lt;/content&gt;\n                                                    &lt;br/&gt;\n                                                    &lt;content&gt;The individual was able to carry out most or all normal activities.&lt;/content&gt;\n                                                    &lt;br/&gt;\n                                                    &lt;content&gt;There was no crushing or severe aching chest, upper back or upper abdominal pain, or pain going to the arm, neck, jaw or shoulder.&lt;/content&gt;\n                                                    &lt;br/&gt;\n                                                    &lt;content&gt;The individual had not ingested a harmful or toxic substance.&lt;/content&gt;\n                                                    &lt;br/&gt;\n                                                    &lt;content&gt;There had been no black and tarry or red/maroon bowel motions.&lt;/content&gt;\n                                                    &lt;br/&gt;\n                                                    &lt;content&gt;There was no new or worsening confusion.&lt;/content&gt;\n                                                    &lt;br/&gt;\n                                                    &lt;content&gt;Breathing harder or faster when doing nothing was not described.&lt;/content&gt;\n                                                    &lt;br/&gt;\n                                                    &lt;content&gt;There was no new shoulder tip pain or pain in the lower right abdomen.&lt;/content&gt;\n                                                    &lt;br/&gt;\n                                                    &lt;content&gt;The individual did not use anticoagulant medication or have a bleeding/clotting disorder.&lt;/content&gt;\n                                                    &lt;br/&gt;\n                                                    &lt;content&gt;There was constant pain for 4 hours or more.&lt;/content&gt;\n                                                    &lt;br/&gt;</div>"
          }
        }, {
          "title": "Advice Given",
          "text": {
            "status": "generated",
            "div": "<div xmlns=\"http://www.w3.org/1999/xhtml\">&lt;content&gt;Unless advised not to, paracetamol may be used to relieve pain or fever. Follow the instructions in the pack. If in doubt ask a pharmacist.&lt;/content&gt;\n                                                    &lt;br/&gt;\n                                                    &lt;content&gt;Don't use ibuprofen or any other anti-inflammatory medication until you have spoken to a healthcare professional.&lt;/content&gt;\n                                                    &lt;br/&gt;\n                                                    &lt;content&gt;If there are any new symptoms, or if the condition gets worse, changes or you have any other concerns, call us back.&lt;/content&gt;\n                                                    &lt;br/&gt;\n                                                    &lt;content&gt;Remember to take a list of any current medications if you go to the out of hours surgery.&lt;/content&gt;\n                                                    &lt;br/&gt;</div>"
          }
        }, {
          "title": "SCR Consent",
          "text": {
            "status": "generated",
            "div": "<div xmlns=\"http://www.w3.org/1999/xhtml\">&lt;content&gt;Consent given for SCR sharing\n                                                        &lt;br/&gt;\n                                                        &lt;br/&gt;\n                                                    &lt;/content&gt;</div>"
          }
        } ]
      }, {
        "title": "ReferralRequest",
        "entry": [ {
          "reference": "urn:uuid:d98466f6-6206-4ebb-ae52-b5e5de89057e"
        } ]
      } ]
    }
  }, {
    "fullUrl": "urn:uuid:3a8e59a9-7f27-47b2-a1d0-8326babc0536",
    "resource": {
      "resourceType": "Consent",
      "id": "3a8e59a9-7f27-47b2-a1d0-8326babc0536",
      "identifier": {
        "use": "usual",
        "value": "192F7989-BE74-4F5C-AA94-FC0778DAC8AA"
      },
      "status": "active",
      "patient": {
        "reference": "urn:uuid:57bf279a-48aa-4d59-a4a7-7932b00d3b7c"
      },
      "period": {
        "start": "2021-05-11T08:53:28+00:00"
      },
      "consentingParty": [ {
        "reference": "urn:uuid:57bf279a-48aa-4d59-a4a7-7932b00d3b7c"
      } ],
      "action": [ {
        "coding": [ {
          "system": "http://snomed.info/sct",
          "code": "425691002",
          "display": "Consent given for electronic record sharing"
        } ],
        "text": "Consent given for electronic record sharing"
      } ],
      "organization": [ {
        "reference": "urn:uuid:8ff8bd12-1f2a-48d6-afe6-3ac4d8f8654f"
      } ],
      "policyRule": "http://hl7.org/fhir/ConsentPolicy/opt-out",
      "data": [ {
        "meaning": "related",
        "reference": {
          "reference": "urn:uuid:13440ffb-2916-496e-8d2d-d7024daea9f9"
        }
      } ]
    }
  }, {
    "fullUrl": "urn:uuid:9190b1c4-6f7a-41ee-b23e-adf5d1653140",
    "resource": {
      "resourceType": "Condition",
      "id": "9190b1c4-6f7a-41ee-b23e-adf5d1653140",
      "clinicalStatus": "active",
      "verificationStatus": "unknown",
      "subject": {
        "reference": "urn:uuid:57bf279a-48aa-4d59-a4a7-7932b00d3b7c"
      },
      "context": {
        "reference": "urn:uuid:13440ffb-2916-496e-8d2d-d7024daea9f9"
      }
    }
  }, {
    "fullUrl": "urn:uuid:2d5e2c5f-bd08-42e9-ac63-ad6f65e3440a",
    "resource": {
      "resourceType": "Observation",
      "id": "2d5e2c5f-bd08-42e9-ac63-ad6f65e3440a",
      "status": "final",
      "code": {
        "coding": [ {
          "system": "http://snomed.info/sct",
          "code": "33962009",
          "display": "Presenting complaint"
        } ]
      },
      "subject": {
        "reference": "urn:uuid:57bf279a-48aa-4d59-a4a7-7932b00d3b7c"
      },
      "context": {
        "reference": "urn:uuid:13440ffb-2916-496e-8d2d-d7024daea9f9"
      },
      "valueString": "<CLEO Ref: 2100310382> Test Call for DX06.\n                                                        "
    }
  }, {
    "fullUrl": "urn:uuid:dbafbfdd-836e-4a07-b18a-1fb156f4dd1e",
    "resource": {
      "resourceType": "PractitionerRole",
      "id": "dbafbfdd-836e-4a07-b18a-1fb156f4dd1e",
      "practitioner": {
        "reference": "urn:uuid:18b2141c-47a9-4664-9700-63d5f8bd9db3"
      },
      "organization": {
        "reference": "urn:uuid:6303df94-733e-4122-86b0-710a30a15ad8"
      },
      "code": [ {
        "coding": [ {
          "system": "2.16.840.1.113883.2.1.3.2.4.17.196",
          "code": "NR1690",
          "display": "Call Operator"
        } ]
      } ]
    }
  }, {
    "fullUrl": "urn:uuid:6303df94-733e-4122-86b0-710a30a15ad8",
    "resource": {
      "resourceType": "Organization",
      "id": "6303df94-733e-4122-86b0-710a30a15ad8",
      "identifier": [ {
        "value": "NTN08"
      } ],
      "name": "Norfolk and Wisbech 111"
    }
  }, {
    "fullUrl": "urn:uuid:74bb0422-9124-4b77-9939-f4a28f4e0839",
    "resource": {
      "resourceType": "RelatedPerson",
      "id": "74bb0422-9124-4b77-9939-f4a28f4e0839",
      "patient": {
        "reference": "urn:uuid:57bf279a-48aa-4d59-a4a7-7932b00d3b7c"
      },
      "relationship": {
        "coding": [ {
          "system": "http://hl7.org/fhir/v2/0131",
          "code": "C",
          "display": "Emergency Contact"
        } ]
      },
      "telecom": [ {
        "system": "phone",
        "value": "tel:01233123123"
      } ]
    }
  }, {
    "fullUrl": "urn:uuid:33e1faf8-11ae-4319-8b49-266561ed63b6",
    "resource": {
      "resourceType": "Device",
      "id": "33e1faf8-11ae-4319-8b49-266561ed63b6",
      "model": "111 Adaptor",
      "version": "1.0.1"
    }
  }, {
    "fullUrl": "urn:uuid:34143fa5-efa2-4515-bf46-825e3750be2d",
    "resource": {
      "resourceType": "List",
      "id": "34143fa5-efa2-4515-bf46-825e3750be2d",
      "status": "current",
      "mode": "working",
      "title": "111 Report List",
      "code": {
        "coding": [ {
          "system": "http://snomed.info/sct",
          "code": "225390008",
          "display": "Triage"
        } ]
      },
      "subject": {
        "reference": "urn:uuid:57bf279a-48aa-4d59-a4a7-7932b00d3b7c"
      },
      "encounter": {
        "reference": "urn:uuid:13440ffb-2916-496e-8d2d-d7024daea9f9"
      },
      "date": "2022-04-07T07:52:15+00:00",
      "source": {
        "reference": "urn:uuid:33e1faf8-11ae-4319-8b49-266561ed63b6"
      },
      "orderedBy": {
        "coding": [ {
          "system": "http://hl7.org/fhir/list-order",
          "code": "event-date",
          "display": "Sorted by Event Date"
        } ]
      },
      "entry": [ {
        "item": {
          "reference": "urn:uuid:053ba587-f21a-42cf-a78e-3218dd332bd2"
        }
      }, {
        "item": {
          "reference": "urn:uuid:2d5e2c5f-bd08-42e9-ac63-ad6f65e3440a"
        }
      }, {
        "item": {
          "reference": "urn:uuid:18b2141c-47a9-4664-9700-63d5f8bd9db3"
        }
      }, {
        "item": {
          "reference": "urn:uuid:9190b1c4-6f7a-41ee-b23e-adf5d1653140"
        }
      }, {
        "item": {
          "reference": "urn:uuid:74bb0422-9124-4b77-9939-f4a28f4e0839"
        }
      }, {
        "item": {
          "reference": "urn:uuid:87395c7b-618a-4e45-8fa2-2dadb71779d1"
        }
      }, {
        "item": {
          "reference": "urn:uuid:638c286d-5884-4b79-be07-d1058919e767"
        }
      }, {
        "item": {
          "reference": "urn:uuid:6303df94-733e-4122-86b0-710a30a15ad8"
        }
      }, {
        "item": {
          "reference": "urn:uuid:8ff8bd12-1f2a-48d6-afe6-3ac4d8f8654f"
        }
      }, {
        "item": {
          "reference": "urn:uuid:040f5a74-914f-4b1c-8aaf-91cccbff1dfd"
        }
      }, {
        "item": {
          "reference": "urn:uuid:b7fa7342-ed6f-4710-9c7d-ebe74501bba1"
        }
      }, {
        "item": {
          "reference": "urn:uuid:d98466f6-6206-4ebb-ae52-b5e5de89057e"
        }
      } ]
    }
  } ]
}