{
  "resourceType": "Bundle",
  "identifier": {
    "type": {
      "text": "ClinicalDocument VersionNumber"
    },
    "value": "1"
  },
  "type": "message",
  "entry": [ {
    "fullUrl": "urn:uuid:4A4DE551-F585-49BB-A1D3-12DCC764AF52",
    "resource": {
      "resourceType": "MessageHeader",
      "id": "4A4DE551-F585-49BB-A1D3-12DCC764AF52",
      "event": {
        "system": "https://fhir.nhs.uk/STU3/CodeSystem/EventType-1",
        "code": "referral-1",
        "display": "Referral"
      },
      "destination": [ {
        "endpoint": "urn:nhs-uk:addressing:ods:NVE06:DOSServiceID:1335970392"
      } ],
      "timestamp": "2021-05-11T08:58:52.000+00:00",
      "source": {
        "name": "NHS 111 Adaptor",
        "endpoint": "http://localhost:8080/report"
      },
      "reason": {
        "coding": [ {
          "system": "urn:nhs-itk:ns:201005:interaction",
          "code": "urn:nhs-itk:interaction:primaryOutofHourRecipientNHS111CDADocument-v2-0"
        } ]
      }
    }
  }, {
    "fullUrl": "urn:uuid:556726fe-f286-4ccf-aa27-cf6c559243dc",
    "resource": {
      "resourceType": "Encounter",
      "id": "556726fe-f286-4ccf-aa27-cf6c559243dc",
      "identifier": [ {
        "system": "2.16.840.1.113883.2.1.3.2.4.18.34",
        "value": "D21E3785-658E-4B35-A8B2-2E59906B8983"
      }, {
        "system": "2.16.840.1.113883.2.1.3.2.4.18.35",
        "value": "2100310384"
      } ],
      "status": "finished",
      "type": [ {
        "text": "111 Encounter Referral"
      } ],
      "subject": {
        "reference": "urn:uuid:345a52ba-7ddb-4235-a83e-f1e822da6de3"
      },
      "participant": [ {
        "type": [ {
          "coding": [ {
            "system": "http://hl7.org/fhir/ValueSet/encounter-participant-type",
            "code": "PPRF",
            "display": "Author"
          } ]
        } ],
        "individual": {
          "reference": "urn:uuid:46a8bf60-789a-4c5c-9bce-f75a88e1eb99"
        }
      }, {
        "type": [ {
          "text": "Informant"
        } ],
        "individual": {
          "reference": "urn:uuid:9d7f1577-0644-4a84-993e-b4d8286d3192"
        }
      } ],
      "period": {
        "start": "2021-05-11T08:58:52+00:00"
      },
      "location": [ {
        "location": {
          "reference": "urn:uuid:a68d2ccc-56d7-4e6c-9127-2a2a091574e3"
        },
        "status": "active"
      }, {
        "location": {
          "reference": "urn:uuid:5bd58fa1-50e6-4f63-91a5-013c9d83e784"
        },
        "status": "completed"
      } ],
      "serviceProvider": {
        "reference": "urn:uuid:c7079651-290d-4bca-aca2-59b440dde7df"
      }
    }
  }, {
    "fullUrl": "urn:uuid:c7079651-290d-4bca-aca2-59b440dde7df",
    "resource": {
      "resourceType": "Organization",
      "id": "c7079651-290d-4bca-aca2-59b440dde7df",
      "active": true,
      "type": [ {
        "text": "CST"
      } ],
      "name": "Norfolk and Wisbech 111"
    }
  }, {
    "fullUrl": "urn:uuid:46a8bf60-789a-4c5c-9bce-f75a88e1eb99",
    "resource": {
      "resourceType": "Practitioner",
      "id": "46a8bf60-789a-4c5c-9bce-f75a88e1eb99",
      "active": true,
      "name": [ {
        "text": "Ben Smythson"
      } ]
    }
  }, {
    "fullUrl": "urn:uuid:9d7f1577-0644-4a84-993e-b4d8286d3192",
    "resource": {
      "resourceType": "RelatedPerson",
      "id": "9d7f1577-0644-4a84-993e-b4d8286d3192",
      "active": true,
      "patient": {
        "reference": "urn:uuid:345a52ba-7ddb-4235-a83e-f1e822da6de3"
      },
      "relationship": {
        "coding": [ {
          "system": "2.16.840.1.113883.2.1.3.2.4.16.45",
          "code": "21",
          "display": "Self"
        }, {
          "system": "http://hl7.org/fhir/v2/0131",
          "code": "C",
          "display": "Emergency Contact"
        } ]
      },
      "name": [ {
        "text": "Test Call TEST CALL DX07"
      } ],
      "telecom": [ {
        "system": "phone",
        "value": "tel:01233123123"
      } ],
      "gender": "unknown"
    }
  }, {
    "fullUrl": "urn:uuid:a68d2ccc-56d7-4e6c-9127-2a2a091574e3",
    "resource": {
      "resourceType": "Location",
      "id": "a68d2ccc-56d7-4e6c-9127-2a2a091574e3",
      "managingOrganization": {
        "reference": "urn:uuid:d09e75d7-95e4-49e6-a858-b7dab106c5e5"
      }
    }
  }, {
    "fullUrl": "urn:uuid:d09e75d7-95e4-49e6-a858-b7dab106c5e5",
    "resource": {
      "resourceType": "Organization",
      "id": "d09e75d7-95e4-49e6-a858-b7dab106c5e5",
      "identifier": [ {
        "value": "Z10000"
      } ],
      "type": [ {
        "text": "GP Practice"
      } ],
      "name": "UNKNOWN"
    }
  }, {
    "fullUrl": "urn:uuid:5bd58fa1-50e6-4f63-91a5-013c9d83e784",
    "resource": {
      "resourceType": "Location",
      "id": "5bd58fa1-50e6-4f63-91a5-013c9d83e784",
      "address": {
        "type": "physical",
        "line": [ "313 VICTORIA ROAD", "LOWESTOFT" ],
        "postalCode": "NR33 9LS"
      }
    }
  }, {
    "fullUrl": "urn:uuid:345a52ba-7ddb-4235-a83e-f1e822da6de3",
    "resource": {
      "resourceType": "Patient",
      "id": "345a52ba-7ddb-4235-a83e-f1e822da6de3",
      "language": "en",
      "active": true,
      "name": [ {
        "use": "official",
        "family": "TEST CALL DX07",
        "given": [ "Test Call" ]
      } ],
      "telecom": [ {
        "system": "phone",
        "value": "tel:01233123123"
      } ],
      "gender": "male",
      "birthDate": "1996-03-25",
      "address": [ {
        "use": "home",
        "line": [ "313 VICTORIA ROAD", "LOWESTOFT" ],
        "postalCode": "NR33 9LS"
      }, {
        "type": "physical",
        "line": [ "313 VICTORIA ROAD", "LOWESTOFT" ],
        "postalCode": "NR33 9LS"
      } ],
      "generalPractitioner": [ {
        "reference": "urn:uuid:4d04c608-85f0-4c96-9b06-78ba5bd3ecc6"
      } ]
    }
  }, {
    "fullUrl": "urn:uuid:4d04c608-85f0-4c96-9b06-78ba5bd3ecc6",
    "resource": {
      "resourceType": "Organization",
      "id": "4d04c608-85f0-4c96-9b06-78ba5bd3ecc6",
      "identifier": [ {
        "value": "Z10000"
      } ],
      "type": [ {
        "text": "GP Practice"
      } ],
      "name": "UNKNOWN"
    }
  }, {
    "fullUrl": "urn:uuid:e551cf15-6027-451f-9b58-f6b514c3978f",
    "resource": {
      "resourceType": "HealthcareService",
      "id": "e551cf15-6027-451f-9b58-f6b514c3978f",
      "active": true,
      "providedBy": {
        "reference": "urn:uuid:09ad17cf-7fa3-408e-94f9-835cc1a04f61"
      },
      "location": [ {
        "reference": "urn:uuid:a9a181d0-dee5-4a3f-bfa9-66a9ebf865d9"
      } ],
      "name": "Out of Hours GP Service (Waveney) - Kirkley Mill Health Centre, Lowestoft"
    }
  }, {
    "fullUrl": "urn:uuid:a9a181d0-dee5-4a3f-bfa9-66a9ebf865d9",
    "resource": {
      "resourceType": "Location",
      "id": "a9a181d0-dee5-4a3f-bfa9-66a9ebf865d9",
      "managingOrganization": {
        "reference": "urn:uuid:09ad17cf-7fa3-408e-94f9-835cc1a04f61"
      }
    }
  }, {
    "fullUrl": "urn:uuid:09ad17cf-7fa3-408e-94f9-835cc1a04f61",
    "resource": {
      "resourceType": "Organization",
      "id": "09ad17cf-7fa3-408e-94f9-835cc1a04f61",
      "identifier": [ {
        "value": "NVE06"
      } ],
      "type": [ {
        "coding": [ {
          "code": "PRCP",
          "display": "Out of Hours GP Service (Waveney) - Kirkley Mill Health Centre, Lowestoft"
        } ]
      } ],
      "name": "Out of Hours GP Service (Waveney) - Kirkley Mill Health Centre, Lowestoft"
    }
  }, {
    "fullUrl": "urn:uuid:3d2f3f24-3b8c-47e9-b126-54102ecee50c",
    "resource": {
      "resourceType": "ReferralRequest",
      "id": "3d2f3f24-3b8c-47e9-b126-54102ecee50c",
      "status": "active",
      "intent": "plan",
      "priority": "routine",
      "subject": {
        "reference": "urn:uuid:345a52ba-7ddb-4235-a83e-f1e822da6de3"
      },
      "context": {
        "reference": "urn:uuid:556726fe-f286-4ccf-aa27-cf6c559243dc"
      },
      "occurrencePeriod": {
        "start": "2021-09-29T10:03:14+00:00",
        "end": "2021-09-29T11:03:14+00:00"
      },
      "authoredOn": "2021-05-11T08:58:52+00:00",
      "requester": {
        "agent": {
          "reference": "urn:uuid:c40c7da8-8ab9-400d-8774-94ceae20742e"
        },
        "onBehalfOf": {
          "reference": "urn:uuid:c7079651-290d-4bca-aca2-59b440dde7df"
        }
      },
      "recipient": [ {
        "reference": "urn:uuid:7c6a2585-ee96-4e3f-90cb-5742372c3bc6"
      }, {
        "reference": "urn:uuid:e551cf15-6027-451f-9b58-f6b514c3978f"
      } ],
      "reasonReference": [ {
        "reference": "urn:uuid:6173001b-3669-4f45-8dab-593cbf3379e8"
      } ],
      "supportingInfo": [ {
        "reference": "urn:uuid:2e13991d-d734-411e-98f1-ee693c970b6a"
      } ]
    }
  }, {
    "fullUrl": "urn:uuid:2e13991d-d734-411e-98f1-ee693c970b6a",
    "resource": {
      "resourceType": "ProcedureRequest",
      "id": "2e13991d-d734-411e-98f1-ee693c970b6a",
      "status": "active",
      "intent": "plan",
      "priority": "routine",
      "doNotPerform": false,
      "code": {
        "coding": [ {
          "system": "2.16.840.1.113883.2.1.3.2.4.17.325",
          "code": "Dx07",
          "display": "To contact a local service within 12 hours"
        } ]
      },
      "subject": {
        "reference": "urn:uuid:345a52ba-7ddb-4235-a83e-f1e822da6de3"
      },
      "occurrencePeriod": {
        "start": "2021-09-29T10:03:14+00:00",
        "end": "2021-09-29T11:03:14+00:00"
      },
      "reasonReference": [ {
        "reference": "urn:uuid:6173001b-3669-4f45-8dab-593cbf3379e8"
      } ]
    }
  }, {
    "fullUrl": "urn:uuid:7c6a2585-ee96-4e3f-90cb-5742372c3bc6",
    "resource": {
      "resourceType": "Practitioner",
      "id": "7c6a2585-ee96-4e3f-90cb-5742372c3bc6",
      "active": true,
      "telecom": [ {
        "system": "phone",
        "value": "tel:01233505450"
      } ],
      "address": [ {
        "type": "physical",
        "line": [ "Kingston House", "The Long Barrow", "Orbital Park", "Ashford", "Kent" ],
        "postalCode": "TN24 0GP"
      } ]
    }
  }, {
    "fullUrl": "urn:uuid:4b14b9d4-224d-4c58-ac2e-b68fa2892424",
    "resource": {
      "resourceType": "Composition",
      "id": "4b14b9d4-224d-4c58-ac2e-b68fa2892424",
      "identifier": {
        "use": "usual",
        "value": "B172BCF7-DD1C-4508-B781-6BE68ABD1F79"
      },
      "status": "final",
      "type": {
        "coding": [ {
          "system": "http://snomed.info/sct",
          "code": "371531000",
          "display": "Report of clinical encounter (record artifact)"
        } ]
      },
      "subject": {
        "reference": "urn:uuid:345a52ba-7ddb-4235-a83e-f1e822da6de3"
      },
      "encounter": {
        "reference": "urn:uuid:556726fe-f286-4ccf-aa27-cf6c559243dc"
      },
      "date": "2021-09-29T10:03:14+00:00",
      "author": [ {
        "reference": "urn:uuid:46a8bf60-789a-4c5c-9bce-f75a88e1eb99"
      } ],
      "title": "111 Report",
      "confidentiality": "R",
      "section": [ {
        "section": [ {
          "title": "Patient's Reported Condition",
          "text": {
            "status": "generated",
            "div": "<div xmlns=\"http://www.w3.org/1999/xhtml\">&lt;content&gt;&amp;lt;CLEO Ref: 2100310384&amp;gt; Test Call for Dx07.\n                                                        &lt;br/&gt;\n                                                    &lt;/content&gt;</div>"
          }
        }, {
          "title": "Pathways Disposition",
          "text": {
            "status": "generated",
            "div": "<div xmlns=\"http://www.w3.org/1999/xhtml\">&lt;content&gt;The individual needs to contact a local service within 12 hours. (Dx07)&lt;/content&gt;\n                                                    &lt;br/&gt;\n                                                    &lt;br/&gt;\n                                                    &lt;content&gt;Selected Service: 1335970392, Out of Hours GP Service (Waveney) - Kirkley Mill Health Centre, Lowestoft, 111&lt;/content&gt;\n                                                    &lt;br/&gt;</div>"
          }
        }, {
          "title": "Consultation Summary",
          "text": {
            "status": "generated",
            "div": "<div xmlns=\"http://www.w3.org/1999/xhtml\">&lt;content&gt;\n                                                        &lt;content&gt;Excessive thirst in last 4 weeks&lt;/content&gt;\n                                                        &lt;br/&gt;\n                                                        &lt;content&gt;Warm to touch&lt;/content&gt;\n                                                        &lt;br/&gt;\n                                                        &lt;content&gt;Illness - Test&lt;/content&gt;\n                                                        &lt;br/&gt;\n                                                    &lt;/content&gt;</div>"
          }
        }, {
          "title": "Pathways Assessment",
          "text": {
            "status": "generated",
            "div": "<div xmlns=\"http://www.w3.org/1999/xhtml\">&lt;content&gt;An injury or health problem was the reason for the contact.&lt;/content&gt;\n                                                    &lt;br/&gt;\n                                                    &lt;content&gt;Heavy bleeding had not occurred in the previous 2 hours.&lt;/content&gt;\n                                                    &lt;br/&gt;\n                                                    &lt;content&gt;An illness or health problem was the main problem. - Test&lt;/content&gt;\n                                                    &lt;br/&gt;\n                                                    &lt;content&gt;The individual was not fighting for breath.&lt;/content&gt;\n                                                    &lt;br/&gt;\n                                                    &lt;content&gt;The main reason for the assessment was not an allergic reaction, heart attack, chest/upper back pain, probable stroke, recent fit/seizure or suicide attempt.&lt;/content&gt;\n                                                    &lt;br/&gt;\n                                                    &lt;content&gt;The main reason for contact was not new confusion, declared diabetic hypo/hyperglycaemia, or ICD shock.&lt;/content&gt;\n                                                    &lt;br/&gt;\n                                                    &lt;content&gt;The skin on the torso felt normal, warm or hot.&lt;/content&gt;\n                                                    &lt;br/&gt;\n                                                    &lt;content&gt;There was no vomiting, diarrhoea, rectal bleeding, groin pain or groin swelling.&lt;/content&gt;\n                                                    &lt;br/&gt;\n                                                    &lt;content&gt;There was no new genital pain or swelling.&lt;/content&gt;\n                                                    &lt;br/&gt;\n                                                    &lt;content&gt;The individual was able to carry out most or all normal activities.&lt;/content&gt;\n                                                    &lt;br/&gt;\n                                                    &lt;content&gt;There was no crushing or severe aching chest, upper back or upper abdominal pain, or pain going to the arm, neck, jaw or shoulder.&lt;/content&gt;\n                                                    &lt;br/&gt;\n                                                    &lt;content&gt;The individual had not ingested a harmful or toxic substance.&lt;/content&gt;\n                                                    &lt;br/&gt;\n                                                    &lt;content&gt;There had been no black and tarry or red/maroon bowel motions.&lt;/content&gt;\n                                                    &lt;br/&gt;\n                                                    &lt;content&gt;There was no new or worsening confusion.&lt;/content&gt;\n                                                    &lt;br/&gt;\n                                                    &lt;content&gt;Breathing harder or faster when doing nothing was not described.&lt;/content&gt;\n                                                    &lt;br/&gt;\n                                                    &lt;content&gt;There was no new shoulder tip pain or pain in the lower right abdomen.&lt;/content&gt;\n                                                    &lt;br/&gt;\n                                                    &lt;content&gt;The individual did not use anticoagulant medication or have a bleeding/clotting disorder.&lt;/content&gt;\n                                                    &lt;br/&gt;\n                                                    &lt;content&gt;The individual had not been in constant pain for 4 hours or more.&lt;/content&gt;\n                                                    &lt;br/&gt;\n                                                    &lt;content&gt;The individual was not jaundiced.&lt;/content&gt;\n                                                    &lt;br/&gt;\n                                                    &lt;content&gt;The individual had experienced extreme thirst during the previous 4 weeks.&lt;/content&gt;\n                                                    &lt;br/&gt;</div>"
          }
        }, {
          "title": "Advice Given",
          "text": {
            "status": "generated",
            "div": "<div xmlns=\"http://www.w3.org/1999/xhtml\">&lt;content&gt;Unless advised not to, paracetamol may be used to relieve pain or fever. Follow the instructions in the pack. If in doubt ask a pharmacist.&lt;/content&gt;\n                                                    &lt;br/&gt;\n                                                    &lt;content&gt;Don't use ibuprofen or any other anti-inflammatory medication until you have spoken to a healthcare professional.&lt;/content&gt;\n                                                    &lt;br/&gt;\n                                                    &lt;content&gt;If there are any new symptoms, or if the condition gets worse, changes or you have any other concerns, call us back.&lt;/content&gt;\n                                                    &lt;br/&gt;\n                                                    &lt;content&gt;Remember to take a list of any current medications if you go to the out of hours surgery.&lt;/content&gt;\n                                                    &lt;br/&gt;</div>"
          }
        }, {
          "title": "SCR Consent",
          "text": {
            "status": "generated",
            "div": "<div xmlns=\"http://www.w3.org/1999/xhtml\">&lt;content&gt;Consent given for SCR sharing\n                                                        &lt;br/&gt;\n                                                        &lt;br/&gt;\n                                                    &lt;/content&gt;</div>"
          }
        } ]
      }, {
        "title": "ReferralRequest",
        "entry": [ {
          "reference": "urn:uuid:3d2f3f24-3b8c-47e9-b126-54102ecee50c"
        } ]
      } ]
    }
  }, {
    "fullUrl": "urn:uuid:8b448986-a6ce-4c32-857d-dd958f3a7749",
    "resource": {
      "resourceType": "Consent",
      "id": "8b448986-a6ce-4c32-857d-dd958f3a7749",
      "identifier": {
        "use": "usual",
        "value": "B172BCF7-DD1C-4508-B781-6BE68ABD1F79"
      },
      "status": "active",
      "patient": {
        "reference": "urn:uuid:345a52ba-7ddb-4235-a83e-f1e822da6de3"
      },
      "period": {
        "start": "2021-05-11T08:58:52+00:00"
      },
      "consentingParty": [ {
        "reference": "urn:uuid:345a52ba-7ddb-4235-a83e-f1e822da6de3"
      } ],
      "action": [ {
        "coding": [ {
          "system": "http://snomed.info/sct",
          "code": "425691002",
          "display": "Consent given for electronic record sharing"
        } ],
        "text": "Consent given for electronic record sharing"
      } ],
      "organization": [ {
        "reference": "urn:uuid:c7079651-290d-4bca-aca2-59b440dde7df"
      } ],
      "policyRule": "http://hl7.org/fhir/ConsentPolicy/opt-out",
      "data": [ {
        "meaning": "related",
        "reference": {
          "reference": "urn:uuid:556726fe-f286-4ccf-aa27-cf6c559243dc"
        }
      } ]
    }
  }, {
    "fullUrl": "urn:uuid:6173001b-3669-4f45-8dab-593cbf3379e8",
    "resource": {
      "resourceType": "Condition",
      "id": "6173001b-3669-4f45-8dab-593cbf3379e8",
      "clinicalStatus": "active",
      "verificationStatus": "unknown",
      "subject": {
        "reference": "urn:uuid:345a52ba-7ddb-4235-a83e-f1e822da6de3"
      },
      "context": {
        "reference": "urn:uuid:556726fe-f286-4ccf-aa27-cf6c559243dc"
      }
    }
  }, {
    "fullUrl": "urn:uuid:bedaf2ad-8b7a-40db-847d-ff30040c2230",
    "resource": {
      "resourceType": "Observation",
      "id": "bedaf2ad-8b7a-40db-847d-ff30040c2230",
      "status": "final",
      "code": {
        "coding": [ {
          "system": "http://snomed.info/sct",
          "code": "33962009",
          "display": "Presenting complaint"
        } ]
      },
      "subject": {
        "reference": "urn:uuid:345a52ba-7ddb-4235-a83e-f1e822da6de3"
      },
      "context": {
        "reference": "urn:uuid:556726fe-f286-4ccf-aa27-cf6c559243dc"
      },
      "valueString": "<CLEO Ref: 2100310384> Test Call for Dx07.\n                                                        "
    }
  }, {
    "fullUrl": "urn:uuid:f6e262c6-d074-4336-ac9f-f188990a8fae",
    "resource": {
      "resourceType": "PractitionerRole",
      "id": "f6e262c6-d074-4336-ac9f-f188990a8fae",
      "practitioner": {
        "reference": "urn:uuid:46a8bf60-789a-4c5c-9bce-f75a88e1eb99"
      },
      "organization": {
        "reference": "urn:uuid:39b8fd69-cd3b-43ca-9f2a-731e39a1cf5d"
      },
      "code": [ {
        "coding": [ {
          "system": "2.16.840.1.113883.2.1.3.2.4.17.196",
          "code": "NR1690",
          "display": "Call Operator"
        } ]
      } ]
    }
  }, {
    "fullUrl": "urn:uuid:39b8fd69-cd3b-43ca-9f2a-731e39a1cf5d",
    "resource": {
      "resourceType": "Organization",
      "id": "39b8fd69-cd3b-43ca-9f2a-731e39a1cf5d",
      "identifier": [ {
        "value": "NTN08"
      } ],
      "name": "Norfolk and Wisbech 111"
    }
  }, {
    "fullUrl": "urn:uuid:1d149863-96e9-42ce-9ca6-4eede78fdf2f",
    "resource": {
      "resourceType": "RelatedPerson",
      "id": "1d149863-96e9-42ce-9ca6-4eede78fdf2f",
      "patient": {
        "reference": "urn:uuid:345a52ba-7ddb-4235-a83e-f1e822da6de3"
      },
      "relationship": {
        "coding": [ {
          "system": "http://hl7.org/fhir/v2/0131",
          "code": "C",
          "display": "Emergency Contact"
        } ]
      },
      "telecom": [ {
        "system": "phone",
        "value": "tel:01233123123"
      } ]
    }
  }, {
    "fullUrl": "urn:uuid:c40c7da8-8ab9-400d-8774-94ceae20742e",
    "resource": {
      "resourceType": "Device",
      "id": "c40c7da8-8ab9-400d-8774-94ceae20742e",
      "model": "111 Adaptor",
      "version": "0.9.0"
    }
  }, {
    "fullUrl": "urn:uuid:c60ff7d3-6559-436b-9b52-cb40f982c24d",
    "resource": {
      "resourceType": "List",
      "id": "c60ff7d3-6559-436b-9b52-cb40f982c24d",
      "status": "current",
      "mode": "working",
      "title": "111 Report List",
      "code": {
        "coding": [ {
          "system": "http://snomed.info/sct",
          "code": "225390008",
          "display": "Triage"
        } ]
      },
      "subject": {
        "reference": "urn:uuid:345a52ba-7ddb-4235-a83e-f1e822da6de3"
      },
      "encounter": {
        "reference": "urn:uuid:556726fe-f286-4ccf-aa27-cf6c559243dc"
      },
      "date": "2021-09-29T10:03:14+00:00",
      "source": {
        "reference": "urn:uuid:c40c7da8-8ab9-400d-8774-94ceae20742e"
      },
      "orderedBy": {
        "coding": [ {
          "system": "http://hl7.org/fhir/list-order",
          "code": "event-date",
          "display": "Sorted by Event Date"
        } ]
      },
      "entry": [ {
        "item": {
          "reference": "urn:uuid:39b8fd69-cd3b-43ca-9f2a-731e39a1cf5d"
        }
      }, {
        "item": {
          "reference": "urn:uuid:09ad17cf-7fa3-408e-94f9-835cc1a04f61"
        }
      }, {
        "item": {
          "reference": "urn:uuid:46a8bf60-789a-4c5c-9bce-f75a88e1eb99"
        }
      }, {
        "item": {
          "reference": "urn:uuid:7c6a2585-ee96-4e3f-90cb-5742372c3bc6"
        }
      }, {
        "item": {
          "reference": "urn:uuid:c7079651-290d-4bca-aca2-59b440dde7df"
        }
      }, {
        "item": {
          "reference": "urn:uuid:4d04c608-85f0-4c96-9b06-78ba5bd3ecc6"
        }
      }, {
        "item": {
          "reference": "urn:uuid:d09e75d7-95e4-49e6-a858-b7dab106c5e5"
        }
      }, {
        "item": {
          "reference": "urn:uuid:bedaf2ad-8b7a-40db-847d-ff30040c2230"
        }
      }, {
        "item": {
          "reference": "urn:uuid:1d149863-96e9-42ce-9ca6-4eede78fdf2f"
        }
      }, {
        "item": {
          "reference": "urn:uuid:9d7f1577-0644-4a84-993e-b4d8286d3192"
        }
      }, {
        "item": {
          "reference": "urn:uuid:6173001b-3669-4f45-8dab-593cbf3379e8"
        }
      }, {
        "item": {
          "reference": "urn:uuid:3d2f3f24-3b8c-47e9-b126-54102ecee50c"
        }
      } ]
    }
  } ]
}