{
  "resourceType": "Bundle",
  "identifier": {
    "type": {
      "text": "ClinicalDocument VersionNumber"
    },
    "value": "1"
  },
  "type": "message",
  "entry": [ {
    "fullUrl": "urn:uuid:4A4DE551-F585-49BB-A1D3-12DCC764AF52",
    "resource": {
      "resourceType": "MessageHeader",
      "id": "4A4DE551-F585-49BB-A1D3-12DCC764AF52",
      "event": {
        "system": "https://fhir.nhs.uk/STU3/CodeSystem/EventType-1",
        "code": "referral-1",
        "display": "Referral"
      },
      "destination": [ {
        "endpoint": "urn:nhs-uk:addressing:ods:NVE06:DOSServiceID:1335970392"
      } ],
      "timestamp": "2021-05-11T08:58:52.000+00:00",
      "source": {
        "name": "NHS 111 Adaptor",
        "endpoint": "http://localhost:8080/report"
      },
      "reason": {
        "coding": [ {
          "system": "urn:nhs-itk:ns:201005:interaction",
          "code": "urn:nhs-itk:interaction:primaryOutofHourRecipientNHS111CDADocument-v2-0"
        } ]
      }
    }
  }, {
    "fullUrl": "urn:uuid:02b8c3c2-5351-4204-bf00-aeb8fb1386dd",
    "resource": {
      "resourceType": "Encounter",
      "id": "02b8c3c2-5351-4204-bf00-aeb8fb1386dd",
      "identifier": [ {
        "system": "2.16.840.1.113883.2.1.3.2.4.18.34",
        "value": "D21E3785-658E-4B35-A8B2-2E59906B8983"
      }, {
        "system": "2.16.840.1.113883.2.1.3.2.4.18.35",
        "value": "2100310384"
      } ],
      "status": "finished",
      "type": [ {
        "text": "111 Encounter Referral"
      } ],
      "subject": {
        "reference": "urn:uuid:14cb57e7-8a42-4257-8b87-8072656af37e"
      },
      "participant": [ {
        "type": [ {
          "coding": [ {
            "system": "http://hl7.org/fhir/ValueSet/encounter-participant-type",
            "code": "PPRF",
            "display": "Author"
          } ]
        } ],
        "individual": {
          "reference": "urn:uuid:0aad1565-ac57-4904-a864-990854932805"
        }
      }, {
        "type": [ {
          "text": "Informant"
        } ],
        "individual": {
          "reference": "urn:uuid:24aae2bc-8868-4348-aa01-a9facbd91185"
        }
      } ],
      "period": {
        "start": "2021-05-11T08:58:52+00:00"
      },
      "location": [ {
        "location": {
          "reference": "urn:uuid:99ba66f0-8704-4913-9c9c-c552b7b41bca"
        },
        "status": "active"
      }, {
        "location": {
          "reference": "urn:uuid:0645d862-52e4-4a73-86d8-7da1acd3d0cf"
        },
        "status": "completed"
      } ],
      "serviceProvider": {
        "reference": "urn:uuid:8d89225d-45e3-4941-8146-b65405dddc20"
      }
    }
  }, {
    "fullUrl": "urn:uuid:8d89225d-45e3-4941-8146-b65405dddc20",
    "resource": {
      "resourceType": "Organization",
      "id": "8d89225d-45e3-4941-8146-b65405dddc20",
      "active": true,
      "type": [ {
        "text": "CST"
      } ],
      "name": "Norfolk and Wisbech 111"
    }
  }, {
    "fullUrl": "urn:uuid:0aad1565-ac57-4904-a864-990854932805",
    "resource": {
      "resourceType": "Practitioner",
      "id": "0aad1565-ac57-4904-a864-990854932805",
      "active": true,
      "name": [ {
        "text": "Ben Smythson"
      } ]
    }
  }, {
    "fullUrl": "urn:uuid:24aae2bc-8868-4348-aa01-a9facbd91185",
    "resource": {
      "resourceType": "RelatedPerson",
      "id": "24aae2bc-8868-4348-aa01-a9facbd91185",
      "active": true,
      "patient": {
        "reference": "urn:uuid:14cb57e7-8a42-4257-8b87-8072656af37e"
      },
      "relationship": {
        "coding": [ {
          "system": "2.16.840.1.113883.2.1.3.2.4.16.45",
          "code": "21",
          "display": "Self"
        }, {
          "system": "http://hl7.org/fhir/v2/0131",
          "code": "C",
          "display": "Emergency Contact"
        } ]
      },
      "name": [ {
        "text": "Test Call TEST CALL DX07"
      } ],
      "telecom": [ {
        "system": "phone",
        "value": "tel:01233123123"
      } ],
      "gender": "unknown"
    }
  }, {
    "fullUrl": "urn:uuid:99ba66f0-8704-4913-9c9c-c552b7b41bca",
    "resource": {
      "resourceType": "Location",
      "id": "99ba66f0-8704-4913-9c9c-c552b7b41bca",
      "managingOrganization": {
        "reference": "urn:uuid:f82f05ec-edc4-49a8-bc29-eab96b1b9a84"
      }
    }
  }, {
    "fullUrl": "urn:uuid:f82f05ec-edc4-49a8-bc29-eab96b1b9a84",
    "resource": {
      "resourceType": "Organization",
      "id": "f82f05ec-edc4-49a8-bc29-eab96b1b9a84",
      "identifier": [ {
        "value": "Z10000"
      } ],
      "type": [ {
        "text": "GP Practice"
      } ],
      "name": "UNKNOWN"
    }
  }, {
    "fullUrl": "urn:uuid:0645d862-52e4-4a73-86d8-7da1acd3d0cf",
    "resource": {
      "resourceType": "Location",
      "id": "0645d862-52e4-4a73-86d8-7da1acd3d0cf",
      "address": {
        "type": "physical",
        "line": [ "313 VICTORIA ROAD", "LOWESTOFT" ],
        "postalCode": "NR33 9LS"
      }
    }
  }, {
    "fullUrl": "urn:uuid:14cb57e7-8a42-4257-8b87-8072656af37e",
    "resource": {
      "resourceType": "Patient",
      "id": "14cb57e7-8a42-4257-8b87-8072656af37e",
      "language": "en",
      "active": true,
      "name": [ {
        "use": "official",
        "family": "TEST CALL DX07",
        "given": [ "Test Call" ]
      } ],
      "telecom": [ {
        "system": "phone",
        "value": "tel:01233123123"
      } ],
      "gender": "male",
      "birthDate": "1996-03-25",
      "address": [ {
        "use": "home",
        "line": [ "313 VICTORIA ROAD", "LOWESTOFT" ],
        "postalCode": "NR33 9LS"
      }, {
        "type": "physical",
        "line": [ "313 VICTORIA ROAD", "LOWESTOFT" ],
        "postalCode": "NR33 9LS"
      } ],
      "generalPractitioner": [ {
        "reference": "urn:uuid:28a05879-31b2-47d5-aa9f-013763a1f55f"
      } ]
    }
  }, {
    "fullUrl": "urn:uuid:28a05879-31b2-47d5-aa9f-013763a1f55f",
    "resource": {
      "resourceType": "Organization",
      "id": "28a05879-31b2-47d5-aa9f-013763a1f55f",
      "identifier": [ {
        "value": "Z10000"
      } ],
      "type": [ {
        "text": "GP Practice"
      } ],
      "name": "UNKNOWN"
    }
  }, {
    "fullUrl": "urn:uuid:124eaabe-1a9d-4b88-9bf6-87351ff23211",
    "resource": {
      "resourceType": "HealthcareService",
      "id": "124eaabe-1a9d-4b88-9bf6-87351ff23211",
      "active": true,
      "providedBy": {
        "reference": "urn:uuid:0d8f0193-1c78-4fc2-8788-02e98903dfbf"
      },
      "location": [ {
        "reference": "urn:uuid:6d0612ec-8a22-4ac2-ab0b-9d2a85da08e7"
      } ],
      "name": "Out of Hours GP Service (Waveney) - Kirkley Mill Health Centre, Lowestoft"
    }
  }, {
    "fullUrl": "urn:uuid:6d0612ec-8a22-4ac2-ab0b-9d2a85da08e7",
    "resource": {
      "resourceType": "Location",
      "id": "6d0612ec-8a22-4ac2-ab0b-9d2a85da08e7",
      "managingOrganization": {
        "reference": "urn:uuid:0d8f0193-1c78-4fc2-8788-02e98903dfbf"
      }
    }
  }, {
    "fullUrl": "urn:uuid:0d8f0193-1c78-4fc2-8788-02e98903dfbf",
    "resource": {
      "resourceType": "Organization",
      "id": "0d8f0193-1c78-4fc2-8788-02e98903dfbf",
      "identifier": [ {
        "value": "NVE06"
      } ],
      "type": [ {
        "coding": [ {
          "code": "PRCP",
          "display": "Out of Hours GP Service (Waveney) - Kirkley Mill Health Centre, Lowestoft"
        } ]
      } ],
      "name": "Out of Hours GP Service (Waveney) - Kirkley Mill Health Centre, Lowestoft"
    }
  }, {
    "fullUrl": "urn:uuid:37b756bd-4bb3-46e7-82c3-0fe45e3f2369",
    "resource": {
      "resourceType": "ReferralRequest",
      "id": "37b756bd-4bb3-46e7-82c3-0fe45e3f2369",
      "status": "active",
      "intent": "plan",
      "priority": "routine",
      "subject": {
        "reference": "urn:uuid:14cb57e7-8a42-4257-8b87-8072656af37e"
      },
      "context": {
        "reference": "urn:uuid:02b8c3c2-5351-4204-bf00-aeb8fb1386dd"
      },
      "occurrencePeriod": {
        "start": "2021-09-15T09:16:09+00:00",
        "end": "2021-09-15T10:16:09+00:00"
      },
      "authoredOn": "2021-05-11T08:58:52+00:00",
      "requester": {
        "agent": {
          "reference": "urn:uuid:7cf6e57d-203d-4236-a885-70f3b130052e"
        },
        "onBehalfOf": {
          "reference": "urn:uuid:8d89225d-45e3-4941-8146-b65405dddc20"
        }
      },
      "recipient": [ {
        "reference": "urn:uuid:135b5724-55a5-40f5-8ccc-3fa291bb7f7e"
      }, {
        "reference": "urn:uuid:124eaabe-1a9d-4b88-9bf6-87351ff23211"
      } ],
      "reasonReference": [ {
        "reference": "urn:uuid:0f003a60-2179-4306-9086-eca0d9452a63"
      } ],
      "supportingInfo": [ {
        "reference": "urn:uuid:c76ea7d4-c0d9-48ae-aa95-85e8cf2da73e"
      } ]
    }
  }, {
    "fullUrl": "urn:uuid:c76ea7d4-c0d9-48ae-aa95-85e8cf2da73e",
    "resource": {
      "resourceType": "ProcedureRequest",
      "id": "c76ea7d4-c0d9-48ae-aa95-85e8cf2da73e",
      "status": "active",
      "intent": "plan",
      "priority": "routine",
      "doNotPerform": false,
      "code": {
        "coding": [ {
          "system": "2.16.840.1.113883.2.1.3.2.4.17.325",
          "code": "Dx07",
          "display": "To contact a local service within 12 hours"
        } ]
      },
      "subject": {
        "reference": "urn:uuid:14cb57e7-8a42-4257-8b87-8072656af37e"
      },
      "occurrencePeriod": {
        "start": "2021-09-15T09:16:09+00:00",
        "end": "2021-09-15T10:16:09+00:00"
      },
      "reasonReference": [ {
        "reference": "urn:uuid:0f003a60-2179-4306-9086-eca0d9452a63"
      } ]
    }
  }, {
    "fullUrl": "urn:uuid:135b5724-55a5-40f5-8ccc-3fa291bb7f7e",
    "resource": {
      "resourceType": "Practitioner",
      "id": "135b5724-55a5-40f5-8ccc-3fa291bb7f7e",
      "active": true,
      "telecom": [ {
        "system": "phone",
        "value": "tel:01233505450"
      } ],
      "address": [ {
        "type": "physical",
        "line": [ "Kingston House", "The Long Barrow", "Orbital Park", "Ashford", "Kent" ],
        "postalCode": "TN24 0GP"
      } ]
    }
  }, {
    "fullUrl": "urn:uuid:aaa8c5a4-580b-46dd-821d-96b9df5e68ff",
    "resource": {
      "resourceType": "Composition",
      "id": "aaa8c5a4-580b-46dd-821d-96b9df5e68ff",
      "identifier": {
        "use": "usual",
        "value": "B172BCF7-DD1C-4508-B781-6BE68ABD1F79"
      },
      "status": "final",
      "type": {
        "coding": [ {
          "system": "http://snomed.info/sct",
          "code": "371531000",
          "display": "Report of clinical encounter (record artifact)"
        } ]
      },
      "subject": {
        "reference": "urn:uuid:14cb57e7-8a42-4257-8b87-8072656af37e"
      },
      "encounter": {
        "reference": "urn:uuid:02b8c3c2-5351-4204-bf00-aeb8fb1386dd"
      },
      "date": "2021-09-15T09:16:09+00:00",
      "author": [ {
        "reference": "urn:uuid:0aad1565-ac57-4904-a864-990854932805"
      } ],
      "title": "111 Report",
      "confidentiality": "R",
      "section": [ {
        "section": [ {
          "title": "Patient's Reported Condition",
          "text": {
            "status": "generated",
            "div": "<div xmlns=\"http://www.w3.org/1999/xhtml\">&lt;xml-fragment mediaType=&quot;text/x-hl7-text+xml&quot; xmlns:xsd=&quot;http://www.w3.org/2001/XMLSchema&quot; xmlns:xsi=&quot;http://www.w3.org/2001/XMLSchema-instance&quot;&gt;\n                                                    &lt;urn:content xmlns:urn=&quot;urn:hl7-org:v3&quot;&gt;&amp;lt;CLEO Ref: 2100310384&gt; Test Call for Dx07.\n                                                        &lt;urn:br/&gt;\n                                                    &lt;/urn:content&gt;\n                                                &lt;/xml-fragment&gt;</div>"
          }
        }, {
          "title": "Pathways Disposition",
          "text": {
            "status": "generated",
            "div": "<div xmlns=\"http://www.w3.org/1999/xhtml\">&lt;xml-fragment mediaType=&quot;text/x-hl7-text+xml&quot; xmlns:xsd=&quot;http://www.w3.org/2001/XMLSchema&quot; xmlns:xsi=&quot;http://www.w3.org/2001/XMLSchema-instance&quot;&gt;\n                                                    &lt;urn:content xmlns:urn=&quot;urn:hl7-org:v3&quot;&gt;The individual needs to contact a local service within 12 hours. (Dx07)&lt;/urn:content&gt;\n                                                    &lt;urn:br xmlns:urn=&quot;urn:hl7-org:v3&quot;/&gt;\n                                                    &lt;urn:br xmlns:urn=&quot;urn:hl7-org:v3&quot;/&gt;\n                                                    &lt;urn:content xmlns:urn=&quot;urn:hl7-org:v3&quot;&gt;Selected Service: 1335970392, Out of Hours GP Service (Waveney) - Kirkley Mill Health Centre, Lowestoft, 111&lt;/urn:content&gt;\n                                                    &lt;urn:br xmlns:urn=&quot;urn:hl7-org:v3&quot;/&gt;\n                                                &lt;/xml-fragment&gt;</div>"
          }
        }, {
          "title": "Consultation Summary",
          "text": {
            "status": "generated",
            "div": "<div xmlns=\"http://www.w3.org/1999/xhtml\">&lt;xml-fragment mediaType=&quot;text/x-hl7-text+xml&quot; xmlns:xsd=&quot;http://www.w3.org/2001/XMLSchema&quot; xmlns:xsi=&quot;http://www.w3.org/2001/XMLSchema-instance&quot;&gt;\n                                                    &lt;urn:content xmlns:urn=&quot;urn:hl7-org:v3&quot;&gt;\n                                                        &lt;urn:content&gt;Excessive thirst in last 4 weeks&lt;/urn:content&gt;\n                                                        &lt;urn:br/&gt;\n                                                        &lt;urn:content&gt;Warm to touch&lt;/urn:content&gt;\n                                                        &lt;urn:br/&gt;\n                                                        &lt;urn:content&gt;Illness - Test&lt;/urn:content&gt;\n                                                        &lt;urn:br/&gt;\n                                                    &lt;/urn:content&gt;\n                                                &lt;/xml-fragment&gt;</div>"
          }
        }, {
          "title": "Pathways Assessment",
          "text": {
            "status": "generated",
            "div": "<div xmlns=\"http://www.w3.org/1999/xhtml\">&lt;xml-fragment mediaType=&quot;text/x-hl7-text+xml&quot; xmlns:xsd=&quot;http://www.w3.org/2001/XMLSchema&quot; xmlns:xsi=&quot;http://www.w3.org/2001/XMLSchema-instance&quot;&gt;\n                                                    &lt;urn:content xmlns:urn=&quot;urn:hl7-org:v3&quot;&gt;An injury or health problem was the reason for the contact.&lt;/urn:content&gt;\n                                                    &lt;urn:br xmlns:urn=&quot;urn:hl7-org:v3&quot;/&gt;\n                                                    &lt;urn:content xmlns:urn=&quot;urn:hl7-org:v3&quot;&gt;Heavy bleeding had not occurred in the previous 2 hours.&lt;/urn:content&gt;\n                                                    &lt;urn:br xmlns:urn=&quot;urn:hl7-org:v3&quot;/&gt;\n                                                    &lt;urn:content xmlns:urn=&quot;urn:hl7-org:v3&quot;&gt;An illness or health problem was the main problem. - Test&lt;/urn:content&gt;\n                                                    &lt;urn:br xmlns:urn=&quot;urn:hl7-org:v3&quot;/&gt;\n                                                    &lt;urn:content xmlns:urn=&quot;urn:hl7-org:v3&quot;&gt;The individual was not fighting for breath.&lt;/urn:content&gt;\n                                                    &lt;urn:br xmlns:urn=&quot;urn:hl7-org:v3&quot;/&gt;\n                                                    &lt;urn:content xmlns:urn=&quot;urn:hl7-org:v3&quot;&gt;The main reason for the assessment was not an allergic reaction, heart attack, chest/upper back pain, probable stroke, recent fit/seizure or suicide attempt.&lt;/urn:content&gt;\n                                                    &lt;urn:br xmlns:urn=&quot;urn:hl7-org:v3&quot;/&gt;\n                                                    &lt;urn:content xmlns:urn=&quot;urn:hl7-org:v3&quot;&gt;The main reason for contact was not new confusion, declared diabetic hypo/hyperglycaemia, or ICD shock.&lt;/urn:content&gt;\n                                                    &lt;urn:br xmlns:urn=&quot;urn:hl7-org:v3&quot;/&gt;\n                                                    &lt;urn:content xmlns:urn=&quot;urn:hl7-org:v3&quot;&gt;The skin on the torso felt normal, warm or hot.&lt;/urn:content&gt;\n                                                    &lt;urn:br xmlns:urn=&quot;urn:hl7-org:v3&quot;/&gt;\n                                                    &lt;urn:content xmlns:urn=&quot;urn:hl7-org:v3&quot;&gt;There was no vomiting, diarrhoea, rectal bleeding, groin pain or groin swelling.&lt;/urn:content&gt;\n                                                    &lt;urn:br xmlns:urn=&quot;urn:hl7-org:v3&quot;/&gt;\n                                                    &lt;urn:content xmlns:urn=&quot;urn:hl7-org:v3&quot;&gt;There was no new genital pain or swelling.&lt;/urn:content&gt;\n                                                    &lt;urn:br xmlns:urn=&quot;urn:hl7-org:v3&quot;/&gt;\n                                                    &lt;urn:content xmlns:urn=&quot;urn:hl7-org:v3&quot;&gt;The individual was able to carry out most or all normal activities.&lt;/urn:content&gt;\n                                                    &lt;urn:br xmlns:urn=&quot;urn:hl7-org:v3&quot;/&gt;\n                                                    &lt;urn:content xmlns:urn=&quot;urn:hl7-org:v3&quot;&gt;There was no crushing or severe aching chest, upper back or upper abdominal pain, or pain going to the arm, neck, jaw or shoulder.&lt;/urn:content&gt;\n                                                    &lt;urn:br xmlns:urn=&quot;urn:hl7-org:v3&quot;/&gt;\n                                                    &lt;urn:content xmlns:urn=&quot;urn:hl7-org:v3&quot;&gt;The individual had not ingested a harmful or toxic substance.&lt;/urn:content&gt;\n                                                    &lt;urn:br xmlns:urn=&quot;urn:hl7-org:v3&quot;/&gt;\n                                                    &lt;urn:content xmlns:urn=&quot;urn:hl7-org:v3&quot;&gt;There had been no black and tarry or red/maroon bowel motions.&lt;/urn:content&gt;\n                                                    &lt;urn:br xmlns:urn=&quot;urn:hl7-org:v3&quot;/&gt;\n                                                    &lt;urn:content xmlns:urn=&quot;urn:hl7-org:v3&quot;&gt;There was no new or worsening confusion.&lt;/urn:content&gt;\n                                                    &lt;urn:br xmlns:urn=&quot;urn:hl7-org:v3&quot;/&gt;\n                                                    &lt;urn:content xmlns:urn=&quot;urn:hl7-org:v3&quot;&gt;Breathing harder or faster when doing nothing was not described.&lt;/urn:content&gt;\n                                                    &lt;urn:br xmlns:urn=&quot;urn:hl7-org:v3&quot;/&gt;\n                                                    &lt;urn:content xmlns:urn=&quot;urn:hl7-org:v3&quot;&gt;There was no new shoulder tip pain or pain in the lower right abdomen.&lt;/urn:content&gt;\n                                                    &lt;urn:br xmlns:urn=&quot;urn:hl7-org:v3&quot;/&gt;\n                                                    &lt;urn:content xmlns:urn=&quot;urn:hl7-org:v3&quot;&gt;The individual did not use anticoagulant medication or have a bleeding/clotting disorder.&lt;/urn:content&gt;\n                                                    &lt;urn:br xmlns:urn=&quot;urn:hl7-org:v3&quot;/&gt;\n                                                    &lt;urn:content xmlns:urn=&quot;urn:hl7-org:v3&quot;&gt;The individual had not been in constant pain for 4 hours or more.&lt;/urn:content&gt;\n                                                    &lt;urn:br xmlns:urn=&quot;urn:hl7-org:v3&quot;/&gt;\n                                                    &lt;urn:content xmlns:urn=&quot;urn:hl7-org:v3&quot;&gt;The individual was not jaundiced.&lt;/urn:content&gt;\n                                                    &lt;urn:br xmlns:urn=&quot;urn:hl7-org:v3&quot;/&gt;\n                                                    &lt;urn:content xmlns:urn=&quot;urn:hl7-org:v3&quot;&gt;The individual had experienced extreme thirst during the previous 4 weeks.&lt;/urn:content&gt;\n                                                    &lt;urn:br xmlns:urn=&quot;urn:hl7-org:v3&quot;/&gt;\n                                                &lt;/xml-fragment&gt;</div>"
          }
        }, {
          "title": "Advice Given",
          "text": {
            "status": "generated",
            "div": "<div xmlns=\"http://www.w3.org/1999/xhtml\">&lt;xml-fragment mediaType=&quot;text/x-hl7-text+xml&quot; xmlns:xsd=&quot;http://www.w3.org/2001/XMLSchema&quot; xmlns:xsi=&quot;http://www.w3.org/2001/XMLSchema-instance&quot;&gt;\n                                                    &lt;urn:content xmlns:urn=&quot;urn:hl7-org:v3&quot;&gt;Unless advised not to, paracetamol may be used to relieve pain or fever. Follow the instructions in the pack. If in doubt ask a pharmacist.&lt;/urn:content&gt;\n                                                    &lt;urn:br xmlns:urn=&quot;urn:hl7-org:v3&quot;/&gt;\n                                                    &lt;urn:content xmlns:urn=&quot;urn:hl7-org:v3&quot;&gt;Don't use ibuprofen or any other anti-inflammatory medication until you have spoken to a healthcare professional.&lt;/urn:content&gt;\n                                                    &lt;urn:br xmlns:urn=&quot;urn:hl7-org:v3&quot;/&gt;\n                                                    &lt;urn:content xmlns:urn=&quot;urn:hl7-org:v3&quot;&gt;If there are any new symptoms, or if the condition gets worse, changes or you have any other concerns, call us back.&lt;/urn:content&gt;\n                                                    &lt;urn:br xmlns:urn=&quot;urn:hl7-org:v3&quot;/&gt;\n                                                    &lt;urn:content xmlns:urn=&quot;urn:hl7-org:v3&quot;&gt;Remember to take a list of any current medications if you go to the out of hours surgery.&lt;/urn:content&gt;\n                                                    &lt;urn:br xmlns:urn=&quot;urn:hl7-org:v3&quot;/&gt;\n                                                &lt;/xml-fragment&gt;</div>"
          }
        }, {
          "title": "SCR Consent",
          "text": {
            "status": "generated",
            "div": "<div xmlns=\"http://www.w3.org/1999/xhtml\">&lt;xml-fragment mediaType=&quot;text/x-hl7-text+xml&quot; xmlns:xsd=&quot;http://www.w3.org/2001/XMLSchema&quot; xmlns:xsi=&quot;http://www.w3.org/2001/XMLSchema-instance&quot;&gt;\n                                                    &lt;urn:content xmlns:urn=&quot;urn:hl7-org:v3&quot;&gt;Consent given for SCR sharing\n                                                        &lt;urn:br/&gt;\n                                                        &lt;urn:br/&gt;\n                                                    &lt;/urn:content&gt;\n                                                &lt;/xml-fragment&gt;</div>"
          }
        } ]
      }, {
        "title": "ReferralRequest",
        "entry": [ {
          "reference": "urn:uuid:37b756bd-4bb3-46e7-82c3-0fe45e3f2369"
        } ]
      } ]
    }
  }, {
    "fullUrl": "urn:uuid:611f6fd7-0b08-4c98-853d-bd353b7f9746",
    "resource": {
      "resourceType": "Consent",
      "id": "611f6fd7-0b08-4c98-853d-bd353b7f9746",
      "identifier": {
        "use": "usual",
        "value": "B172BCF7-DD1C-4508-B781-6BE68ABD1F79"
      },
      "status": "active",
      "patient": {
        "reference": "urn:uuid:14cb57e7-8a42-4257-8b87-8072656af37e"
      },
      "period": {
        "start": "2021-05-11T08:58:52+00:00"
      },
      "consentingParty": [ {
        "reference": "urn:uuid:14cb57e7-8a42-4257-8b87-8072656af37e"
      } ],
      "action": [ {
        "coding": [ {
          "system": "http://snomed.info/sct",
          "code": "425691002",
          "display": "Consent given for electronic record sharing"
        } ],
        "text": "Consent given for electronic record sharing"
      } ],
      "organization": [ {
        "reference": "urn:uuid:8d89225d-45e3-4941-8146-b65405dddc20"
      } ],
      "policyRule": "http://hl7.org/fhir/ConsentPolicy/opt-out",
      "data": [ {
        "meaning": "related",
        "reference": {
          "reference": "urn:uuid:02b8c3c2-5351-4204-bf00-aeb8fb1386dd"
        }
      } ]
    }
  }, {
    "fullUrl": "urn:uuid:0f003a60-2179-4306-9086-eca0d9452a63",
    "resource": {
      "resourceType": "Condition",
      "id": "0f003a60-2179-4306-9086-eca0d9452a63",
      "clinicalStatus": "active",
      "verificationStatus": "unknown",
      "subject": {
        "reference": "urn:uuid:14cb57e7-8a42-4257-8b87-8072656af37e"
      },
      "context": {
        "reference": "urn:uuid:02b8c3c2-5351-4204-bf00-aeb8fb1386dd"
      }
    }
  }, {
    "fullUrl": "urn:uuid:b2ea71c0-66cd-4ecf-bc15-35338f4971bc",
    "resource": {
      "resourceType": "Observation",
      "id": "b2ea71c0-66cd-4ecf-bc15-35338f4971bc",
      "status": "final",
      "code": {
        "coding": [ {
          "system": "http://snomed.info/sct",
          "code": "33962009",
          "display": "Presenting complaint"
        } ]
      },
      "subject": {
        "reference": "urn:uuid:14cb57e7-8a42-4257-8b87-8072656af37e"
      },
      "context": {
        "reference": "urn:uuid:02b8c3c2-5351-4204-bf00-aeb8fb1386dd"
      },
      "valueString": "<CLEO Ref: 2100310384> Test Call for Dx07.\n                                                        "
    }
  }, {
    "fullUrl": "urn:uuid:e10ee4ea-0228-4d01-960d-b864d084eb5b",
    "resource": {
      "resourceType": "PractitionerRole",
      "id": "e10ee4ea-0228-4d01-960d-b864d084eb5b",
      "practitioner": {
        "reference": "urn:uuid:0aad1565-ac57-4904-a864-990854932805"
      },
      "organization": {
        "reference": "urn:uuid:a9ffa030-c964-4e11-b461-928eb109cc43"
      },
      "code": [ {
        "coding": [ {
          "system": "2.16.840.1.113883.2.1.3.2.4.17.196",
          "code": "NR1690",
          "display": "Call Operator"
        } ]
      } ]
    }
  }, {
    "fullUrl": "urn:uuid:a9ffa030-c964-4e11-b461-928eb109cc43",
    "resource": {
      "resourceType": "Organization",
      "id": "a9ffa030-c964-4e11-b461-928eb109cc43",
      "identifier": [ {
        "value": "NTN08"
      } ],
      "name": "Norfolk and Wisbech 111"
    }
  }, {
    "fullUrl": "urn:uuid:88b42303-ea06-49be-b917-d8961e4c0910",
    "resource": {
      "resourceType": "RelatedPerson",
      "id": "88b42303-ea06-49be-b917-d8961e4c0910",
      "patient": {
        "reference": "urn:uuid:14cb57e7-8a42-4257-8b87-8072656af37e"
      },
      "relationship": {
        "coding": [ {
          "system": "http://hl7.org/fhir/v2/0131",
          "code": "C",
          "display": "Emergency Contact"
        } ]
      },
      "telecom": [ {
        "system": "phone",
        "value": "tel:01233123123"
      } ]
    }
  }, {
    "fullUrl": "urn:uuid:7cf6e57d-203d-4236-a885-70f3b130052e",
    "resource": {
      "resourceType": "Device",
      "id": "7cf6e57d-203d-4236-a885-70f3b130052e",
      "model": "111 Adaptor",
      "version": "0.9.0"
    }
  }, {
    "fullUrl": "urn:uuid:ac160288-8c06-4fb6-aa2f-5dae2d865370",
    "resource": {
      "resourceType": "List",
      "id": "ac160288-8c06-4fb6-aa2f-5dae2d865370",
      "status": "current",
      "mode": "working",
      "title": "111 Report List",
      "code": {
        "coding": [ {
          "system": "http://snomed.info/sct",
          "code": "225390008",
          "display": "Triage"
        } ]
      },
      "subject": {
        "reference": "urn:uuid:14cb57e7-8a42-4257-8b87-8072656af37e"
      },
      "encounter": {
        "reference": "urn:uuid:02b8c3c2-5351-4204-bf00-aeb8fb1386dd"
      },
      "date": "2021-09-15T09:16:09+00:00",
      "source": {
        "reference": "urn:uuid:7cf6e57d-203d-4236-a885-70f3b130052e"
      },
      "orderedBy": {
        "coding": [ {
          "system": "http://hl7.org/fhir/list-order",
          "code": "event-date",
          "display": "Sorted by Event Date"
        } ]
      },
      "entry": [ {
        "item": {
          "reference": "urn:uuid:f82f05ec-edc4-49a8-bc29-eab96b1b9a84"
        }
      }, {
        "item": {
          "reference": "urn:uuid:28a05879-31b2-47d5-aa9f-013763a1f55f"
        }
      }, {
        "item": {
          "reference": "urn:uuid:0d8f0193-1c78-4fc2-8788-02e98903dfbf"
        }
      }, {
        "item": {
          "reference": "urn:uuid:24aae2bc-8868-4348-aa01-a9facbd91185"
        }
      }, {
        "item": {
          "reference": "urn:uuid:0f003a60-2179-4306-9086-eca0d9452a63"
        }
      }, {
        "item": {
          "reference": "urn:uuid:88b42303-ea06-49be-b917-d8961e4c0910"
        }
      }, {
        "item": {
          "reference": "urn:uuid:a9ffa030-c964-4e11-b461-928eb109cc43"
        }
      }, {
        "item": {
          "reference": "urn:uuid:8d89225d-45e3-4941-8146-b65405dddc20"
        }
      }, {
        "item": {
          "reference": "urn:uuid:0aad1565-ac57-4904-a864-990854932805"
        }
      }, {
        "item": {
          "reference": "urn:uuid:b2ea71c0-66cd-4ecf-bc15-35338f4971bc"
        }
      }, {
        "item": {
          "reference": "urn:uuid:135b5724-55a5-40f5-8ccc-3fa291bb7f7e"
        }
      }, {
        "item": {
          "reference": "urn:uuid:37b756bd-4bb3-46e7-82c3-0fe45e3f2369"
        }
      } ]
    }
  } ]
}