{
  "resourceType": "Bundle",
  "identifier": {
    "type": {
      "text": "ClinicalDocument VersionNumber"
    },
    "value": "1"
  },
  "type": "message",
  "entry": [ {
    "fullUrl": "urn:uuid:4A4DE551-F585-49BB-A1D3-12DCC764AF52",
    "resource": {
      "resourceType": "MessageHeader",
      "id": "4A4DE551-F585-49BB-A1D3-12DCC764AF52",
      "event": {
        "system": "https://fhir.nhs.uk/STU3/CodeSystem/EventType-1",
        "code": "referral-1",
        "display": "Referral"
      },
      "destination": [ {
        "endpoint": "urn:nhs-uk:addressing:ods:NVE06:DOSServiceID:1335970392"
      } ],
      "timestamp": "2021-05-11T08:58:52.000+00:00",
      "source": {
        "name": "NHS 111 Adaptor",
        "endpoint": "http://localhost:8080/report"
      },
      "reason": {
        "coding": [ {
          "system": "urn:nhs-itk:ns:201005:interaction",
          "code": "urn:nhs-itk:interaction:primaryOutofHourRecipientNHS111CDADocument-v2-0"
        } ]
      }
    },
    "response": {
      "status": "success",
      "lastModified": "2022-05-05T12:28:00.402+00:00"
    }
  }, {
    "fullUrl": "urn:uuid:7f2c5a94-f7c9-4109-9fef-f93a2bcd232e",
    "resource": {
      "resourceType": "Encounter",
      "id": "7f2c5a94-f7c9-4109-9fef-f93a2bcd232e",
      "identifier": [ {
        "system": "2.16.840.1.113883.2.1.3.2.4.18.34",
        "value": "D21E3785-658E-4B35-A8B2-2E59906B8983"
      }, {
        "system": "2.16.840.1.113883.2.1.3.2.4.18.35",
        "value": "2100310384"
      } ],
      "status": "finished",
      "type": [ {
        "text": "111 Encounter Referral"
      } ],
      "subject": {
        "reference": "urn:uuid:41530588-004d-4472-815c-7f9c7d1b2f66"
      },
      "participant": [ {
        "type": [ {
          "coding": [ {
            "system": "http://hl7.org/fhir/ValueSet/encounter-participant-type",
            "code": "PPRF",
            "display": "Author"
          } ]
        } ],
        "individual": {
          "reference": "urn:uuid:aca641fb-9d2a-4c84-87a4-1aca41be67a3"
        }
      }, {
        "type": [ {
          "text": "Informant"
        } ],
        "individual": {
          "reference": "urn:uuid:f23bbaf7-c350-4ffb-9ee5-c4d25387013c"
        }
      } ],
      "period": {
        "start": "2021-05-11T08:54:54+00:00",
        "end": "2021-05-11T08:58:52+00:00"
      },
      "location": [ {
        "location": {
          "reference": "urn:uuid:6fefc035-3d08-4936-800d-af5f51c93757"
        },
        "status": "active"
      }, {
        "location": {
          "reference": "urn:uuid:952e5efa-b6d9-44af-bd67-745a3d4d874e"
        },
        "status": "completed"
      } ],
      "serviceProvider": {
        "reference": "urn:uuid:65d0d171-2592-4cbe-9d6a-94e6c494b728"
      }
    }
  }, {
    "fullUrl": "urn:uuid:65d0d171-2592-4cbe-9d6a-94e6c494b728",
    "resource": {
      "resourceType": "Organization",
      "id": "65d0d171-2592-4cbe-9d6a-94e6c494b728",
      "active": true,
      "type": [ {
        "text": "CST"
      } ],
      "name": "Norfolk and Wisbech 111"
    }
  }, {
    "fullUrl": "urn:uuid:aca641fb-9d2a-4c84-87a4-1aca41be67a3",
    "resource": {
      "resourceType": "Practitioner",
      "id": "aca641fb-9d2a-4c84-87a4-1aca41be67a3",
      "active": true,
      "name": [ {
        "text": "Ben Smythson"
      } ]
    }
  }, {
    "fullUrl": "urn:uuid:f23bbaf7-c350-4ffb-9ee5-c4d25387013c",
    "resource": {
      "resourceType": "RelatedPerson",
      "id": "f23bbaf7-c350-4ffb-9ee5-c4d25387013c",
      "active": true,
      "patient": {
        "reference": "urn:uuid:41530588-004d-4472-815c-7f9c7d1b2f66"
      },
      "relationship": {
        "coding": [ {
          "system": "2.16.840.1.113883.2.1.3.2.4.16.45",
          "code": "21",
          "display": "Self"
        }, {
          "system": "http://hl7.org/fhir/v2/0131",
          "code": "C",
          "display": "Emergency Contact"
        } ]
      },
      "name": [ {
        "text": "Test Call TEST CALL DX07"
      } ],
      "telecom": [ {
        "system": "phone",
        "value": "tel:01233123123"
      } ],
      "gender": "unknown"
    }
  }, {
    "fullUrl": "urn:uuid:6fefc035-3d08-4936-800d-af5f51c93757",
    "resource": {
      "resourceType": "Location",
      "id": "6fefc035-3d08-4936-800d-af5f51c93757",
      "managingOrganization": {
        "reference": "urn:uuid:05568be5-95dd-4092-ba0e-1b2ec926f8dd"
      }
    }
  }, {
    "fullUrl": "urn:uuid:05568be5-95dd-4092-ba0e-1b2ec926f8dd",
    "resource": {
      "resourceType": "Organization",
      "id": "05568be5-95dd-4092-ba0e-1b2ec926f8dd",
      "identifier": [ {
        "value": "Z10000"
      } ],
      "type": [ {
        "text": "GP Practice"
      } ],
      "name": "UNKNOWN"
    }
  }, {
    "fullUrl": "urn:uuid:952e5efa-b6d9-44af-bd67-745a3d4d874e",
    "resource": {
      "resourceType": "Location",
      "id": "952e5efa-b6d9-44af-bd67-745a3d4d874e",
      "address": {
        "type": "physical",
        "line": [ "313 VICTORIA ROAD", "LOWESTOFT" ],
        "postalCode": "NR33 9LS"
      }
    }
  }, {
    "fullUrl": "urn:uuid:41530588-004d-4472-815c-7f9c7d1b2f66",
    "resource": {
      "resourceType": "Patient",
      "id": "41530588-004d-4472-815c-7f9c7d1b2f66",
      "language": "en",
      "active": true,
      "name": [ {
        "use": "official",
        "family": "TEST CALL DX07",
        "given": [ "Test Call" ]
      } ],
      "telecom": [ {
        "system": "phone",
        "value": "tel:01233123123"
      } ],
      "gender": "male",
      "birthDate": "1996-03-25",
      "address": [ {
        "use": "home",
        "line": [ "313 VICTORIA ROAD", "LOWESTOFT" ],
        "postalCode": "NR33 9LS"
      }, {
        "type": "physical",
        "line": [ "313 VICTORIA ROAD", "LOWESTOFT" ],
        "postalCode": "NR33 9LS"
      } ],
      "generalPractitioner": [ {
        "reference": "urn:uuid:fbae41f5-6bfe-42b3-bded-14e3e4324eb5"
      } ]
    }
  }, {
    "fullUrl": "urn:uuid:fbae41f5-6bfe-42b3-bded-14e3e4324eb5",
    "resource": {
      "resourceType": "Organization",
      "id": "fbae41f5-6bfe-42b3-bded-14e3e4324eb5",
      "identifier": [ {
        "value": "Z10000"
      } ],
      "type": [ {
        "text": "GP Practice"
      } ],
      "name": "UNKNOWN"
    }
  }, {
    "fullUrl": "urn:uuid:6ceed05c-5976-4773-8cd5-e048f2cf8128",
    "resource": {
      "resourceType": "HealthcareService",
      "id": "6ceed05c-5976-4773-8cd5-e048f2cf8128",
      "active": true,
      "providedBy": {
        "reference": "urn:uuid:a53ad266-cc28-432f-a1d1-c21f2ba91c5e"
      },
      "location": [ {
        "reference": "urn:uuid:35553a30-5c64-48ff-bf5d-8f35d51860a9"
      } ],
      "name": "Out of Hours GP Service (Waveney) - Kirkley Mill Health Centre, Lowestoft"
    }
  }, {
    "fullUrl": "urn:uuid:35553a30-5c64-48ff-bf5d-8f35d51860a9",
    "resource": {
      "resourceType": "Location",
      "id": "35553a30-5c64-48ff-bf5d-8f35d51860a9",
      "managingOrganization": {
        "reference": "urn:uuid:a53ad266-cc28-432f-a1d1-c21f2ba91c5e"
      }
    }
  }, {
    "fullUrl": "urn:uuid:a53ad266-cc28-432f-a1d1-c21f2ba91c5e",
    "resource": {
      "resourceType": "Organization",
      "id": "a53ad266-cc28-432f-a1d1-c21f2ba91c5e",
      "identifier": [ {
        "value": "NVE06"
      } ],
      "type": [ {
        "coding": [ {
          "code": "PRCP",
          "display": "Out of Hours GP Service (Waveney) - Kirkley Mill Health Centre, Lowestoft"
        } ]
      } ],
      "name": "Out of Hours GP Service (Waveney) - Kirkley Mill Health Centre, Lowestoft"
    }
  }, {
    "fullUrl": "urn:uuid:39c45737-01e6-4ca3-91c8-59c4121cac59",
    "resource": {
      "resourceType": "ReferralRequest",
      "id": "39c45737-01e6-4ca3-91c8-59c4121cac59",
      "status": "active",
      "intent": "plan",
      "priority": "routine",
      "subject": {
        "reference": "urn:uuid:41530588-004d-4472-815c-7f9c7d1b2f66"
      },
      "context": {
        "reference": "urn:uuid:7f2c5a94-f7c9-4109-9fef-f93a2bcd232e"
      },
      "occurrencePeriod": {
        "start": "2021-05-11T08:58:52+00:00"
      },
      "authoredOn": "2021-05-11T08:58:52+00:00",
      "requester": {
        "agent": {
          "reference": "urn:uuid:1c7587d8-1df7-4a2c-a764-2c3b21aceac8"
        },
        "onBehalfOf": {
          "reference": "urn:uuid:65d0d171-2592-4cbe-9d6a-94e6c494b728"
        }
      },
      "recipient": [ {
        "reference": "urn:uuid:841e5f4d-f901-4d9d-aa09-be4d4791f16d"
      }, {
        "reference": "urn:uuid:6ceed05c-5976-4773-8cd5-e048f2cf8128"
      } ],
      "reasonReference": [ {
        "reference": "urn:uuid:9f68fd7c-838f-4d7a-99c6-ad72512ba5dc"
      } ],
      "supportingInfo": [ {
        "reference": "urn:uuid:10e0b8cd-4b1f-45a4-bbfc-7bfa241d5fd0"
      } ]
    }
  }, {
    "fullUrl": "urn:uuid:10e0b8cd-4b1f-45a4-bbfc-7bfa241d5fd0",
    "resource": {
      "resourceType": "ProcedureRequest",
      "id": "10e0b8cd-4b1f-45a4-bbfc-7bfa241d5fd0",
      "status": "active",
      "intent": "plan",
      "priority": "routine",
      "doNotPerform": false,
      "code": {
        "coding": [ {
          "system": "2.16.840.1.113883.2.1.3.2.4.17.325",
          "code": "Dx07",
          "display": "To contact a local service within 12 hours"
        } ]
      },
      "subject": {
        "reference": "urn:uuid:41530588-004d-4472-815c-7f9c7d1b2f66"
      },
      "occurrencePeriod": {
        "start": "2021-05-11T08:58:52+00:00"
      },
      "reasonReference": [ {
        "reference": "urn:uuid:9f68fd7c-838f-4d7a-99c6-ad72512ba5dc"
      } ]
    }
  }, {
    "fullUrl": "urn:uuid:841e5f4d-f901-4d9d-aa09-be4d4791f16d",
    "resource": {
      "resourceType": "Practitioner",
      "id": "841e5f4d-f901-4d9d-aa09-be4d4791f16d",
      "active": true,
      "telecom": [ {
        "system": "phone",
        "value": "tel:01233505450"
      } ],
      "address": [ {
        "type": "physical",
        "line": [ "Kingston House", "The Long Barrow", "Orbital Park", "Ashford", "Kent" ],
        "postalCode": "TN24 0GP"
      } ]
    }
  }, {
    "fullUrl": "urn:uuid:482376d4-1f19-4fed-8ae1-a7a7bfb66425",
    "resource": {
      "resourceType": "Composition",
      "id": "482376d4-1f19-4fed-8ae1-a7a7bfb66425",
      "identifier": {
        "use": "usual",
        "value": "B172BCF7-DD1C-4508-B781-6BE68ABD1F79"
      },
      "status": "final",
      "type": {
        "coding": [ {
          "system": "http://snomed.info/sct",
          "code": "371531000",
          "display": "Report of clinical encounter (record artifact)"
        } ]
      },
      "subject": {
        "reference": "urn:uuid:41530588-004d-4472-815c-7f9c7d1b2f66"
      },
      "encounter": {
        "reference": "urn:uuid:7f2c5a94-f7c9-4109-9fef-f93a2bcd232e"
      },
      "date": "2021-05-11T08:58:52+00:00",
      "author": [ {
        "reference": "urn:uuid:aca641fb-9d2a-4c84-87a4-1aca41be67a3"
      } ],
      "title": "111 Report",
      "confidentiality": "R",
      "section": [ {
        "section": [ {
          "title": "Patient's Reported Condition",
          "text": {
            "status": "generated",
            "div": "<div xmlns=\"http://www.w3.org/1999/xhtml\">&lt;content&gt;&amp;lt;CLEO Ref: 2100310384&amp;gt; Test Call for Dx07.\n                                                        &lt;br/&gt;\n                                                    &lt;/content&gt;</div>"
          }
        }, {
          "title": "Pathways Disposition",
          "text": {
            "status": "generated",
            "div": "<div xmlns=\"http://www.w3.org/1999/xhtml\">&lt;content&gt;The individual needs to contact a local service within 12 hours. (Dx07)&lt;/content&gt;\n                                                    &lt;br/&gt;\n                                                    &lt;br/&gt;\n                                                    &lt;content&gt;Selected Service: 1335970392, Out of Hours GP Service (Waveney) - Kirkley Mill Health Centre, Lowestoft, 111&lt;/content&gt;\n                                                    &lt;br/&gt;</div>"
          }
        }, {
          "title": "Consultation Summary",
          "text": {
            "status": "generated",
            "div": "<div xmlns=\"http://www.w3.org/1999/xhtml\">&lt;content&gt;\n                                                        &lt;content&gt;Excessive thirst in last 4 weeks&lt;/content&gt;\n                                                        &lt;br/&gt;\n                                                        &lt;content&gt;Warm to touch&lt;/content&gt;\n                                                        &lt;br/&gt;\n                                                        &lt;content&gt;Illness - Test&lt;/content&gt;\n                                                        &lt;br/&gt;\n                                                    &lt;/content&gt;</div>"
          }
        }, {
          "title": "Pathways Assessment",
          "text": {
            "status": "generated",
            "div": "<div xmlns=\"http://www.w3.org/1999/xhtml\">&lt;content&gt;An injury or health problem was the reason for the contact.&lt;/content&gt;\n                                                    &lt;br/&gt;\n                                                    &lt;content&gt;Heavy bleeding had not occurred in the previous 2 hours.&lt;/content&gt;\n                                                    &lt;br/&gt;\n                                                    &lt;content&gt;An illness or health problem was the main problem. - Test&lt;/content&gt;\n                                                    &lt;br/&gt;\n                                                    &lt;content&gt;The individual was not fighting for breath.&lt;/content&gt;\n                                                    &lt;br/&gt;\n                                                    &lt;content&gt;The main reason for the assessment was not an allergic reaction, heart attack, chest/upper back pain, probable stroke, recent fit/seizure or suicide attempt.&lt;/content&gt;\n                                                    &lt;br/&gt;\n                                                    &lt;content&gt;The main reason for contact was not new confusion, declared diabetic hypo/hyperglycaemia, or ICD shock.&lt;/content&gt;\n                                                    &lt;br/&gt;\n                                                    &lt;content&gt;The skin on the torso felt normal, warm or hot.&lt;/content&gt;\n                                                    &lt;br/&gt;\n                                                    &lt;content&gt;There was no vomiting, diarrhoea, rectal bleeding, groin pain or groin swelling.&lt;/content&gt;\n                                                    &lt;br/&gt;\n                                                    &lt;content&gt;There was no new genital pain or swelling.&lt;/content&gt;\n                                                    &lt;br/&gt;\n                                                    &lt;content&gt;The individual was able to carry out most or all normal activities.&lt;/content&gt;\n                                                    &lt;br/&gt;\n                                                    &lt;content&gt;There was no crushing or severe aching chest, upper back or upper abdominal pain, or pain going to the arm, neck, jaw or shoulder.&lt;/content&gt;\n                                                    &lt;br/&gt;\n                                                    &lt;content&gt;The individual had not ingested a harmful or toxic substance.&lt;/content&gt;\n                                                    &lt;br/&gt;\n                                                    &lt;content&gt;There had been no black and tarry or red/maroon bowel motions.&lt;/content&gt;\n                                                    &lt;br/&gt;\n                                                    &lt;content&gt;There was no new or worsening confusion.&lt;/content&gt;\n                                                    &lt;br/&gt;\n                                                    &lt;content&gt;Breathing harder or faster when doing nothing was not described.&lt;/content&gt;\n                                                    &lt;br/&gt;\n                                                    &lt;content&gt;There was no new shoulder tip pain or pain in the lower right abdomen.&lt;/content&gt;\n                                                    &lt;br/&gt;\n                                                    &lt;content&gt;The individual did not use anticoagulant medication or have a bleeding/clotting disorder.&lt;/content&gt;\n                                                    &lt;br/&gt;\n                                                    &lt;content&gt;The individual had not been in constant pain for 4 hours or more.&lt;/content&gt;\n                                                    &lt;br/&gt;\n                                                    &lt;content&gt;The individual was not jaundiced.&lt;/content&gt;\n                                                    &lt;br/&gt;\n                                                    &lt;content&gt;The individual had experienced extreme thirst during the previous 4 weeks.&lt;/content&gt;\n                                                    &lt;br/&gt;</div>"
          }
        }, {
          "title": "Advice Given",
          "text": {
            "status": "generated",
            "div": "<div xmlns=\"http://www.w3.org/1999/xhtml\">&lt;content&gt;Unless advised not to, paracetamol may be used to relieve pain or fever. Follow the instructions in the pack. If in doubt ask a pharmacist.&lt;/content&gt;\n                                                    &lt;br/&gt;\n                                                    &lt;content&gt;Don't use ibuprofen or any other anti-inflammatory medication until you have spoken to a healthcare professional.&lt;/content&gt;\n                                                    &lt;br/&gt;\n                                                    &lt;content&gt;If there are any new symptoms, or if the condition gets worse, changes or you have any other concerns, call us back.&lt;/content&gt;\n                                                    &lt;br/&gt;\n                                                    &lt;content&gt;Remember to take a list of any current medications if you go to the out of hours surgery.&lt;/content&gt;\n                                                    &lt;br/&gt;</div>"
          }
        }, {
          "title": "SCR Consent",
          "text": {
            "status": "generated",
            "div": "<div xmlns=\"http://www.w3.org/1999/xhtml\">&lt;content&gt;Consent given for SCR sharing\n                                                        &lt;br/&gt;\n                                                        &lt;br/&gt;\n                                                    &lt;/content&gt;</div>"
          }
        } ]
      }, {
        "title": "ReferralRequest",
        "entry": [ {
          "reference": "urn:uuid:39c45737-01e6-4ca3-91c8-59c4121cac59"
        } ]
      } ]
    }
  }, {
    "fullUrl": "urn:uuid:9ac0f210-7e74-4d52-b90d-128f8ff323cc",
    "resource": {
      "resourceType": "Consent",
      "id": "9ac0f210-7e74-4d52-b90d-128f8ff323cc",
      "identifier": {
        "use": "usual",
        "value": "B172BCF7-DD1C-4508-B781-6BE68ABD1F79"
      },
      "status": "active",
      "patient": {
        "reference": "urn:uuid:41530588-004d-4472-815c-7f9c7d1b2f66"
      },
      "period": {
        "start": "2021-05-11T08:54:54+00:00",
        "end": "2021-05-11T08:58:52+00:00"
      },
      "consentingParty": [ {
        "reference": "urn:uuid:41530588-004d-4472-815c-7f9c7d1b2f66"
      } ],
      "action": [ {
        "coding": [ {
          "system": "http://snomed.info/sct",
          "code": "425691002",
          "display": "Consent given for electronic record sharing"
        } ],
        "text": "Consent given for electronic record sharing"
      } ],
      "organization": [ {
        "reference": "urn:uuid:65d0d171-2592-4cbe-9d6a-94e6c494b728"
      } ],
      "policyRule": "http://hl7.org/fhir/ConsentPolicy/opt-out",
      "data": [ {
        "meaning": "related",
        "reference": {
          "reference": "urn:uuid:7f2c5a94-f7c9-4109-9fef-f93a2bcd232e"
        }
      } ]
    }
  }, {
    "fullUrl": "urn:uuid:9f68fd7c-838f-4d7a-99c6-ad72512ba5dc",
    "resource": {
      "resourceType": "Condition",
      "id": "9f68fd7c-838f-4d7a-99c6-ad72512ba5dc",
      "clinicalStatus": "active",
      "verificationStatus": "unknown",
      "subject": {
        "reference": "urn:uuid:41530588-004d-4472-815c-7f9c7d1b2f66"
      },
      "context": {
        "reference": "urn:uuid:7f2c5a94-f7c9-4109-9fef-f93a2bcd232e"
      }
    }
  }, {
    "fullUrl": "urn:uuid:83a4e489-5b37-4da1-8743-a79d55acd393",
    "resource": {
      "resourceType": "Observation",
      "id": "83a4e489-5b37-4da1-8743-a79d55acd393",
      "status": "final",
      "code": {
        "coding": [ {
          "system": "http://snomed.info/sct",
          "code": "33962009",
          "display": "Presenting complaint"
        } ]
      },
      "subject": {
        "reference": "urn:uuid:41530588-004d-4472-815c-7f9c7d1b2f66"
      },
      "context": {
        "reference": "urn:uuid:7f2c5a94-f7c9-4109-9fef-f93a2bcd232e"
      },
      "valueString": "<CLEO Ref: 2100310384> Test Call for Dx07.\n                                                        "
    }
  }, {
    "fullUrl": "urn:uuid:a3ab9872-61b9-459f-ab7b-d1c4be188f3f",
    "resource": {
      "resourceType": "PractitionerRole",
      "id": "a3ab9872-61b9-459f-ab7b-d1c4be188f3f",
      "practitioner": {
        "reference": "urn:uuid:aca641fb-9d2a-4c84-87a4-1aca41be67a3"
      },
      "organization": {
        "reference": "urn:uuid:3ab8d811-f87f-4bda-958b-25af2b5ee885"
      },
      "code": [ {
        "coding": [ {
          "system": "2.16.840.1.113883.2.1.3.2.4.17.196",
          "code": "NR1690",
          "display": "Call Operator"
        } ]
      } ]
    }
  }, {
    "fullUrl": "urn:uuid:3ab8d811-f87f-4bda-958b-25af2b5ee885",
    "resource": {
      "resourceType": "Organization",
      "id": "3ab8d811-f87f-4bda-958b-25af2b5ee885",
      "identifier": [ {
        "value": "NTN08"
      } ],
      "name": "Norfolk and Wisbech 111"
    }
  }, {
    "fullUrl": "urn:uuid:3b0e926e-b777-4a31-a233-1571fde59e0e",
    "resource": {
      "resourceType": "RelatedPerson",
      "id": "3b0e926e-b777-4a31-a233-1571fde59e0e",
      "patient": {
        "reference": "urn:uuid:41530588-004d-4472-815c-7f9c7d1b2f66"
      },
      "relationship": {
        "coding": [ {
          "system": "http://hl7.org/fhir/v2/0131",
          "code": "C",
          "display": "Emergency Contact"
        } ]
      },
      "telecom": [ {
        "system": "phone",
        "value": "tel:01233123123"
      } ]
    }
  }, {
    "fullUrl": "urn:uuid:1c7587d8-1df7-4a2c-a764-2c3b21aceac8",
    "resource": {
      "resourceType": "Device",
      "id": "1c7587d8-1df7-4a2c-a764-2c3b21aceac8",
      "model": "111 Adaptor",
      "version": "1.0.1"
    }
  }, {
    "fullUrl": "urn:uuid:ae9abab0-8629-47a5-beed-d74eab9ed4a1",
    "resource": {
      "resourceType": "List",
      "id": "ae9abab0-8629-47a5-beed-d74eab9ed4a1",
      "status": "current",
      "mode": "working",
      "title": "111 Report List",
      "code": {
        "coding": [ {
          "system": "http://snomed.info/sct",
          "code": "225390008",
          "display": "Triage"
        } ]
      },
      "subject": {
        "reference": "urn:uuid:41530588-004d-4472-815c-7f9c7d1b2f66"
      },
      "encounter": {
        "reference": "urn:uuid:7f2c5a94-f7c9-4109-9fef-f93a2bcd232e"
      },
      "date": "2021-05-11T08:58:52+00:00",
      "source": {
        "reference": "urn:uuid:1c7587d8-1df7-4a2c-a764-2c3b21aceac8"
      },
      "orderedBy": {
        "coding": [ {
          "system": "http://hl7.org/fhir/list-order",
          "code": "event-date",
          "display": "Sorted by Event Date"
        } ]
      },
      "entry": [ {
        "item": {
          "reference": "urn:uuid:f23bbaf7-c350-4ffb-9ee5-c4d25387013c"
        }
      }, {
        "item": {
          "reference": "urn:uuid:aca641fb-9d2a-4c84-87a4-1aca41be67a3"
        }
      }, {
        "item": {
          "reference": "urn:uuid:3b0e926e-b777-4a31-a233-1571fde59e0e"
        }
      }, {
        "item": {
          "reference": "urn:uuid:05568be5-95dd-4092-ba0e-1b2ec926f8dd"
        }
      }, {
        "item": {
          "reference": "urn:uuid:a53ad266-cc28-432f-a1d1-c21f2ba91c5e"
        }
      }, {
        "item": {
          "reference": "urn:uuid:65d0d171-2592-4cbe-9d6a-94e6c494b728"
        }
      }, {
        "item": {
          "reference": "urn:uuid:83a4e489-5b37-4da1-8743-a79d55acd393"
        }
      }, {
        "item": {
          "reference": "urn:uuid:9f68fd7c-838f-4d7a-99c6-ad72512ba5dc"
        }
      }, {
        "item": {
          "reference": "urn:uuid:3ab8d811-f87f-4bda-958b-25af2b5ee885"
        }
      }, {
        "item": {
          "reference": "urn:uuid:fbae41f5-6bfe-42b3-bded-14e3e4324eb5"
        }
      }, {
        "item": {
          "reference": "urn:uuid:841e5f4d-f901-4d9d-aa09-be4d4791f16d"
        }
      }, {
        "item": {
          "reference": "urn:uuid:39c45737-01e6-4ca3-91c8-59c4121cac59"
        }
      } ]
    }
  } ]
}