{
  "resourceType": "Bundle",
  "identifier": {
    "type": {
      "text": "ClinicalDocument VersionNumber"
    },
    "value": "1"
  },
  "type": "message",
  "entry": [ {
    "fullUrl": "urn:uuid:D78E4686-5082-4E76-9359-6A84AE0C9C10",
    "resource": {
      "resourceType": "MessageHeader",
      "id": "D78E4686-5082-4E76-9359-6A84AE0C9C10",
      "event": {
        "system": "https://fhir.nhs.uk/STU3/CodeSystem/EventType-1",
        "code": "referral-1",
        "display": "Referral"
      },
      "destination": [ {
        "endpoint": "urn:nhs-uk:addressing:ods:NVE06:DOSServiceID:1335970392"
      } ],
      "timestamp": "2021-05-11T08:53:28.000+00:00",
      "source": {
        "name": "NHS 111 Adaptor",
        "endpoint": "http://localhost:8080/report"
      },
      "reason": {
        "coding": [ {
          "system": "urn:nhs-itk:ns:201005:interaction",
          "code": "urn:nhs-itk:interaction:primaryOutofHourRecipientNHS111CDADocument-v2-0"
        } ]
      }
    }
  }, {
    "fullUrl": "urn:uuid:c3b57a1d-78ae-44cc-aef4-0d516455b201",
    "resource": {
      "resourceType": "Encounter",
      "id": "c3b57a1d-78ae-44cc-aef4-0d516455b201",
      "identifier": [ {
        "system": "2.16.840.1.113883.2.1.3.2.4.18.34",
        "value": "0060E06D-C899-440E-B58E-B5522662EC28"
      }, {
        "system": "2.16.840.1.113883.2.1.3.2.4.18.35",
        "value": "2100310382"
      } ],
      "status": "finished",
      "type": [ {
        "text": "111 Encounter Referral"
      } ],
      "subject": {
        "reference": "urn:uuid:c0494efe-6c61-40c9-94d4-eabfe3737d71"
      },
      "participant": [ {
        "type": [ {
          "coding": [ {
            "system": "http://hl7.org/fhir/ValueSet/encounter-participant-type",
            "code": "PPRF",
            "display": "Author"
          } ]
        } ],
        "individual": {
          "reference": "urn:uuid:51af4cfe-f228-4997-a8d2-60b27b8c9029"
        }
      }, {
        "type": [ {
          "text": "Informant"
        } ],
        "individual": {
          "reference": "urn:uuid:229aa110-5c60-4f22-9610-b3b8a658e04d"
        }
      } ],
      "period": {
        "start": "2021-05-11T08:53:28+00:00"
      },
      "location": [ {
        "location": {
          "reference": "urn:uuid:a190575e-3c46-49fd-8a56-e1d3d20e0349"
        },
        "status": "active"
      }, {
        "location": {
          "reference": "urn:uuid:f253ff81-ec6a-459b-a6cc-15d8f7806a5a"
        },
        "status": "completed"
      } ],
      "serviceProvider": {
        "reference": "urn:uuid:7d885c20-2345-4ca2-bf4a-56cf8e3bd732"
      }
    }
  }, {
    "fullUrl": "urn:uuid:7d885c20-2345-4ca2-bf4a-56cf8e3bd732",
    "resource": {
      "resourceType": "Organization",
      "id": "7d885c20-2345-4ca2-bf4a-56cf8e3bd732",
      "active": true,
      "type": [ {
        "text": "CST"
      } ],
      "name": "Norfolk and Wisbech 111"
    }
  }, {
    "fullUrl": "urn:uuid:51af4cfe-f228-4997-a8d2-60b27b8c9029",
    "resource": {
      "resourceType": "Practitioner",
      "id": "51af4cfe-f228-4997-a8d2-60b27b8c9029",
      "active": true,
      "name": [ {
        "text": "Ben Smythson"
      } ]
    }
  }, {
    "fullUrl": "urn:uuid:229aa110-5c60-4f22-9610-b3b8a658e04d",
    "resource": {
      "resourceType": "RelatedPerson",
      "id": "229aa110-5c60-4f22-9610-b3b8a658e04d",
      "active": true,
      "patient": {
        "reference": "urn:uuid:c0494efe-6c61-40c9-94d4-eabfe3737d71"
      },
      "relationship": {
        "coding": [ {
          "system": "2.16.840.1.113883.2.1.3.2.4.16.45",
          "code": "21",
          "display": "Self"
        }, {
          "system": "http://hl7.org/fhir/v2/0131",
          "code": "C",
          "display": "Emergency Contact"
        } ]
      },
      "name": [ {
        "text": "Test Call TEST CALL DX06"
      } ],
      "telecom": [ {
        "system": "phone",
        "value": "tel:01233123123"
      } ],
      "gender": "unknown"
    }
  }, {
    "fullUrl": "urn:uuid:a190575e-3c46-49fd-8a56-e1d3d20e0349",
    "resource": {
      "resourceType": "Location",
      "id": "a190575e-3c46-49fd-8a56-e1d3d20e0349",
      "managingOrganization": {
        "reference": "urn:uuid:00df4e79-23b5-4bfd-bfd5-e3d3c17f193c"
      }
    }
  }, {
    "fullUrl": "urn:uuid:00df4e79-23b5-4bfd-bfd5-e3d3c17f193c",
    "resource": {
      "resourceType": "Organization",
      "id": "00df4e79-23b5-4bfd-bfd5-e3d3c17f193c",
      "identifier": [ {
        "value": "Z10000"
      } ],
      "type": [ {
        "text": "GP Practice"
      } ],
      "name": "UNKNOWN"
    }
  }, {
    "fullUrl": "urn:uuid:f253ff81-ec6a-459b-a6cc-15d8f7806a5a",
    "resource": {
      "resourceType": "Location",
      "id": "f253ff81-ec6a-459b-a6cc-15d8f7806a5a",
      "address": {
        "type": "physical",
        "line": [ "313 VICTORIA ROAD", "LOWESTOFT" ],
        "postalCode": "NR33 9LS"
      }
    }
  }, {
    "fullUrl": "urn:uuid:c0494efe-6c61-40c9-94d4-eabfe3737d71",
    "resource": {
      "resourceType": "Patient",
      "id": "c0494efe-6c61-40c9-94d4-eabfe3737d71",
      "language": "en",
      "active": true,
      "name": [ {
        "use": "official",
        "family": "TEST CALL DX06",
        "given": [ "Test Call" ]
      } ],
      "telecom": [ {
        "system": "phone",
        "value": "tel:01233123123"
      } ],
      "gender": "male",
      "birthDate": "1996-03-25",
      "address": [ {
        "use": "home",
        "line": [ "313 VICTORIA ROAD", "LOWESTOFT" ],
        "postalCode": "NR33 9LS"
      }, {
        "type": "physical",
        "line": [ "313 VICTORIA ROAD", "LOWESTOFT" ],
        "postalCode": "NR33 9LS"
      } ],
      "generalPractitioner": [ {
        "reference": "urn:uuid:d0da6d2b-afb4-4af8-b001-87f2d6826e47"
      } ]
    }
  }, {
    "fullUrl": "urn:uuid:d0da6d2b-afb4-4af8-b001-87f2d6826e47",
    "resource": {
      "resourceType": "Organization",
      "id": "d0da6d2b-afb4-4af8-b001-87f2d6826e47",
      "identifier": [ {
        "value": "Z10000"
      } ],
      "type": [ {
        "text": "GP Practice"
      } ],
      "name": "UNKNOWN"
    }
  }, {
    "fullUrl": "urn:uuid:7cca68a4-ae77-4c90-b596-3a87ac10ffcf",
    "resource": {
      "resourceType": "HealthcareService",
      "id": "7cca68a4-ae77-4c90-b596-3a87ac10ffcf",
      "active": true,
      "providedBy": {
        "reference": "urn:uuid:edd9b18c-f799-4b3b-a118-92c0f75e1355"
      },
      "location": [ {
        "reference": "urn:uuid:3ff8acf0-f8ff-4409-894a-26149adc867f"
      } ],
      "name": "Out of Hours GP Service (Waveney) - Kirkley Mill Health Centre, Lowestoft"
    }
  }, {
    "fullUrl": "urn:uuid:3ff8acf0-f8ff-4409-894a-26149adc867f",
    "resource": {
      "resourceType": "Location",
      "id": "3ff8acf0-f8ff-4409-894a-26149adc867f",
      "managingOrganization": {
        "reference": "urn:uuid:edd9b18c-f799-4b3b-a118-92c0f75e1355"
      }
    }
  }, {
    "fullUrl": "urn:uuid:edd9b18c-f799-4b3b-a118-92c0f75e1355",
    "resource": {
      "resourceType": "Organization",
      "id": "edd9b18c-f799-4b3b-a118-92c0f75e1355",
      "identifier": [ {
        "value": "NVE06"
      } ],
      "type": [ {
        "coding": [ {
          "code": "PRCP",
          "display": "Out of Hours GP Service (Waveney) - Kirkley Mill Health Centre, Lowestoft"
        } ]
      } ],
      "name": "Out of Hours GP Service (Waveney) - Kirkley Mill Health Centre, Lowestoft"
    }
  }, {
    "fullUrl": "urn:uuid:4de63f8b-6b4a-4849-a18f-7871e3c2f53a",
    "resource": {
      "resourceType": "ReferralRequest",
      "id": "4de63f8b-6b4a-4849-a18f-7871e3c2f53a",
      "status": "active",
      "intent": "plan",
      "priority": "routine",
      "subject": {
        "reference": "urn:uuid:c0494efe-6c61-40c9-94d4-eabfe3737d71"
      },
      "context": {
        "reference": "urn:uuid:c3b57a1d-78ae-44cc-aef4-0d516455b201"
      },
      "occurrencePeriod": {
        "start": "2021-09-14T09:23:30+00:00",
        "end": "2021-09-14T10:23:30+00:00"
      },
      "authoredOn": "2021-05-11T08:53:28+00:00",
      "requester": {
        "agent": {
          "reference": "urn:uuid:58cd1a07-7f65-4d90-8c8c-9bfa776ab6db"
        },
        "onBehalfOf": {
          "reference": "urn:uuid:7d885c20-2345-4ca2-bf4a-56cf8e3bd732"
        }
      },
      "recipient": [ {
        "reference": "urn:uuid:97bcbc10-b578-40b1-bbb6-37b08837ae04"
      }, {
        "reference": "urn:uuid:7cca68a4-ae77-4c90-b596-3a87ac10ffcf"
      } ],
      "reasonReference": [ {
        "reference": "urn:uuid:1e763d0c-40e7-4b00-b915-bf76a23b0d67"
      } ],
      "supportingInfo": [ {
        "reference": "urn:uuid:79da7edf-3eb0-4f6b-9794-ddfaaddeb1ba"
      } ]
    }
  }, {
    "fullUrl": "urn:uuid:79da7edf-3eb0-4f6b-9794-ddfaaddeb1ba",
    "resource": {
      "resourceType": "ProcedureRequest",
      "id": "79da7edf-3eb0-4f6b-9794-ddfaaddeb1ba",
      "status": "active",
      "intent": "plan",
      "priority": "routine",
      "doNotPerform": false,
      "code": {
        "coding": [ {
          "system": "2.16.840.1.113883.2.1.3.2.4.17.325",
          "code": "Dx06",
          "display": "To contact a local service within 6 hours"
        } ]
      },
      "subject": {
        "reference": "urn:uuid:c0494efe-6c61-40c9-94d4-eabfe3737d71"
      },
      "occurrencePeriod": {
        "start": "2021-09-14T09:23:30+00:00",
        "end": "2021-09-14T10:23:30+00:00"
      },
      "reasonReference": [ {
        "reference": "urn:uuid:1e763d0c-40e7-4b00-b915-bf76a23b0d67"
      } ]
    }
  }, {
    "fullUrl": "urn:uuid:97bcbc10-b578-40b1-bbb6-37b08837ae04",
    "resource": {
      "resourceType": "Practitioner",
      "id": "97bcbc10-b578-40b1-bbb6-37b08837ae04",
      "active": true,
      "telecom": [ {
        "system": "phone",
        "value": "tel:01233505450"
      } ],
      "address": [ {
        "type": "physical",
        "line": [ "Kingston House", "The Long Barrow", "Orbital Park", "Ashford", "Kent" ],
        "postalCode": "TN24 0GP"
      } ]
    }
  }, {
    "fullUrl": "urn:uuid:fdedf99d-f981-4e07-9548-b16cb6ea9292",
    "resource": {
      "resourceType": "Composition",
      "id": "fdedf99d-f981-4e07-9548-b16cb6ea9292",
      "identifier": {
        "use": "usual",
        "value": "192F7989-BE74-4F5C-AA94-FC0778DAC8AA"
      },
      "status": "final",
      "type": {
        "coding": [ {
          "system": "http://snomed.info/sct",
          "code": "371531000",
          "display": "Report of clinical encounter (record artifact)"
        } ]
      },
      "subject": {
        "reference": "urn:uuid:c0494efe-6c61-40c9-94d4-eabfe3737d71"
      },
      "encounter": {
        "reference": "urn:uuid:c3b57a1d-78ae-44cc-aef4-0d516455b201"
      },
      "date": "2021-09-14T09:23:30+00:00",
      "author": [ {
        "reference": "urn:uuid:51af4cfe-f228-4997-a8d2-60b27b8c9029"
      } ],
      "title": "111 Report",
      "confidentiality": "R",
      "section": [ {
        "section": [ {
          "title": "Patient's Reported Condition",
          "text": {
            "status": "generated",
            "div": "<div xmlns=\"http://www.w3.org/1999/xhtml\">&lt;xml-fragment mediaType=&quot;text/x-hl7-text+xml&quot; xmlns:xsd=&quot;http://www.w3.org/2001/XMLSchema&quot; xmlns:xsi=&quot;http://www.w3.org/2001/XMLSchema-instance&quot;&gt;\n                                                    &lt;urn:content xmlns:urn=&quot;urn:hl7-org:v3&quot;&gt;&amp;lt;CLEO Ref: 2100310382&gt; Test Call for DX06.\n                                                        &lt;urn:br/&gt;\n                                                    &lt;/urn:content&gt;\n                                                &lt;/xml-fragment&gt;</div>"
          }
        }, {
          "title": "Pathways Disposition",
          "text": {
            "status": "generated",
            "div": "<div xmlns=\"http://www.w3.org/1999/xhtml\">&lt;xml-fragment mediaType=&quot;text/x-hl7-text+xml&quot; xmlns:xsd=&quot;http://www.w3.org/2001/XMLSchema&quot; xmlns:xsi=&quot;http://www.w3.org/2001/XMLSchema-instance&quot;&gt;\n                                                    &lt;urn:content xmlns:urn=&quot;urn:hl7-org:v3&quot;&gt;The individual needs to contact a local service within 6 hours. (Dx06)&lt;/urn:content&gt;\n                                                    &lt;urn:br xmlns:urn=&quot;urn:hl7-org:v3&quot;/&gt;\n                                                    &lt;urn:br xmlns:urn=&quot;urn:hl7-org:v3&quot;/&gt;\n                                                    &lt;urn:content xmlns:urn=&quot;urn:hl7-org:v3&quot;&gt;Selected Service: 1335970392, Out of Hours GP Service (Waveney) - Kirkley Mill Health Centre, Lowestoft, 111&lt;/urn:content&gt;\n                                                    &lt;urn:br xmlns:urn=&quot;urn:hl7-org:v3&quot;/&gt;\n                                                &lt;/xml-fragment&gt;</div>"
          }
        }, {
          "title": "Consultation Summary",
          "text": {
            "status": "generated",
            "div": "<div xmlns=\"http://www.w3.org/1999/xhtml\">&lt;xml-fragment mediaType=&quot;text/x-hl7-text+xml&quot; xmlns:xsd=&quot;http://www.w3.org/2001/XMLSchema&quot; xmlns:xsi=&quot;http://www.w3.org/2001/XMLSchema-instance&quot;&gt;\n                                                    &lt;urn:content xmlns:urn=&quot;urn:hl7-org:v3&quot;&gt;\n                                                        &lt;urn:content&gt;Constant pain for more than 4 hours&lt;/urn:content&gt;\n                                                        &lt;urn:br/&gt;\n                                                        &lt;urn:content&gt;Warm to touch&lt;/urn:content&gt;\n                                                        &lt;urn:br/&gt;\n                                                        &lt;urn:content&gt;Illness - Test&lt;/urn:content&gt;\n                                                        &lt;urn:br/&gt;\n                                                    &lt;/urn:content&gt;\n                                                &lt;/xml-fragment&gt;</div>"
          }
        }, {
          "title": "Pathways Assessment",
          "text": {
            "status": "generated",
            "div": "<div xmlns=\"http://www.w3.org/1999/xhtml\">&lt;xml-fragment mediaType=&quot;text/x-hl7-text+xml&quot; xmlns:xsd=&quot;http://www.w3.org/2001/XMLSchema&quot; xmlns:xsi=&quot;http://www.w3.org/2001/XMLSchema-instance&quot;&gt;\n                                                    &lt;urn:content xmlns:urn=&quot;urn:hl7-org:v3&quot;&gt;An injury or health problem was the reason for the contact.&lt;/urn:content&gt;\n                                                    &lt;urn:br xmlns:urn=&quot;urn:hl7-org:v3&quot;/&gt;\n                                                    &lt;urn:content xmlns:urn=&quot;urn:hl7-org:v3&quot;&gt;Heavy bleeding had not occurred in the previous 2 hours.&lt;/urn:content&gt;\n                                                    &lt;urn:br xmlns:urn=&quot;urn:hl7-org:v3&quot;/&gt;\n                                                    &lt;urn:content xmlns:urn=&quot;urn:hl7-org:v3&quot;&gt;An illness or health problem was the main problem. - Test&lt;/urn:content&gt;\n                                                    &lt;urn:br xmlns:urn=&quot;urn:hl7-org:v3&quot;/&gt;\n                                                    &lt;urn:content xmlns:urn=&quot;urn:hl7-org:v3&quot;&gt;The individual was not fighting for breath.&lt;/urn:content&gt;\n                                                    &lt;urn:br xmlns:urn=&quot;urn:hl7-org:v3&quot;/&gt;\n                                                    &lt;urn:content xmlns:urn=&quot;urn:hl7-org:v3&quot;&gt;The main reason for the assessment was not an allergic reaction, heart attack, chest/upper back pain, probable stroke, recent fit/seizure or suicide attempt.&lt;/urn:content&gt;\n                                                    &lt;urn:br xmlns:urn=&quot;urn:hl7-org:v3&quot;/&gt;\n                                                    &lt;urn:content xmlns:urn=&quot;urn:hl7-org:v3&quot;&gt;The main reason for contact was not new confusion, declared diabetic hypo/hyperglycaemia, or ICD shock.&lt;/urn:content&gt;\n                                                    &lt;urn:br xmlns:urn=&quot;urn:hl7-org:v3&quot;/&gt;\n                                                    &lt;urn:content xmlns:urn=&quot;urn:hl7-org:v3&quot;&gt;The skin on the torso felt normal, warm or hot.&lt;/urn:content&gt;\n                                                    &lt;urn:br xmlns:urn=&quot;urn:hl7-org:v3&quot;/&gt;\n                                                    &lt;urn:content xmlns:urn=&quot;urn:hl7-org:v3&quot;&gt;There was no vomiting, diarrhoea, rectal bleeding, groin pain or groin swelling.&lt;/urn:content&gt;\n                                                    &lt;urn:br xmlns:urn=&quot;urn:hl7-org:v3&quot;/&gt;\n                                                    &lt;urn:content xmlns:urn=&quot;urn:hl7-org:v3&quot;&gt;There was no new genital pain or swelling.&lt;/urn:content&gt;\n                                                    &lt;urn:br xmlns:urn=&quot;urn:hl7-org:v3&quot;/&gt;\n                                                    &lt;urn:content xmlns:urn=&quot;urn:hl7-org:v3&quot;&gt;The individual was able to carry out most or all normal activities.&lt;/urn:content&gt;\n                                                    &lt;urn:br xmlns:urn=&quot;urn:hl7-org:v3&quot;/&gt;\n                                                    &lt;urn:content xmlns:urn=&quot;urn:hl7-org:v3&quot;&gt;There was no crushing or severe aching chest, upper back or upper abdominal pain, or pain going to the arm, neck, jaw or shoulder.&lt;/urn:content&gt;\n                                                    &lt;urn:br xmlns:urn=&quot;urn:hl7-org:v3&quot;/&gt;\n                                                    &lt;urn:content xmlns:urn=&quot;urn:hl7-org:v3&quot;&gt;The individual had not ingested a harmful or toxic substance.&lt;/urn:content&gt;\n                                                    &lt;urn:br xmlns:urn=&quot;urn:hl7-org:v3&quot;/&gt;\n                                                    &lt;urn:content xmlns:urn=&quot;urn:hl7-org:v3&quot;&gt;There had been no black and tarry or red/maroon bowel motions.&lt;/urn:content&gt;\n                                                    &lt;urn:br xmlns:urn=&quot;urn:hl7-org:v3&quot;/&gt;\n                                                    &lt;urn:content xmlns:urn=&quot;urn:hl7-org:v3&quot;&gt;There was no new or worsening confusion.&lt;/urn:content&gt;\n                                                    &lt;urn:br xmlns:urn=&quot;urn:hl7-org:v3&quot;/&gt;\n                                                    &lt;urn:content xmlns:urn=&quot;urn:hl7-org:v3&quot;&gt;Breathing harder or faster when doing nothing was not described.&lt;/urn:content&gt;\n                                                    &lt;urn:br xmlns:urn=&quot;urn:hl7-org:v3&quot;/&gt;\n                                                    &lt;urn:content xmlns:urn=&quot;urn:hl7-org:v3&quot;&gt;There was no new shoulder tip pain or pain in the lower right abdomen.&lt;/urn:content&gt;\n                                                    &lt;urn:br xmlns:urn=&quot;urn:hl7-org:v3&quot;/&gt;\n                                                    &lt;urn:content xmlns:urn=&quot;urn:hl7-org:v3&quot;&gt;The individual did not use anticoagulant medication or have a bleeding/clotting disorder.&lt;/urn:content&gt;\n                                                    &lt;urn:br xmlns:urn=&quot;urn:hl7-org:v3&quot;/&gt;\n                                                    &lt;urn:content xmlns:urn=&quot;urn:hl7-org:v3&quot;&gt;There was constant pain for 4 hours or more.&lt;/urn:content&gt;\n                                                    &lt;urn:br xmlns:urn=&quot;urn:hl7-org:v3&quot;/&gt;\n                                                &lt;/xml-fragment&gt;</div>"
          }
        }, {
          "title": "Advice Given",
          "text": {
            "status": "generated",
            "div": "<div xmlns=\"http://www.w3.org/1999/xhtml\">&lt;xml-fragment mediaType=&quot;text/x-hl7-text+xml&quot; xmlns:xsd=&quot;http://www.w3.org/2001/XMLSchema&quot; xmlns:xsi=&quot;http://www.w3.org/2001/XMLSchema-instance&quot;&gt;\n                                                    &lt;urn:content xmlns:urn=&quot;urn:hl7-org:v3&quot;&gt;Unless advised not to, paracetamol may be used to relieve pain or fever. Follow the instructions in the pack. If in doubt ask a pharmacist.&lt;/urn:content&gt;\n                                                    &lt;urn:br xmlns:urn=&quot;urn:hl7-org:v3&quot;/&gt;\n                                                    &lt;urn:content xmlns:urn=&quot;urn:hl7-org:v3&quot;&gt;Don't use ibuprofen or any other anti-inflammatory medication until you have spoken to a healthcare professional.&lt;/urn:content&gt;\n                                                    &lt;urn:br xmlns:urn=&quot;urn:hl7-org:v3&quot;/&gt;\n                                                    &lt;urn:content xmlns:urn=&quot;urn:hl7-org:v3&quot;&gt;If there are any new symptoms, or if the condition gets worse, changes or you have any other concerns, call us back.&lt;/urn:content&gt;\n                                                    &lt;urn:br xmlns:urn=&quot;urn:hl7-org:v3&quot;/&gt;\n                                                    &lt;urn:content xmlns:urn=&quot;urn:hl7-org:v3&quot;&gt;Remember to take a list of any current medications if you go to the out of hours surgery.&lt;/urn:content&gt;\n                                                    &lt;urn:br xmlns:urn=&quot;urn:hl7-org:v3&quot;/&gt;\n                                                &lt;/xml-fragment&gt;</div>"
          }
        }, {
          "title": "SCR Consent",
          "text": {
            "status": "generated",
            "div": "<div xmlns=\"http://www.w3.org/1999/xhtml\">&lt;xml-fragment mediaType=&quot;text/x-hl7-text+xml&quot; xmlns:xsd=&quot;http://www.w3.org/2001/XMLSchema&quot; xmlns:xsi=&quot;http://www.w3.org/2001/XMLSchema-instance&quot;&gt;\n                                                    &lt;urn:content xmlns:urn=&quot;urn:hl7-org:v3&quot;&gt;Consent given for SCR sharing\n                                                        &lt;urn:br/&gt;\n                                                        &lt;urn:br/&gt;\n                                                    &lt;/urn:content&gt;\n                                                &lt;/xml-fragment&gt;</div>"
          }
        } ]
      }, {
        "title": "ReferralRequest",
        "entry": [ {
          "reference": "urn:uuid:4de63f8b-6b4a-4849-a18f-7871e3c2f53a"
        } ]
      } ]
    }
  }, {
    "fullUrl": "urn:uuid:e43b9f97-3b20-496a-a8f0-078f54d6666b",
    "resource": {
      "resourceType": "Consent",
      "id": "e43b9f97-3b20-496a-a8f0-078f54d6666b",
      "identifier": {
        "use": "usual",
        "value": "192F7989-BE74-4F5C-AA94-FC0778DAC8AA"
      },
      "status": "active",
      "patient": {
        "reference": "urn:uuid:c0494efe-6c61-40c9-94d4-eabfe3737d71"
      },
      "period": {
        "start": "2021-05-11T08:53:28+00:00"
      },
      "consentingParty": [ {
        "reference": "urn:uuid:c0494efe-6c61-40c9-94d4-eabfe3737d71"
      } ],
      "action": [ {
        "coding": [ {
          "system": "http://snomed.info/sct",
          "code": "425691002",
          "display": "Consent given for electronic record sharing"
        } ],
        "text": "Consent given for electronic record sharing"
      } ],
      "organization": [ {
        "reference": "urn:uuid:7d885c20-2345-4ca2-bf4a-56cf8e3bd732"
      } ],
      "policyRule": "http://hl7.org/fhir/ConsentPolicy/opt-out",
      "data": [ {
        "meaning": "related",
        "reference": {
          "reference": "urn:uuid:c3b57a1d-78ae-44cc-aef4-0d516455b201"
        }
      } ]
    }
  }, {
    "fullUrl": "urn:uuid:1e763d0c-40e7-4b00-b915-bf76a23b0d67",
    "resource": {
      "resourceType": "Condition",
      "id": "1e763d0c-40e7-4b00-b915-bf76a23b0d67",
      "clinicalStatus": "active",
      "verificationStatus": "unknown",
      "subject": {
        "reference": "urn:uuid:c0494efe-6c61-40c9-94d4-eabfe3737d71"
      },
      "context": {
        "reference": "urn:uuid:c3b57a1d-78ae-44cc-aef4-0d516455b201"
      }
    }
  }, {
    "fullUrl": "urn:uuid:0ca8b0c6-5388-43e7-9961-88f860e5b2f7",
    "resource": {
      "resourceType": "Observation",
      "id": "0ca8b0c6-5388-43e7-9961-88f860e5b2f7",
      "status": "final",
      "code": {
        "coding": [ {
          "system": "http://snomed.info/sct",
          "code": "33962009",
          "display": "Presenting complaint"
        } ]
      },
      "subject": {
        "reference": "urn:uuid:c0494efe-6c61-40c9-94d4-eabfe3737d71"
      },
      "context": {
        "reference": "urn:uuid:c3b57a1d-78ae-44cc-aef4-0d516455b201"
      },
      "valueString": "<CLEO Ref: 2100310382> Test Call for DX06.\n                                                        "
    }
  }, {
    "fullUrl": "urn:uuid:37553376-0426-4902-bb75-3a6e53d08838",
    "resource": {
      "resourceType": "PractitionerRole",
      "id": "37553376-0426-4902-bb75-3a6e53d08838",
      "practitioner": {
        "reference": "urn:uuid:51af4cfe-f228-4997-a8d2-60b27b8c9029"
      },
      "organization": {
        "reference": "urn:uuid:76c0197c-5013-4980-8c53-9a6ea2f059e6"
      },
      "code": [ {
        "coding": [ {
          "system": "2.16.840.1.113883.2.1.3.2.4.17.196",
          "code": "NR1690",
          "display": "Call Operator"
        } ]
      } ]
    }
  }, {
    "fullUrl": "urn:uuid:76c0197c-5013-4980-8c53-9a6ea2f059e6",
    "resource": {
      "resourceType": "Organization",
      "id": "76c0197c-5013-4980-8c53-9a6ea2f059e6",
      "identifier": [ {
        "value": "NTN08"
      } ],
      "name": "Norfolk and Wisbech 111"
    }
  }, {
    "fullUrl": "urn:uuid:c3dabb98-a493-48ce-a616-7faba15d26fa",
    "resource": {
      "resourceType": "RelatedPerson",
      "id": "c3dabb98-a493-48ce-a616-7faba15d26fa",
      "patient": {
        "reference": "urn:uuid:c0494efe-6c61-40c9-94d4-eabfe3737d71"
      },
      "relationship": {
        "coding": [ {
          "system": "http://hl7.org/fhir/v2/0131",
          "code": "C",
          "display": "Emergency Contact"
        } ]
      },
      "telecom": [ {
        "system": "phone",
        "value": "tel:01233123123"
      } ]
    }
  }, {
    "fullUrl": "urn:uuid:58cd1a07-7f65-4d90-8c8c-9bfa776ab6db",
    "resource": {
      "resourceType": "Device",
      "id": "58cd1a07-7f65-4d90-8c8c-9bfa776ab6db",
      "model": "111 Adaptor",
      "version": "0.8.0"
    }
  }, {
    "fullUrl": "urn:uuid:60b1cb5c-aa15-405e-8abc-0ae9242a1a9e",
    "resource": {
      "resourceType": "List",
      "id": "60b1cb5c-aa15-405e-8abc-0ae9242a1a9e",
      "status": "current",
      "mode": "working",
      "title": "111 Report List",
      "code": {
        "coding": [ {
          "system": "http://snomed.info/sct",
          "code": "225390008",
          "display": "Triage"
        } ]
      },
      "subject": {
        "reference": "urn:uuid:c0494efe-6c61-40c9-94d4-eabfe3737d71"
      },
      "encounter": {
        "reference": "urn:uuid:c3b57a1d-78ae-44cc-aef4-0d516455b201"
      },
      "date": "2021-09-14T09:23:30+00:00",
      "source": {
        "reference": "urn:uuid:58cd1a07-7f65-4d90-8c8c-9bfa776ab6db"
      },
      "orderedBy": {
        "coding": [ {
          "system": "http://hl7.org/fhir/list-order",
          "code": "event-date",
          "display": "Sorted by Event Date"
        } ]
      },
      "entry": [ {
        "item": {
          "reference": "urn:uuid:7d885c20-2345-4ca2-bf4a-56cf8e3bd732"
        }
      }, {
        "item": {
          "reference": "urn:uuid:229aa110-5c60-4f22-9610-b3b8a658e04d"
        }
      }, {
        "item": {
          "reference": "urn:uuid:1e763d0c-40e7-4b00-b915-bf76a23b0d67"
        }
      }, {
        "item": {
          "reference": "urn:uuid:51af4cfe-f228-4997-a8d2-60b27b8c9029"
        }
      }, {
        "item": {
          "reference": "urn:uuid:97bcbc10-b578-40b1-bbb6-37b08837ae04"
        }
      }, {
        "item": {
          "reference": "urn:uuid:76c0197c-5013-4980-8c53-9a6ea2f059e6"
        }
      }, {
        "item": {
          "reference": "urn:uuid:edd9b18c-f799-4b3b-a118-92c0f75e1355"
        }
      }, {
        "item": {
          "reference": "urn:uuid:c3dabb98-a493-48ce-a616-7faba15d26fa"
        }
      }, {
        "item": {
          "reference": "urn:uuid:d0da6d2b-afb4-4af8-b001-87f2d6826e47"
        }
      }, {
        "item": {
          "reference": "urn:uuid:0ca8b0c6-5388-43e7-9961-88f860e5b2f7"
        }
      }, {
        "item": {
          "reference": "urn:uuid:00df4e79-23b5-4bfd-bfd5-e3d3c17f193c"
        }
      }, {
        "item": {
          "reference": "urn:uuid:4de63f8b-6b4a-4849-a18f-7871e3c2f53a"
        }
      } ]
    }
  } ]
}