{
  "resourceType": "Bundle",
  "meta": {
    "lastUpdated": "2022-05-12T06:46:12.610+00:00"
  },
  "identifier": {
    "type": {
      "text": "ClinicalDocument VersionNumber"
    },
    "value": "2"
  },
  "type": "message",
  "entry": [ {
    "fullUrl": "urn:uuid:2B77B3F5-3016-4A6D-821F-152CE420E58D",
    "resource": {
      "resourceType": "MessageHeader",
      "id": "2B77B3F5-3016-4A6D-821F-152CE420E58D",
      "event": {
        "system": "https://fhir.nhs.uk/STU3/CodeSystem/EventType-1",
        "code": "referral-1",
        "display": "Referral"
      },
      "destination": [ {
        "endpoint": "urn:nhs-uk:addressing:ods:EM396"
      } ],
      "timestamp": "2017-01-01T20:00:00.000+00:00",
      "source": {
        "name": "NHS 111 Adaptor",
        "endpoint": "http://localhost:8080/report"
      },
      "reason": {
        "coding": [ {
          "system": "urn:nhs-itk:ns:201005:interaction",
          "code": "urn:nhs-itk:interaction:primaryEmergencyDepartmentRecipientNHS111CDADocument-v2-0"
        } ]
      }
    }
  }, {
    "fullUrl": "urn:uuid:21f8e773-a011-482a-b87c-9b544cdf443c",
    "resource": {
      "resourceType": "Encounter",
      "id": "21f8e773-a011-482a-b87c-9b544cdf443c",
      "identifier": [ {
        "system": "2.16.840.1.113883.2.1.3.2.4.18.49",
        "value": "LOC665"
      }, {
        "system": "2.16.840.1.113883.2.1.3.2.4.18.34",
        "value": "CASEREF1234"
      }, {
        "system": "2.16.840.1.113883.2.1.3.2.4.18.35",
        "value": "CASEID123"
      } ],
      "status": "finished",
      "type": [ {
        "text": "111 Encounter Referral"
      } ],
      "subject": {
        "reference": "urn:uuid:30116d61-00b8-4b39-880a-7f818331717d"
      },
      "participant": [ {
        "type": [ {
          "text": "CALLBCK"
        } ],
        "individual": {
          "reference": "urn:uuid:4d97e531-afc3-44cd-99ba-fefa953f3654"
        }
      }, {
        "type": [ {
          "coding": [ {
            "system": "http://hl7.org/fhir/ValueSet/encounter-participant-type",
            "code": "PPRF",
            "display": "Author"
          } ]
        } ],
        "individual": {
          "reference": "urn:uuid:9466cac9-bd8b-48f8-9a6a-5c00023a427f"
        }
      }, {
        "type": [ {
          "text": "Informant"
        } ],
        "individual": {
          "reference": "urn:uuid:81f8cfa7-81b3-4c2f-b3ce-f1fe9cf863bf"
        }
      }, {
        "type": [ {
          "coding": [ {
            "system": "http://hl7.org/fhir/ValueSet/encounter-participant-type",
            "code": "ATND",
            "display": "Responsible Party"
          } ]
        } ],
        "individual": {
          "reference": "urn:uuid:044c7672-52a5-43b6-8b20-49493c70aec7"
        }
      } ],
      "appointment": {
        "reference": "urn:uuid:561c118b-f6ac-4074-9538-4b2cf2253b3c"
      },
      "period": {
        "start": "2017-01-01T19:45:00+00:00",
        "end": "2017-01-01T20:15:00+00:00"
      },
      "location": [ {
        "location": {
          "reference": "urn:uuid:32b13a77-db2a-4d5f-9ed9-50bf4be3bb24"
        },
        "status": "active"
      }, {
        "location": {
          "reference": "urn:uuid:8e65a988-e065-4554-be4b-58e1c6f1659f"
        },
        "status": "completed"
      } ],
      "serviceProvider": {
        "reference": "urn:uuid:b2e92d25-a815-4adc-ae42-541ff44af332"
      }
    }
  }, {
    "fullUrl": "urn:uuid:b2e92d25-a815-4adc-ae42-541ff44af332",
    "resource": {
      "resourceType": "Organization",
      "id": "b2e92d25-a815-4adc-ae42-541ff44af332",
      "active": true,
      "type": [ {
        "text": "CST"
      } ],
      "name": "Medway NHS Foundation Trust"
    }
  }, {
    "fullUrl": "urn:uuid:4d97e531-afc3-44cd-99ba-fefa953f3654",
    "resource": {
      "resourceType": "Practitioner",
      "id": "4d97e531-afc3-44cd-99ba-fefa953f3654",
      "active": true,
      "name": [ {
        "text": "Call Centre Manager"
      } ],
      "telecom": [ {
        "system": "phone",
        "value": "tel:08001111111"
      } ]
    }
  }, {
    "fullUrl": "urn:uuid:9466cac9-bd8b-48f8-9a6a-5c00023a427f",
    "resource": {
      "resourceType": "Practitioner",
      "id": "9466cac9-bd8b-48f8-9a6a-5c00023a427f",
      "active": true,
      "name": [ {
        "use": "official",
        "family": "Jones",
        "given": [ "Mary" ]
      } ]
    }
  }, {
    "fullUrl": "urn:uuid:81f8cfa7-81b3-4c2f-b3ce-f1fe9cf863bf",
    "resource": {
      "resourceType": "RelatedPerson",
      "id": "81f8cfa7-81b3-4c2f-b3ce-f1fe9cf863bf",
      "active": true,
      "patient": {
        "reference": "urn:uuid:30116d61-00b8-4b39-880a-7f818331717d"
      },
      "relationship": {
        "coding": [ {
          "system": "2.16.840.1.113883.2.1.3.2.4.16.45",
          "code": "01",
          "display": "Spouse"
        } ]
      },
      "name": [ {
        "use": "official",
        "family": "Bloggs",
        "given": [ "Helga" ]
      } ],
      "telecom": [ {
        "system": "phone",
        "value": "tel:07886554123",
        "use": "mobile"
      }, {
        "system": "phone",
        "value": "tel:01783678321"
      } ],
      "gender": "unknown",
      "address": [ {
        "use": "home",
        "line": [ "43 Summers Avenue", "Somerset Street" ],
        "city": "Medway",
        "postalCode": "ME5 7TY"
      } ]
    }
  }, {
    "fullUrl": "urn:uuid:044c7672-52a5-43b6-8b20-49493c70aec7",
    "resource": {
      "resourceType": "Practitioner",
      "id": "044c7672-52a5-43b6-8b20-49493c70aec7",
      "active": true,
      "name": [ {
        "use": "official",
        "family": "Cornwell",
        "given": [ "Dave" ]
      } ]
    }
  }, {
    "fullUrl": "urn:uuid:32b13a77-db2a-4d5f-9ed9-50bf4be3bb24",
    "resource": {
      "resourceType": "Location",
      "id": "32b13a77-db2a-4d5f-9ed9-50bf4be3bb24",
      "managingOrganization": {
        "reference": "urn:uuid:7383b573-c88d-4460-bdcb-f0da0a52b867"
      }
    }
  }, {
    "fullUrl": "urn:uuid:7383b573-c88d-4460-bdcb-f0da0a52b867",
    "resource": {
      "resourceType": "Organization",
      "id": "7383b573-c88d-4460-bdcb-f0da0a52b867",
      "identifier": [ {
        "value": "V396F"
      } ],
      "type": [ {
        "text": "GP Practice"
      } ],
      "name": "Medway Medical Practice",
      "telecom": [ {
        "system": "phone",
        "value": "tel:01634111222",
        "use": "work"
      } ],
      "address": [ {
        "use": "work",
        "line": [ "Springer Street" ],
        "city": "Medway",
        "postalCode": "ME5 5TY"
      } ]
    }
  }, {
    "fullUrl": "urn:uuid:8e65a988-e065-4554-be4b-58e1c6f1659f",
    "resource": {
      "resourceType": "Location",
      "id": "8e65a988-e065-4554-be4b-58e1c6f1659f",
      "name": "Incident Location",
      "address": {
        "type": "physical",
        "text": "Follow the high street and turn left by Boots",
        "line": [ "2, Brancaster Road" ],
        "city": "Medway",
        "postalCode": "ME5 4LS",
        "country": "GB"
      }
    }
  }, {
    "fullUrl": "urn:uuid:30116d61-00b8-4b39-880a-7f818331717d",
    "resource": {
      "resourceType": "Patient",
      "id": "30116d61-00b8-4b39-880a-7f818331717d",
      "language": "en",
      "identifier": [ {
        "extension": [ {
          "url": "https://fhir.hl7.org.uk/STU3/StructureDefinition/Extension-CareConnect-NHSNumberVerificationStatus-1",
          "valueCodeableConcept": {
            "coding": [ {
              "system": "https://fhir.hl7.org.uk/STU3/StructureDefinition/Extension-CareConnect-NHSNumberVerificationStatus-1",
              "code": "02"
            } ]
          }
        } ],
        "system": "https://fhir.nhs.uk/Id/nhs-number",
        "value": "993254128"
      } ],
      "active": true,
      "name": [ {
        "use": "official",
        "family": "Joe",
        "given": [ "Blogg" ],
        "prefix": [ "Mr" ]
      } ],
      "telecom": [ {
        "system": "phone",
        "value": "tel:01634775667",
        "use": "home"
      }, {
        "system": "phone",
        "value": "tel:01634451628",
        "use": "home"
      }, {
        "system": "email",
        "value": "mailto:Joe.Blogg@emailfree.co.uk",
        "use": "home"
      } ],
      "gender": "male",
      "birthDate": "1989-01-01",
      "address": [ {
        "use": "home",
        "line": [ "17, County Avenue", "Woodtown" ],
        "city": "Medway",
        "postalCode": "ME5 FS3"
      } ],
      "generalPractitioner": [ {
        "reference": "urn:uuid:6f3a6e23-1880-443d-b94d-056eeec79ee5"
      } ]
    }
  }, {
    "fullUrl": "urn:uuid:6f3a6e23-1880-443d-b94d-056eeec79ee5",
    "resource": {
      "resourceType": "Organization",
      "id": "6f3a6e23-1880-443d-b94d-056eeec79ee5",
      "identifier": [ {
        "value": "V396F"
      } ],
      "type": [ {
        "text": "GP Practice"
      } ],
      "name": "Medway Medical Practice",
      "telecom": [ {
        "system": "phone",
        "value": "tel:01634111222",
        "use": "work"
      } ],
      "address": [ {
        "use": "work",
        "line": [ "Springer Street" ],
        "city": "Medway",
        "postalCode": "ME5 5TY"
      } ]
    }
  }, {
    "fullUrl": "urn:uuid:7f4b93e6-c66f-4c8b-8908-6578ea577d3f",
    "resource": {
      "resourceType": "HealthcareService",
      "id": "7f4b93e6-c66f-4c8b-8908-6578ea577d3f",
      "active": true,
      "providedBy": {
        "reference": "urn:uuid:987b3483-45de-451e-b4be-1ba446f3f4c6"
      },
      "location": [ {
        "reference": "urn:uuid:f96cd4a8-474c-4e36-944f-d4fb9884ed56"
      } ],
      "name": "Thames Medical Practice",
      "telecom": [ {
        "system": "phone",
        "value": "tel:0123476895",
        "use": "work"
      } ]
    }
  }, {
    "fullUrl": "urn:uuid:f96cd4a8-474c-4e36-944f-d4fb9884ed56",
    "resource": {
      "resourceType": "Location",
      "id": "f96cd4a8-474c-4e36-944f-d4fb9884ed56",
      "telecom": [ {
        "system": "phone",
        "value": "tel:0123476895",
        "use": "work"
      } ],
      "address": {
        "use": "work",
        "line": [ "Thames Medical Practice", "Hill Street Branch Surgery", "Medway", "Essex" ],
        "postalCode": "ME4 5TT"
      },
      "managingOrganization": {
        "reference": "urn:uuid:987b3483-45de-451e-b4be-1ba446f3f4c6"
      }
    }
  }, {
    "fullUrl": "urn:uuid:987b3483-45de-451e-b4be-1ba446f3f4c6",
    "resource": {
      "resourceType": "Organization",
      "id": "987b3483-45de-451e-b4be-1ba446f3f4c6",
      "identifier": [ {
        "value": "PRA123"
      } ],
      "type": [ {
        "coding": [ {
          "code": "PRCP",
          "display": "Thames Medical Practice"
        } ]
      } ],
      "name": "Thames Medical Practice"
    }
  }, {
    "fullUrl": "urn:uuid:81ed4286-3a7f-484c-b6e3-33f0c9252071",
    "resource": {
      "resourceType": "HealthcareService",
      "id": "81ed4286-3a7f-484c-b6e3-33f0c9252071",
      "active": true,
      "providedBy": {
        "reference": "urn:uuid:1a7f7287-3899-4fa7-ab31-517921f7271e"
      },
      "location": [ {
        "reference": "urn:uuid:2666882c-e6ee-4289-8a3e-17fbc18ac0d8"
      } ],
      "name": "Medway Kent Out of Hours Clinic"
    }
  }, {
    "fullUrl": "urn:uuid:2666882c-e6ee-4289-8a3e-17fbc18ac0d8",
    "resource": {
      "resourceType": "Location",
      "id": "2666882c-e6ee-4289-8a3e-17fbc18ac0d8",
      "managingOrganization": {
        "reference": "urn:uuid:1a7f7287-3899-4fa7-ab31-517921f7271e"
      }
    }
  }, {
    "fullUrl": "urn:uuid:1a7f7287-3899-4fa7-ab31-517921f7271e",
    "resource": {
      "resourceType": "Organization",
      "id": "1a7f7287-3899-4fa7-ab31-517921f7271e",
      "identifier": [ {
        "value": "EM396"
      } ],
      "type": [ {
        "coding": [ {
          "code": "PRCP",
          "display": "Medway Kent Out of Hours Clinic"
        } ]
      } ],
      "name": "Medway Kent Out of Hours Clinic"
    }
  }, {
    "fullUrl": "urn:uuid:6dc1686e-f1dc-43f5-8bde-1a0723e6576a",
    "resource": {
      "resourceType": "ReferralRequest",
      "id": "6dc1686e-f1dc-43f5-8bde-1a0723e6576a",
      "status": "active",
      "intent": "plan",
      "priority": "routine",
      "subject": {
        "reference": "urn:uuid:30116d61-00b8-4b39-880a-7f818331717d"
      },
      "context": {
        "reference": "urn:uuid:21f8e773-a011-482a-b87c-9b544cdf443c"
      },
      "occurrencePeriod": {
        "start": "2017-01-01T20:00:00+00:00"
      },
      "authoredOn": "2019-01-01T20:00:00+00:00",
      "requester": {
        "agent": {
          "reference": "urn:uuid:e6eb5e6e-4131-4e1e-9157-b32230d3b097"
        },
        "onBehalfOf": {
          "reference": "urn:uuid:b2e92d25-a815-4adc-ae42-541ff44af332"
        }
      },
      "recipient": [ {
        "reference": "urn:uuid:f7289a74-122b-456e-8b03-26c4e00a3950"
      }, {
        "reference": "urn:uuid:7f4b93e6-c66f-4c8b-8908-6578ea577d3f"
      }, {
        "reference": "urn:uuid:81ed4286-3a7f-484c-b6e3-33f0c9252071"
      } ],
      "reasonReference": [ {
        "reference": "urn:uuid:6b1da48a-1fee-4d01-9f6e-5d8cb7148e34"
      } ],
      "supportingInfo": [ {
        "reference": "urn:uuid:6fc0d962-b782-48a7-865c-301b5d0e2d23"
      } ]
    }
  }, {
    "fullUrl": "urn:uuid:6fc0d962-b782-48a7-865c-301b5d0e2d23",
    "resource": {
      "resourceType": "ProcedureRequest",
      "id": "6fc0d962-b782-48a7-865c-301b5d0e2d23",
      "status": "active",
      "intent": "plan",
      "priority": "routine",
      "doNotPerform": false,
      "code": {
        "coding": [ {
          "system": "2.16.840.1.113883.2.1.3.2.4.17.325",
          "code": "Dx001",
          "display": "Passed onto clinical hub"
        } ]
      },
      "subject": {
        "reference": "urn:uuid:30116d61-00b8-4b39-880a-7f818331717d"
      },
      "occurrencePeriod": {
        "start": "2017-01-01T20:00:00+00:00"
      },
      "reasonReference": [ {
        "reference": "urn:uuid:6b1da48a-1fee-4d01-9f6e-5d8cb7148e34"
      } ]
    }
  }, {
    "fullUrl": "urn:uuid:f7289a74-122b-456e-8b03-26c4e00a3950",
    "resource": {
      "resourceType": "Practitioner",
      "id": "f7289a74-122b-456e-8b03-26c4e00a3950",
      "active": true,
      "telecom": [ {
        "system": "phone",
        "value": "tel:0123456789"
      } ],
      "address": [ {
        "type": "physical",
        "line": [ "Church Street Walk in Centre", "4 Church Street", "Medway" ],
        "postalCode": "ME8 7TT"
      } ]
    }
  }, {
    "fullUrl": "urn:uuid:9954d7c3-d91a-49f8-be8d-e68a9c14e3a5",
    "resource": {
      "resourceType": "Composition",
      "id": "9954d7c3-d91a-49f8-be8d-e68a9c14e3a5",
      "identifier": {
        "use": "usual",
        "value": "411910CF-1A76-4330-98FE-C345DDEE5553"
      },
      "status": "final",
      "type": {
        "coding": [ {
          "system": "http://snomed.info/sct",
          "code": "371531000",
          "display": "Report of clinical encounter (record artifact)"
        } ]
      },
      "subject": {
        "reference": "urn:uuid:30116d61-00b8-4b39-880a-7f818331717d"
      },
      "encounter": {
        "reference": "urn:uuid:21f8e773-a011-482a-b87c-9b544cdf443c"
      },
      "date": "2017-01-01T20:00:00+00:00",
      "author": [ {
        "reference": "urn:uuid:9466cac9-bd8b-48f8-9a6a-5c00023a427f"
      } ],
      "title": "111 Report",
      "confidentiality": "V",
      "section": [ {
        "section": [ {
          "title": "Permission to View",
          "text": {
            "status": "generated",
            "div": "<div xmlns=\"http://www.w3.org/1999/xhtml\">&lt;table&gt;\n                                                        &lt;tbody&gt;\n                                                            &lt;tr&gt;\n                                                                &lt;th&gt;Permission to view outcome&lt;/th&gt;\n                                                                &lt;td&gt;Permission to view obtained&lt;/td&gt;\n                                                            &lt;/tr&gt;\n                                                            &lt;tr&gt;\n                                                                &lt;th&gt;Date obtained&lt;/th&gt;\n                                                                &lt;td&gt;01-Jan-2017, 20:00&lt;/td&gt;\n                                                            &lt;/tr&gt;\n                                                            &lt;tr&gt;\n                                                                &lt;th&gt;Date expires&lt;/th&gt;\n                                                                &lt;td&gt;15-Jan-2017, 20:00&lt;/td&gt;\n                                                            &lt;/tr&gt;\n                                                        &lt;/tbody&gt;\n                                                    &lt;/table&gt;</div>"
          }
        }, {
          "title": "Primary Reason for Call",
          "text": {
            "status": "generated",
            "div": "<div xmlns=\"http://www.w3.org/1999/xhtml\">&lt;content&gt;Patient feels dizzy.&lt;/content&gt;</div>"
          },
          "section": [ {
            "title": "SUBSUB2",
            "text": {
              "status": "generated",
              "div": "<div xmlns=\"http://www.w3.org/1999/xhtml\">&lt;content&gt;SUBSUB2&lt;/content&gt;</div>"
            },
            "section": [ {
              "title": "SUBSUB3",
              "text": {
                "status": "generated",
                "div": "<div xmlns=\"http://www.w3.org/1999/xhtml\">&lt;content&gt;SUBSUB3&lt;/content&gt;</div>"
              }
            } ]
          } ]
        }, {
          "title": "Clinical Summary",
          "text": {
            "status": "generated",
            "div": "<div xmlns=\"http://www.w3.org/1999/xhtml\">&lt;content&gt;\n                                                        Patient fels nausea and dizzy after waking up. Lasted 30\n                                                        minutes.\n                                                    &lt;/content&gt;</div>"
          }
        }, {
          "title": "Additional Patient Notes",
          "text": {
            "status": "generated",
            "div": "<div xmlns=\"http://www.w3.org/1999/xhtml\">Additional Patient Notes\n                                                    &lt;br/&gt;\n                                                    Additional Patient Notes abc 01-Feb-2017, 12:00\n                                                    &lt;br/&gt;</div>"
          },
          "section": [ {
            "text": {
              "status": "generated",
              "div": "<div xmlns=\"http://www.w3.org/1999/xhtml\">These are more notes, nested under the top one.</div>"
            }
          } ]
        }, {
          "title": "Disposition Details",
          "text": {
            "status": "generated",
            "div": "<div xmlns=\"http://www.w3.org/1999/xhtml\">&lt;content&gt;Lie down.&lt;/content&gt;</div>"
          }
        }, {
          "title": "Information and advice given",
          "text": {
            "status": "generated",
            "div": "<div xmlns=\"http://www.w3.org/1999/xhtml\">&lt;content&gt;Do not perform any strenuous activities.&lt;/content&gt;</div>"
          }
        }, {
          "title": "Recorded Allergies",
          "text": {
            "status": "generated",
            "div": "<div xmlns=\"http://www.w3.org/1999/xhtml\">&lt;content&gt;No known allergies or adverse reaction.&lt;/content&gt;</div>"
          }
        }, {
          "title": "Triage Report",
          "text": {
            "status": "generated",
            "div": "<div xmlns=\"http://www.w3.org/1999/xhtml\">&lt;content&gt;An injury or other health problem was described.\n                                                        &lt;br/&gt;The individual was described as breathing and conscious.\n                                                        &lt;br/&gt;Loss of at least a mugful of blood in the last 30 minutes\n                                                        was not described.\n                                                        &lt;br/&gt;An illness or other health problem was described. -\n                                                        Dizziness\n                                                        &lt;br/&gt;Fighting for breath was not described.\n                                                        &lt;br/&gt;A heart attack, chest/upper back pain, recent probable\n                                                        stroke, recent fit/seizure or suicide attempt was not described\n                                                        as the main call reason.\n                                                        &lt;br/&gt;Dizziness and nausea was described.\n                                                        &lt;br/&gt;\n                                                    &lt;/content&gt;</div>"
          }
        }, {
          "title": "Prescribed Items",
          "text": {
            "status": "generated",
            "div": "<div xmlns=\"http://www.w3.org/1999/xhtml\">&lt;content&gt;\n                                                        Medications\n                                                    &lt;/content&gt;</div>"
          }
        }, {
          "title": "Appointment Reference",
          "text": {
            "status": "generated",
            "div": "<div xmlns=\"http://www.w3.org/1999/xhtml\">&lt;content&gt;\n                                                        Date/Time: 01 June 2017 14:00\n                                                        Location: CENTRAL LONDON COMMUNITY HEALTHCARE NHS TRUST\n                                                        Psychiatric Community Care Service\n                                                    &lt;/content&gt;</div>"
          }
        } ]
      }, {
        "title": "CarePlan",
        "entry": [ {
          "reference": "urn:uuid:3a6c9a98-27a7-48aa-8227-77c318ef4a58"
        } ]
      }, {
        "title": "ReferralRequest",
        "entry": [ {
          "reference": "urn:uuid:6dc1686e-f1dc-43f5-8bde-1a0723e6576a"
        } ]
      }, {
        "title": "QuestionnaireResponse",
        "entry": [ {
          "reference": "urn:uuid:dbeecb5b-6f67-40fc-884c-9c309fa846b5"
        } ]
      }, {
        "title": "QuestionnaireResponse",
        "entry": [ {
          "reference": "urn:uuid:9aca58b4-78aa-4201-aa52-390b4d30b847"
        } ]
      }, {
        "title": "QuestionnaireResponse",
        "entry": [ {
          "reference": "urn:uuid:8f85f46a-8542-4110-aad2-37d85f389d06"
        } ]
      }, {
        "title": "QuestionnaireResponse",
        "entry": [ {
          "reference": "urn:uuid:9ed79a0e-18cb-4c10-971b-9dbf10673d85"
        } ]
      }, {
        "title": "QuestionnaireResponse",
        "entry": [ {
          "reference": "urn:uuid:4282fd8a-014d-46f7-bba2-b065639bbf78"
        } ]
      }, {
        "title": "QuestionnaireResponse",
        "entry": [ {
          "reference": "urn:uuid:8aeebaf3-7a69-4ea0-8149-a14ed167f3e1"
        } ]
      }, {
        "title": "QuestionnaireResponse",
        "entry": [ {
          "reference": "urn:uuid:607f9596-a0ec-4099-bf26-c3a610b27cbe"
        } ]
      }, {
        "title": "QuestionnaireResponse",
        "entry": [ {
          "reference": "urn:uuid:4d758218-fbe7-4b55-a476-ffdb6a4396e0"
        } ]
      }, {
        "title": "QuestionnaireResponse",
        "entry": [ {
          "reference": "urn:uuid:fb29f7ad-d56b-442f-b129-62936ef88b24"
        } ]
      }, {
        "title": "QuestionnaireResponse",
        "entry": [ {
          "reference": "urn:uuid:524e845e-1093-4e86-aebd-6b5855c6d47a"
        } ]
      }, {
        "title": "QuestionnaireResponse",
        "entry": [ {
          "reference": "urn:uuid:d35ebfef-7326-4f50-a61e-22bbc12a80f0"
        } ]
      }, {
        "title": "QuestionnaireResponse",
        "entry": [ {
          "reference": "urn:uuid:f5353022-2920-4d84-a131-612cff4c7082"
        } ]
      }, {
        "title": "QuestionnaireResponse",
        "entry": [ {
          "reference": "urn:uuid:4c5b6465-5650-45e0-ab6c-978a35f085ac"
        } ]
      }, {
        "title": "QuestionnaireResponse",
        "entry": [ {
          "reference": "urn:uuid:63b3788c-11cb-4543-afe1-e81ca12c5922"
        } ]
      }, {
        "title": "QuestionnaireResponse",
        "entry": [ {
          "reference": "urn:uuid:8d5c8e7a-6009-4f33-8a4a-990d5f8e762b"
        } ]
      }, {
        "title": "QuestionnaireResponse",
        "entry": [ {
          "reference": "urn:uuid:2ac825c8-b5be-4aff-8735-22af14b3f9e6"
        } ]
      }, {
        "title": "QuestionnaireResponse",
        "entry": [ {
          "reference": "urn:uuid:cf25b1f5-c2ac-4282-8bee-5e33cd8b7f3a"
        } ]
      }, {
        "title": "QuestionnaireResponse",
        "entry": [ {
          "reference": "urn:uuid:cd9090da-14bc-468a-8d14-6740dd46b72e"
        } ]
      }, {
        "title": "QuestionnaireResponse",
        "entry": [ {
          "reference": "urn:uuid:5117a23e-eece-4a0a-8d55-59cb3c1ff30c"
        } ]
      }, {
        "title": "QuestionnaireResponse",
        "entry": [ {
          "reference": "urn:uuid:1a74e6b4-27ef-4972-a0bc-9ca77384cdd2"
        } ]
      }, {
        "title": "QuestionnaireResponse",
        "entry": [ {
          "reference": "urn:uuid:406f6f20-6b2a-4513-9b09-c5d509974ad1"
        } ]
      }, {
        "title": "QuestionnaireResponse",
        "entry": [ {
          "reference": "urn:uuid:97918b8a-728b-4ead-9fcb-8f167ddac6ae"
        } ]
      }, {
        "title": "QuestionnaireResponse",
        "entry": [ {
          "reference": "urn:uuid:bda315b0-5a50-4ae4-beec-95e613c786cd"
        } ]
      }, {
        "title": "QuestionnaireResponse",
        "entry": [ {
          "reference": "urn:uuid:23513e59-fbcd-47c7-b5ea-7f034a04be5f"
        } ]
      } ]
    }
  }, {
    "fullUrl": "urn:uuid:3a6c9a98-27a7-48aa-8227-77c318ef4a58",
    "resource": {
      "resourceType": "CarePlan",
      "id": "3a6c9a98-27a7-48aa-8227-77c318ef4a58",
      "status": "completed",
      "intent": "plan",
      "title": "Information and advice given",
      "description": "Do not perform any strenuous activities.",
      "subject": {
        "reference": "urn:uuid:30116d61-00b8-4b39-880a-7f818331717d"
      },
      "context": {
        "reference": "urn:uuid:21f8e773-a011-482a-b87c-9b544cdf443c"
      },
      "period": {
        "start": "2017-01-01T19:45:00+00:00",
        "end": "2017-01-01T20:15:00+00:00"
      },
      "author": [ {
        "reference": "urn:uuid:7383b573-c88d-4460-bdcb-f0da0a52b867"
      } ],
      "addresses": [ {
        "reference": "urn:uuid:6b1da48a-1fee-4d01-9f6e-5d8cb7148e34"
      } ]
    }
  }, {
    "fullUrl": "urn:uuid:bfd9a633-7eca-4ce6-aaa2-fe6690301ab1",
    "resource": {
      "resourceType": "Consent",
      "id": "bfd9a633-7eca-4ce6-aaa2-fe6690301ab1",
      "text": {
        "status": "generated",
        "div": "<div xmlns=\"http://www.w3.org/1999/xhtml\">\n                                                    <table>\n                                                        <tbody>\n                                                            <tr>\n                                                                <th>Permission to view outcome</th>\n                                                                <td>Permission to view obtained</td>\n                                                            </tr>\n                                                            <tr>\n                                                                <th>Date obtained</th>\n                                                                <td>01-Jan-2017, 20:00</td>\n                                                            </tr>\n                                                            <tr>\n                                                                <th>Date expires</th>\n                                                                <td>15-Jan-2017, 20:00</td>\n                                                            </tr>\n                                                        </tbody>\n                                                    </table>\n                                                </div>"
      },
      "identifier": {
        "use": "usual",
        "value": "411910CF-1A76-4330-98FE-C345DDEE5553"
      },
      "status": "active",
      "patient": {
        "reference": "urn:uuid:30116d61-00b8-4b39-880a-7f818331717d"
      },
      "period": {
        "start": "2017-01-01T19:45:00+00:00",
        "end": "2017-01-01T20:15:00+00:00"
      },
      "consentingParty": [ {
        "reference": "urn:uuid:30116d61-00b8-4b39-880a-7f818331717d"
      } ],
      "action": [ {
        "coding": [ {
          "system": "http://snomed.info/sct",
          "code": "425691002",
          "display": "Consent given for electronic record sharing"
        } ],
        "text": "Consent given for electronic record sharing"
      } ],
      "organization": [ {
        "reference": "urn:uuid:b2e92d25-a815-4adc-ae42-541ff44af332"
      } ],
      "sourceIdentifier": {
        "value": "41D9F90F-6DB7-4939-BEF5-F8D75D79ECDD"
      },
      "policyRule": "http://hl7.org/fhir/ConsentPolicy/opt-out",
      "dataPeriod": {
        "start": "2011-05-19T20:00:00+00:00",
        "end": "2011-05-26T20:00:00+00:00"
      },
      "data": [ {
        "meaning": "related",
        "reference": {
          "reference": "urn:uuid:21f8e773-a011-482a-b87c-9b544cdf443c"
        }
      } ]
    }
  }, {
    "fullUrl": "urn:uuid:6b1da48a-1fee-4d01-9f6e-5d8cb7148e34",
    "resource": {
      "resourceType": "Condition",
      "id": "6b1da48a-1fee-4d01-9f6e-5d8cb7148e34",
      "clinicalStatus": "active",
      "verificationStatus": "unknown",
      "code": {
        "coding": [ {
          "system": "22298006",
          "code": "2.16.840.1.113883.2.1.3.2.4.15",
          "display": "Myocardial infarction"
        } ]
      },
      "subject": {
        "reference": "urn:uuid:30116d61-00b8-4b39-880a-7f818331717d"
      },
      "context": {
        "reference": "urn:uuid:21f8e773-a011-482a-b87c-9b544cdf443c"
      },
      "assertedDate": "2017-06-01T14:00:00+00:00",
      "evidence": [ {
        "detail": [ {
          "reference": "urn:uuid:dbeecb5b-6f67-40fc-884c-9c309fa846b5"
        } ]
      }, {
        "detail": [ {
          "reference": "urn:uuid:9aca58b4-78aa-4201-aa52-390b4d30b847"
        } ]
      }, {
        "detail": [ {
          "reference": "urn:uuid:8f85f46a-8542-4110-aad2-37d85f389d06"
        } ]
      }, {
        "detail": [ {
          "reference": "urn:uuid:9ed79a0e-18cb-4c10-971b-9dbf10673d85"
        } ]
      }, {
        "detail": [ {
          "reference": "urn:uuid:4282fd8a-014d-46f7-bba2-b065639bbf78"
        } ]
      }, {
        "detail": [ {
          "reference": "urn:uuid:8aeebaf3-7a69-4ea0-8149-a14ed167f3e1"
        } ]
      }, {
        "detail": [ {
          "reference": "urn:uuid:607f9596-a0ec-4099-bf26-c3a610b27cbe"
        } ]
      }, {
        "detail": [ {
          "reference": "urn:uuid:4d758218-fbe7-4b55-a476-ffdb6a4396e0"
        } ]
      }, {
        "detail": [ {
          "reference": "urn:uuid:fb29f7ad-d56b-442f-b129-62936ef88b24"
        } ]
      }, {
        "detail": [ {
          "reference": "urn:uuid:524e845e-1093-4e86-aebd-6b5855c6d47a"
        } ]
      }, {
        "detail": [ {
          "reference": "urn:uuid:d35ebfef-7326-4f50-a61e-22bbc12a80f0"
        } ]
      }, {
        "detail": [ {
          "reference": "urn:uuid:f5353022-2920-4d84-a131-612cff4c7082"
        } ]
      }, {
        "detail": [ {
          "reference": "urn:uuid:4c5b6465-5650-45e0-ab6c-978a35f085ac"
        } ]
      }, {
        "detail": [ {
          "reference": "urn:uuid:63b3788c-11cb-4543-afe1-e81ca12c5922"
        } ]
      }, {
        "detail": [ {
          "reference": "urn:uuid:8d5c8e7a-6009-4f33-8a4a-990d5f8e762b"
        } ]
      }, {
        "detail": [ {
          "reference": "urn:uuid:2ac825c8-b5be-4aff-8735-22af14b3f9e6"
        } ]
      }, {
        "detail": [ {
          "reference": "urn:uuid:cf25b1f5-c2ac-4282-8bee-5e33cd8b7f3a"
        } ]
      }, {
        "detail": [ {
          "reference": "urn:uuid:cd9090da-14bc-468a-8d14-6740dd46b72e"
        } ]
      }, {
        "detail": [ {
          "reference": "urn:uuid:5117a23e-eece-4a0a-8d55-59cb3c1ff30c"
        } ]
      }, {
        "detail": [ {
          "reference": "urn:uuid:1a74e6b4-27ef-4972-a0bc-9ca77384cdd2"
        } ]
      }, {
        "detail": [ {
          "reference": "urn:uuid:406f6f20-6b2a-4513-9b09-c5d509974ad1"
        } ]
      }, {
        "detail": [ {
          "reference": "urn:uuid:97918b8a-728b-4ead-9fcb-8f167ddac6ae"
        } ]
      }, {
        "detail": [ {
          "reference": "urn:uuid:bda315b0-5a50-4ae4-beec-95e613c786cd"
        } ]
      }, {
        "detail": [ {
          "reference": "urn:uuid:23513e59-fbcd-47c7-b5ea-7f034a04be5f"
        } ]
      } ]
    }
  }, {
    "fullUrl": "urn:uuid:dbeecb5b-6f67-40fc-884c-9c309fa846b5",
    "resource": {
      "resourceType": "QuestionnaireResponse",
      "id": "dbeecb5b-6f67-40fc-884c-9c309fa846b5",
      "identifier": {
        "value": "8067b9b2-e604-4414-b56f-8e3cc4de4b1b"
      },
      "questionnaire": {
        "reference": "urn:uuid:640306df-80b3-45ea-bde0-803233acc441"
      },
      "status": "completed",
      "subject": {
        "reference": "urn:uuid:30116d61-00b8-4b39-880a-7f818331717d"
      },
      "context": {
        "reference": "urn:uuid:21f8e773-a011-482a-b87c-9b544cdf443c"
      },
      "authored": "2011-02-17T17:31:14+00:00",
      "item": [ {
        "linkId": "N/A"
      } ]
    }
  }, {
    "fullUrl": "urn:uuid:640306df-80b3-45ea-bde0-803233acc441",
    "resource": {
      "resourceType": "Questionnaire",
      "id": "640306df-80b3-45ea-bde0-803233acc441",
      "identifier": [ {
        "value": "8067b9b2-e604-4414-b56f-8e3cc4de4b1b"
      } ],
      "version": "2011-02-17T17:31:14.313Z",
      "status": "active",
      "experimental": false,
      "date": "2011-02-17T17:31:14+00:00",
      "publisher": "User ID: '3137' User name: 'redacted' User skill set: 'T1'",
      "lastReviewDate": "2011-02-17",
      "jurisdiction": [ {
        "text": "England"
      } ],
      "contact": [ {
        "telecom": [ {
          "system": "phone",
          "value": "redacted"
        } ]
      } ],
      "subjectType": [ "Patient" ],
      "item": [ {
        "linkId": "8067b9b2-e604-4414-b56f-8e3cc4de4b1b",
        "prefix": "0",
        "type": "choice",
        "required": true,
        "repeats": false,
        "option": [ {
          "valueString": ", Selected: false"
        } ]
      } ]
    }
  }, {
    "fullUrl": "urn:uuid:9aca58b4-78aa-4201-aa52-390b4d30b847",
    "resource": {
      "resourceType": "QuestionnaireResponse",
      "id": "9aca58b4-78aa-4201-aa52-390b4d30b847",
      "identifier": {
        "value": "8067b9b2-e604-4414-b56f-8e3cc4de4b1b"
      },
      "questionnaire": {
        "reference": "urn:uuid:caa57a4a-fddd-4445-91ec-c6f1192acdc8"
      },
      "status": "completed",
      "subject": {
        "reference": "urn:uuid:30116d61-00b8-4b39-880a-7f818331717d"
      },
      "context": {
        "reference": "urn:uuid:21f8e773-a011-482a-b87c-9b544cdf443c"
      },
      "authored": "2011-02-17T17:31:14+00:00",
      "item": [ {
        "linkId": "N/A"
      } ]
    }
  }, {
    "fullUrl": "urn:uuid:caa57a4a-fddd-4445-91ec-c6f1192acdc8",
    "resource": {
      "resourceType": "Questionnaire",
      "id": "caa57a4a-fddd-4445-91ec-c6f1192acdc8",
      "identifier": [ {
        "value": "8067b9b2-e604-4414-b56f-8e3cc4de4b1b"
      } ],
      "version": "2011-02-17T17:31:14.313Z",
      "status": "active",
      "experimental": false,
      "date": "2011-02-17T17:31:14+00:00",
      "publisher": "User ID: '3137' User name: 'redacted' User skill set: 'T1'",
      "lastReviewDate": "2011-02-17",
      "jurisdiction": [ {
        "text": "England"
      } ],
      "contact": [ {
        "telecom": [ {
          "system": "phone",
          "value": "redacted"
        } ]
      } ],
      "subjectType": [ "Patient" ],
      "item": [ {
        "linkId": "8067b9b2-e604-4414-b56f-8e3cc4de4b1b",
        "prefix": "0",
        "type": "choice",
        "required": true,
        "repeats": false,
        "option": [ {
          "valueString": ", Selected: false"
        } ]
      } ]
    }
  }, {
    "fullUrl": "urn:uuid:8f85f46a-8542-4110-aad2-37d85f389d06",
    "resource": {
      "resourceType": "QuestionnaireResponse",
      "id": "8f85f46a-8542-4110-aad2-37d85f389d06",
      "identifier": {
        "value": "8067b9b2-e604-4414-b56f-8e3cc4de4b1b"
      },
      "questionnaire": {
        "reference": "urn:uuid:55713f1d-2248-4dda-8d6f-6c559a4bb5ce"
      },
      "status": "completed",
      "subject": {
        "reference": "urn:uuid:30116d61-00b8-4b39-880a-7f818331717d"
      },
      "context": {
        "reference": "urn:uuid:21f8e773-a011-482a-b87c-9b544cdf443c"
      },
      "authored": "2011-02-17T17:31:14+00:00",
      "item": [ {
        "linkId": "Tx220109",
        "text": "What is the reason for the call?",
        "answer": [ {
          "valueString": "an injury or other health problem"
        } ]
      } ]
    }
  }, {
    "fullUrl": "urn:uuid:55713f1d-2248-4dda-8d6f-6c559a4bb5ce",
    "resource": {
      "resourceType": "Questionnaire",
      "id": "55713f1d-2248-4dda-8d6f-6c559a4bb5ce",
      "identifier": [ {
        "value": "8067b9b2-e604-4414-b56f-8e3cc4de4b1b"
      } ],
      "version": "2011-02-17T17:31:14.313Z",
      "status": "active",
      "experimental": false,
      "date": "2011-02-17T17:31:14+00:00",
      "publisher": "User ID: '3137' User name: 'redacted' User skill set: 'T1'",
      "lastReviewDate": "2011-02-17",
      "jurisdiction": [ {
        "text": "England"
      } ],
      "contact": [ {
        "telecom": [ {
          "system": "phone",
          "value": "redacted"
        } ]
      } ],
      "subjectType": [ "Patient" ],
      "item": [ {
        "linkId": "8067b9b2-e604-4414-b56f-8e3cc4de4b1b",
        "prefix": "5",
        "text": "What is the reason for the call?",
        "type": "choice",
        "required": true,
        "repeats": false,
        "option": [ {
          "valueString": "an injury or other health problem, Selected: true"
        }, {
          "valueString": "a need to access another healthcare provider, Selected: false"
        }, {
          "valueString": "a healthcare professional requesting contact with another clinician, Selected: false"
        }, {
          "valueString": "a report of results or tests, Selected: false"
        }, {
          "valueString": "more, Selected: false"
        } ]
      } ]
    }
  }, {
    "fullUrl": "urn:uuid:9ed79a0e-18cb-4c10-971b-9dbf10673d85",
    "resource": {
      "resourceType": "QuestionnaireResponse",
      "id": "9ed79a0e-18cb-4c10-971b-9dbf10673d85",
      "identifier": {
        "value": "8067b9b2-e604-4414-b56f-8e3cc4de4b1b"
      },
      "questionnaire": {
        "reference": "urn:uuid:edba8046-e449-4b20-b4d5-bb57c4dff0c8"
      },
      "status": "completed",
      "subject": {
        "reference": "urn:uuid:30116d61-00b8-4b39-880a-7f818331717d"
      },
      "context": {
        "reference": "urn:uuid:21f8e773-a011-482a-b87c-9b544cdf443c"
      },
      "authored": "2011-02-17T17:31:14+00:00",
      "item": [ {
        "linkId": "Tx140118",
        "text": "Has the baby just been born?",
        "answer": [ {
          "valueString": "no"
        } ]
      } ]
    }
  }, {
    "fullUrl": "urn:uuid:edba8046-e449-4b20-b4d5-bb57c4dff0c8",
    "resource": {
      "resourceType": "Questionnaire",
      "id": "edba8046-e449-4b20-b4d5-bb57c4dff0c8",
      "identifier": [ {
        "value": "8067b9b2-e604-4414-b56f-8e3cc4de4b1b"
      } ],
      "version": "2011-02-17T17:31:14.313Z",
      "status": "active",
      "experimental": false,
      "date": "2011-02-17T17:31:14+00:00",
      "publisher": "User ID: '3137' User name: 'redacted' User skill set: 'T1'",
      "lastReviewDate": "2011-02-17",
      "jurisdiction": [ {
        "text": "England"
      } ],
      "contact": [ {
        "telecom": [ {
          "system": "phone",
          "value": "redacted"
        } ]
      } ],
      "subjectType": [ "Patient" ],
      "item": [ {
        "linkId": "8067b9b2-e604-4414-b56f-8e3cc4de4b1b",
        "prefix": "35",
        "text": "Has the baby just been born?",
        "type": "choice",
        "required": true,
        "repeats": false,
        "option": [ {
          "valueString": "yes, Selected: false"
        }, {
          "valueString": "not sure, Selected: false"
        }, {
          "valueString": "no, Selected: true"
        } ]
      } ]
    }
  }, {
    "fullUrl": "urn:uuid:4282fd8a-014d-46f7-bba2-b065639bbf78",
    "resource": {
      "resourceType": "QuestionnaireResponse",
      "id": "4282fd8a-014d-46f7-bba2-b065639bbf78",
      "identifier": {
        "value": "8067b9b2-e604-4414-b56f-8e3cc4de4b1b"
      },
      "questionnaire": {
        "reference": "urn:uuid:a780a8b1-2465-48f9-9379-1c222da0b94d"
      },
      "status": "completed",
      "subject": {
        "reference": "urn:uuid:30116d61-00b8-4b39-880a-7f818331717d"
      },
      "context": {
        "reference": "urn:uuid:21f8e773-a011-482a-b87c-9b544cdf443c"
      },
      "authored": "2011-02-17T17:31:14+00:00",
      "item": [ {
        "linkId": "Tx220110",
        "text": "Is he breathing and conscious?",
        "answer": [ {
          "valueString": "breathing AND conscious"
        } ]
      } ]
    }
  }, {
    "fullUrl": "urn:uuid:a780a8b1-2465-48f9-9379-1c222da0b94d",
    "resource": {
      "resourceType": "Questionnaire",
      "id": "a780a8b1-2465-48f9-9379-1c222da0b94d",
      "identifier": [ {
        "value": "8067b9b2-e604-4414-b56f-8e3cc4de4b1b"
      } ],
      "version": "2011-02-17T17:31:14.313Z",
      "status": "active",
      "experimental": false,
      "date": "2011-02-17T17:31:14+00:00",
      "publisher": "User ID: '3137' User name: 'redacted' User skill set: 'T1'",
      "lastReviewDate": "2011-02-17",
      "jurisdiction": [ {
        "text": "England"
      } ],
      "contact": [ {
        "telecom": [ {
          "system": "phone",
          "value": "redacted"
        } ]
      } ],
      "subjectType": [ "Patient" ],
      "item": [ {
        "linkId": "8067b9b2-e604-4414-b56f-8e3cc4de4b1b",
        "prefix": "40",
        "text": "Is he breathing and conscious?",
        "type": "choice",
        "required": true,
        "repeats": false,
        "option": [ {
          "valueString": "breathing AND conscious, Selected: true"
        }, {
          "valueString": "breathing but NOT conscious (includes current fitting), Selected: false"
        }, {
          "valueString": "NOT breathing, Selected: false"
        }, {
          "valueString": "choking now, Selected: false"
        } ]
      } ]
    }
  }, {
    "fullUrl": "urn:uuid:8aeebaf3-7a69-4ea0-8149-a14ed167f3e1",
    "resource": {
      "resourceType": "QuestionnaireResponse",
      "id": "8aeebaf3-7a69-4ea0-8149-a14ed167f3e1",
      "identifier": {
        "value": "8067b9b2-e604-4414-b56f-8e3cc4de4b1b"
      },
      "questionnaire": {
        "reference": "urn:uuid:d44b0b32-e30f-4fcb-b544-7f9bd02d897d"
      },
      "status": "completed",
      "subject": {
        "reference": "urn:uuid:30116d61-00b8-4b39-880a-7f818331717d"
      },
      "context": {
        "reference": "urn:uuid:21f8e773-a011-482a-b87c-9b544cdf443c"
      },
      "authored": "2011-02-17T17:31:14+00:00",
      "item": [ {
        "linkId": "Tx220285",
        "text": "Has he been bleeding very heavily IN THE LAST HOUR?",
        "answer": [ {
          "valueString": "no"
        } ]
      } ]
    }
  }, {
    "fullUrl": "urn:uuid:d44b0b32-e30f-4fcb-b544-7f9bd02d897d",
    "resource": {
      "resourceType": "Questionnaire",
      "id": "d44b0b32-e30f-4fcb-b544-7f9bd02d897d",
      "identifier": [ {
        "value": "8067b9b2-e604-4414-b56f-8e3cc4de4b1b"
      } ],
      "version": "2011-02-17T17:31:14.313Z",
      "status": "active",
      "experimental": false,
      "date": "2011-02-17T17:31:14+00:00",
      "publisher": "User ID: '3137' User name: 'redacted' User skill set: 'T1'",
      "lastReviewDate": "2011-02-17",
      "jurisdiction": [ {
        "text": "England"
      } ],
      "contact": [ {
        "telecom": [ {
          "system": "phone",
          "value": "redacted"
        } ]
      } ],
      "subjectType": [ "Patient" ],
      "item": [ {
        "linkId": "8067b9b2-e604-4414-b56f-8e3cc4de4b1b",
        "prefix": "60",
        "text": "Has he been bleeding very heavily IN THE LAST HOUR?",
        "type": "choice",
        "required": true,
        "repeats": false,
        "option": [ {
          "valueString": "blood spurting from a wound, Selected: false"
        }, {
          "valueString": "an egg cupful or more of red blood from a body opening, Selected: false"
        }, {
          "valueString": "an egg cupful or more from a wound, Selected: false"
        }, {
          "valueString": "not sure, Selected: false"
        }, {
          "valueString": "no, Selected: true"
        } ]
      } ]
    }
  }, {
    "fullUrl": "urn:uuid:607f9596-a0ec-4099-bf26-c3a610b27cbe",
    "resource": {
      "resourceType": "QuestionnaireResponse",
      "id": "607f9596-a0ec-4099-bf26-c3a610b27cbe",
      "identifier": {
        "value": "8067b9b2-e604-4414-b56f-8e3cc4de4b1b"
      },
      "questionnaire": {
        "reference": "urn:uuid:4e49f961-1bf0-4334-84bc-24a4a0449375"
      },
      "status": "completed",
      "subject": {
        "reference": "urn:uuid:30116d61-00b8-4b39-880a-7f818331717d"
      },
      "context": {
        "reference": "urn:uuid:21f8e773-a011-482a-b87c-9b544cdf443c"
      },
      "authored": "2011-02-17T17:31:14+00:00",
      "item": [ {
        "linkId": "N/A",
        "text": "SocialConcernsExcluded",
        "answer": [ {
          "valueString": "*"
        } ]
      } ]
    }
  }, {
    "fullUrl": "urn:uuid:4e49f961-1bf0-4334-84bc-24a4a0449375",
    "resource": {
      "resourceType": "Questionnaire",
      "id": "4e49f961-1bf0-4334-84bc-24a4a0449375",
      "identifier": [ {
        "value": "8067b9b2-e604-4414-b56f-8e3cc4de4b1b"
      } ],
      "version": "2011-02-17T17:31:14.313Z",
      "status": "active",
      "experimental": false,
      "date": "2011-02-17T17:31:14+00:00",
      "publisher": "User ID: '3137' User name: 'redacted' User skill set: 'T1'",
      "lastReviewDate": "2011-02-17",
      "jurisdiction": [ {
        "text": "England"
      } ],
      "contact": [ {
        "telecom": [ {
          "system": "phone",
          "value": "redacted"
        } ]
      } ],
      "subjectType": [ "Patient" ],
      "item": [ {
        "linkId": "8067b9b2-e604-4414-b56f-8e3cc4de4b1b",
        "prefix": "2050",
        "text": "SocialConcernsExcluded",
        "type": "choice",
        "required": true,
        "repeats": false,
        "option": [ {
          "valueString": "==\"present\", Selected: false"
        }, {
          "valueString": "*, Selected: true"
        } ]
      } ]
    }
  }, {
    "fullUrl": "urn:uuid:4d758218-fbe7-4b55-a476-ffdb6a4396e0",
    "resource": {
      "resourceType": "QuestionnaireResponse",
      "id": "4d758218-fbe7-4b55-a476-ffdb6a4396e0",
      "identifier": {
        "value": "8067b9b2-e604-4414-b56f-8e3cc4de4b1b"
      },
      "questionnaire": {
        "reference": "urn:uuid:17359c2b-1e2e-484f-b0b9-7fd62614ce88"
      },
      "status": "completed",
      "subject": {
        "reference": "urn:uuid:30116d61-00b8-4b39-880a-7f818331717d"
      },
      "context": {
        "reference": "urn:uuid:21f8e773-a011-482a-b87c-9b544cdf443c"
      },
      "authored": "2011-02-17T17:31:14+00:00",
      "item": [ {
        "linkId": "Tx140159",
        "text": "What is the reason for ending the assessment?",
        "answer": [ {
          "valueString": "transfer to a clinician"
        } ]
      } ]
    }
  }, {
    "fullUrl": "urn:uuid:17359c2b-1e2e-484f-b0b9-7fd62614ce88",
    "resource": {
      "resourceType": "Questionnaire",
      "id": "17359c2b-1e2e-484f-b0b9-7fd62614ce88",
      "identifier": [ {
        "value": "8067b9b2-e604-4414-b56f-8e3cc4de4b1b"
      } ],
      "version": "2011-02-17T17:31:14.313Z",
      "status": "active",
      "experimental": false,
      "date": "2011-02-17T17:31:14+00:00",
      "publisher": "User ID: '3137' User name: 'redacted' User skill set: 'T1'",
      "lastReviewDate": "2011-02-17",
      "jurisdiction": [ {
        "text": "England"
      } ],
      "contact": [ {
        "telecom": [ {
          "system": "phone",
          "value": "redacted"
        } ]
      } ],
      "subjectType": [ "Patient" ],
      "item": [ {
        "linkId": "8067b9b2-e604-4414-b56f-8e3cc4de4b1b",
        "prefix": "0",
        "text": "What is the reason for ending the assessment?",
        "type": "choice",
        "required": true,
        "repeats": false,
        "option": [ {
          "valueString": "the phone line went dead, Selected: false"
        }, {
          "valueString": "the caller terminated the call (specify), Selected: false"
        }, {
          "valueString": "I terminated the call (specify), Selected: false"
        }, {
          "valueString": "triage not possible, Selected: false"
        }, {
          "valueString": "transfer to a clinician, Selected: true"
        } ]
      } ]
    }
  }, {
    "fullUrl": "urn:uuid:fb29f7ad-d56b-442f-b129-62936ef88b24",
    "resource": {
      "resourceType": "QuestionnaireResponse",
      "id": "fb29f7ad-d56b-442f-b129-62936ef88b24",
      "identifier": {
        "value": "8067b9b2-e604-4414-b56f-8e3cc4de4b1b"
      },
      "questionnaire": {
        "reference": "urn:uuid:768f6d40-db53-4332-81ab-b75892453b43"
      },
      "status": "completed",
      "subject": {
        "reference": "urn:uuid:30116d61-00b8-4b39-880a-7f818331717d"
      },
      "context": {
        "reference": "urn:uuid:21f8e773-a011-482a-b87c-9b544cdf443c"
      },
      "authored": "2011-02-17T17:31:14+00:00",
      "item": [ {
        "linkId": "Tx220408",
        "text": "WHAT IS THE REASON FOR TRANSFER TO A CLINICIAN?",
        "answer": [ {
          "valueString": "other complex call (specify)"
        } ]
      } ]
    }
  }, {
    "fullUrl": "urn:uuid:768f6d40-db53-4332-81ab-b75892453b43",
    "resource": {
      "resourceType": "Questionnaire",
      "id": "768f6d40-db53-4332-81ab-b75892453b43",
      "identifier": [ {
        "value": "8067b9b2-e604-4414-b56f-8e3cc4de4b1b"
      } ],
      "version": "2011-02-17T17:31:14.313Z",
      "status": "active",
      "experimental": false,
      "date": "2011-02-17T17:31:14+00:00",
      "publisher": "User ID: '3137' User name: 'redacted' User skill set: 'T1'",
      "lastReviewDate": "2011-02-17",
      "jurisdiction": [ {
        "text": "England"
      } ],
      "contact": [ {
        "telecom": [ {
          "system": "phone",
          "value": "redacted"
        } ]
      } ],
      "subjectType": [ "Patient" ],
      "item": [ {
        "linkId": "8067b9b2-e604-4414-b56f-8e3cc4de4b1b",
        "prefix": "50",
        "text": "WHAT IS THE REASON FOR TRANSFER TO A CLINICIAN?",
        "type": "choice",
        "required": true,
        "repeats": false,
        "option": [ {
          "valueString": "caller refuses disposition, Selected: false"
        }, {
          "valueString": "multiple unrelated symptoms, Selected: false"
        }, {
          "valueString": "difficulty obtaining adequate information, Selected: false"
        }, {
          "valueString": "medication or medical procedure enquiry, Selected: false"
        }, {
          "valueString": "declared medical history (details not required), Selected: false"
        }, {
          "valueString": "other complex call (specify), Selected: true"
        } ]
      } ]
    }
  }, {
    "fullUrl": "urn:uuid:524e845e-1093-4e86-aebd-6b5855c6d47a",
    "resource": {
      "resourceType": "QuestionnaireResponse",
      "id": "524e845e-1093-4e86-aebd-6b5855c6d47a",
      "identifier": {
        "value": "8067b9b2-e604-4414-b56f-8e3cc4de4b1b"
      },
      "questionnaire": {
        "reference": "urn:uuid:62038d50-52a1-41f9-99a4-a597b5f9545e"
      },
      "status": "completed",
      "subject": {
        "reference": "urn:uuid:30116d61-00b8-4b39-880a-7f818331717d"
      },
      "context": {
        "reference": "urn:uuid:21f8e773-a011-482a-b87c-9b544cdf443c"
      },
      "authored": "2011-02-17T17:31:14+00:00",
      "item": [ {
        "linkId": "N/A",
        "text": "Speak to Clinician from our Service immediately"
      } ]
    }
  }, {
    "fullUrl": "urn:uuid:62038d50-52a1-41f9-99a4-a597b5f9545e",
    "resource": {
      "resourceType": "Questionnaire",
      "id": "62038d50-52a1-41f9-99a4-a597b5f9545e",
      "identifier": [ {
        "value": "8067b9b2-e604-4414-b56f-8e3cc4de4b1b"
      } ],
      "version": "2011-02-17T17:31:14.313Z",
      "status": "active",
      "experimental": false,
      "date": "2011-02-17T17:31:14+00:00",
      "publisher": "User ID: '3137' User name: 'redacted' User skill set: 'T1'",
      "lastReviewDate": "2011-02-17",
      "jurisdiction": [ {
        "text": "England"
      } ],
      "contact": [ {
        "telecom": [ {
          "system": "phone",
          "value": "redacted"
        } ]
      } ],
      "subjectType": [ "Patient" ],
      "item": [ {
        "linkId": "8067b9b2-e604-4414-b56f-8e3cc4de4b1b",
        "prefix": "0",
        "text": "Speak to Clinician from our Service immediately",
        "type": "choice",
        "required": true,
        "repeats": false,
        "option": [ {
          "valueString": ", Selected: false"
        } ]
      } ]
    }
  }, {
    "fullUrl": "urn:uuid:d35ebfef-7326-4f50-a61e-22bbc12a80f0",
    "resource": {
      "resourceType": "QuestionnaireResponse",
      "id": "d35ebfef-7326-4f50-a61e-22bbc12a80f0",
      "identifier": {
        "value": "8067b9b2-e604-4414-b56f-8e3cc4de4b1b"
      },
      "questionnaire": {
        "reference": "urn:uuid:cf103eee-e967-4f8a-b903-845e6017c4d3"
      },
      "status": "completed",
      "subject": {
        "reference": "urn:uuid:30116d61-00b8-4b39-880a-7f818331717d"
      },
      "context": {
        "reference": "urn:uuid:21f8e773-a011-482a-b87c-9b544cdf443c"
      },
      "authored": "2011-02-17T17:31:14+00:00",
      "item": [ {
        "linkId": "N/A"
      } ]
    }
  }, {
    "fullUrl": "urn:uuid:cf103eee-e967-4f8a-b903-845e6017c4d3",
    "resource": {
      "resourceType": "Questionnaire",
      "id": "cf103eee-e967-4f8a-b903-845e6017c4d3",
      "identifier": [ {
        "value": "8067b9b2-e604-4414-b56f-8e3cc4de4b1b"
      } ],
      "version": "2011-02-17T17:31:14.313Z",
      "status": "active",
      "experimental": false,
      "date": "2011-02-17T17:31:14+00:00",
      "publisher": "User ID: '3137' User name: 'redacted' User skill set: 'T1'",
      "lastReviewDate": "2011-02-17",
      "jurisdiction": [ {
        "text": "England"
      } ],
      "contact": [ {
        "telecom": [ {
          "system": "phone",
          "value": "redacted"
        } ]
      } ],
      "subjectType": [ "Patient" ],
      "item": [ {
        "linkId": "8067b9b2-e604-4414-b56f-8e3cc4de4b1b",
        "prefix": "0",
        "type": "choice",
        "required": true,
        "repeats": false,
        "option": [ {
          "valueString": ", Selected: false"
        } ]
      } ]
    }
  }, {
    "fullUrl": "urn:uuid:f5353022-2920-4d84-a131-612cff4c7082",
    "resource": {
      "resourceType": "QuestionnaireResponse",
      "id": "f5353022-2920-4d84-a131-612cff4c7082",
      "identifier": {
        "value": "8067b9b2-e604-4414-b56f-8e3cc4de4b1b"
      },
      "questionnaire": {
        "reference": "urn:uuid:241e27ba-b33a-4387-b4db-d417f31da470"
      },
      "status": "completed",
      "subject": {
        "reference": "urn:uuid:30116d61-00b8-4b39-880a-7f818331717d"
      },
      "context": {
        "reference": "urn:uuid:21f8e773-a011-482a-b87c-9b544cdf443c"
      },
      "authored": "2011-02-17T17:31:14+00:00",
      "item": [ {
        "linkId": "N/A"
      } ]
    }
  }, {
    "fullUrl": "urn:uuid:241e27ba-b33a-4387-b4db-d417f31da470",
    "resource": {
      "resourceType": "Questionnaire",
      "id": "241e27ba-b33a-4387-b4db-d417f31da470",
      "identifier": [ {
        "value": "8067b9b2-e604-4414-b56f-8e3cc4de4b1b"
      } ],
      "version": "2011-02-17T17:31:14.313Z",
      "status": "active",
      "experimental": false,
      "date": "2011-02-17T17:31:14+00:00",
      "publisher": "User ID: '3137' User name: 'redacted' User skill set: 'T1'",
      "lastReviewDate": "2011-02-17",
      "jurisdiction": [ {
        "text": "England"
      } ],
      "contact": [ {
        "telecom": [ {
          "system": "phone",
          "value": "redacted"
        } ]
      } ],
      "subjectType": [ "Patient" ],
      "item": [ {
        "linkId": "8067b9b2-e604-4414-b56f-8e3cc4de4b1b",
        "prefix": "0",
        "type": "choice",
        "required": true,
        "repeats": false,
        "option": [ {
          "valueString": ", Selected: false"
        } ]
      } ]
    }
  }, {
    "fullUrl": "urn:uuid:4c5b6465-5650-45e0-ab6c-978a35f085ac",
    "resource": {
      "resourceType": "QuestionnaireResponse",
      "id": "4c5b6465-5650-45e0-ab6c-978a35f085ac",
      "identifier": {
        "value": "8067b9b2-e604-4414-b56f-8e3cc4de4b1b"
      },
      "questionnaire": {
        "reference": "urn:uuid:ffad5d89-61b5-460a-9a17-bee876a0b133"
      },
      "status": "completed",
      "subject": {
        "reference": "urn:uuid:30116d61-00b8-4b39-880a-7f818331717d"
      },
      "context": {
        "reference": "urn:uuid:21f8e773-a011-482a-b87c-9b544cdf443c"
      },
      "authored": "2011-02-17T17:31:14+00:00",
      "item": [ {
        "linkId": "Tx220109",
        "text": "What is the reason for the call?",
        "answer": [ {
          "valueString": "an injury or other health problem"
        } ]
      } ]
    }
  }, {
    "fullUrl": "urn:uuid:ffad5d89-61b5-460a-9a17-bee876a0b133",
    "resource": {
      "resourceType": "Questionnaire",
      "id": "ffad5d89-61b5-460a-9a17-bee876a0b133",
      "identifier": [ {
        "value": "8067b9b2-e604-4414-b56f-8e3cc4de4b1b"
      } ],
      "version": "2011-02-17T17:31:14.313Z",
      "status": "active",
      "experimental": false,
      "date": "2011-02-17T17:31:14+00:00",
      "publisher": "User ID: '3137' User name: 'redacted' User skill set: 'T1'",
      "lastReviewDate": "2011-02-17",
      "jurisdiction": [ {
        "text": "England"
      } ],
      "contact": [ {
        "telecom": [ {
          "system": "phone",
          "value": "redacted"
        } ]
      } ],
      "subjectType": [ "Patient" ],
      "item": [ {
        "linkId": "8067b9b2-e604-4414-b56f-8e3cc4de4b1b",
        "prefix": "5",
        "text": "What is the reason for the call?",
        "type": "choice",
        "required": true,
        "repeats": false,
        "option": [ {
          "valueString": "an injury or other health problem, Selected: true"
        }, {
          "valueString": "a need to access another healthcare provider, Selected: false"
        }, {
          "valueString": "a healthcare professional requesting contact with another clinician, Selected: false"
        }, {
          "valueString": "a report of results or tests, Selected: false"
        }, {
          "valueString": "more, Selected: false"
        } ]
      } ]
    }
  }, {
    "fullUrl": "urn:uuid:63b3788c-11cb-4543-afe1-e81ca12c5922",
    "resource": {
      "resourceType": "QuestionnaireResponse",
      "id": "63b3788c-11cb-4543-afe1-e81ca12c5922",
      "identifier": {
        "value": "8067b9b2-e604-4414-b56f-8e3cc4de4b1b"
      },
      "questionnaire": {
        "reference": "urn:uuid:5097a327-40dc-4b3f-9eab-b517c5030ebd"
      },
      "status": "completed",
      "subject": {
        "reference": "urn:uuid:30116d61-00b8-4b39-880a-7f818331717d"
      },
      "context": {
        "reference": "urn:uuid:21f8e773-a011-482a-b87c-9b544cdf443c"
      },
      "authored": "2011-02-17T17:31:14+00:00",
      "item": [ {
        "linkId": "Tx140118",
        "text": "Has the baby just been born?",
        "answer": [ {
          "valueString": "no"
        } ]
      } ]
    }
  }, {
    "fullUrl": "urn:uuid:5097a327-40dc-4b3f-9eab-b517c5030ebd",
    "resource": {
      "resourceType": "Questionnaire",
      "id": "5097a327-40dc-4b3f-9eab-b517c5030ebd",
      "identifier": [ {
        "value": "8067b9b2-e604-4414-b56f-8e3cc4de4b1b"
      } ],
      "version": "2011-02-17T17:31:14.313Z",
      "status": "active",
      "experimental": false,
      "date": "2011-02-17T17:31:14+00:00",
      "publisher": "User ID: '3137' User name: 'redacted' User skill set: 'T1'",
      "lastReviewDate": "2011-02-17",
      "jurisdiction": [ {
        "text": "England"
      } ],
      "contact": [ {
        "telecom": [ {
          "system": "phone",
          "value": "redacted"
        } ]
      } ],
      "subjectType": [ "Patient" ],
      "item": [ {
        "linkId": "8067b9b2-e604-4414-b56f-8e3cc4de4b1b",
        "prefix": "35",
        "text": "Has the baby just been born?",
        "type": "choice",
        "required": true,
        "repeats": false,
        "option": [ {
          "valueString": "yes, Selected: false"
        }, {
          "valueString": "not sure, Selected: false"
        }, {
          "valueString": "no, Selected: true"
        } ]
      } ]
    }
  }, {
    "fullUrl": "urn:uuid:8d5c8e7a-6009-4f33-8a4a-990d5f8e762b",
    "resource": {
      "resourceType": "QuestionnaireResponse",
      "id": "8d5c8e7a-6009-4f33-8a4a-990d5f8e762b",
      "identifier": {
        "value": "8067b9b2-e604-4414-b56f-8e3cc4de4b1b"
      },
      "questionnaire": {
        "reference": "urn:uuid:38bf0427-6873-49c9-a0ea-4db82ab00820"
      },
      "status": "completed",
      "subject": {
        "reference": "urn:uuid:30116d61-00b8-4b39-880a-7f818331717d"
      },
      "context": {
        "reference": "urn:uuid:21f8e773-a011-482a-b87c-9b544cdf443c"
      },
      "authored": "2011-02-17T17:31:14+00:00",
      "item": [ {
        "linkId": "Tx220110",
        "text": "Is he breathing and conscious?",
        "answer": [ {
          "valueString": "breathing AND conscious"
        } ]
      } ]
    }
  }, {
    "fullUrl": "urn:uuid:38bf0427-6873-49c9-a0ea-4db82ab00820",
    "resource": {
      "resourceType": "Questionnaire",
      "id": "38bf0427-6873-49c9-a0ea-4db82ab00820",
      "identifier": [ {
        "value": "8067b9b2-e604-4414-b56f-8e3cc4de4b1b"
      } ],
      "version": "2011-02-17T17:31:14.313Z",
      "status": "active",
      "experimental": false,
      "date": "2011-02-17T17:31:14+00:00",
      "publisher": "User ID: '3137' User name: 'redacted' User skill set: 'T1'",
      "lastReviewDate": "2011-02-17",
      "jurisdiction": [ {
        "text": "England"
      } ],
      "contact": [ {
        "telecom": [ {
          "system": "phone",
          "value": "redacted"
        } ]
      } ],
      "subjectType": [ "Patient" ],
      "item": [ {
        "linkId": "8067b9b2-e604-4414-b56f-8e3cc4de4b1b",
        "prefix": "40",
        "text": "Is he breathing and conscious?",
        "type": "choice",
        "required": true,
        "repeats": false,
        "option": [ {
          "valueString": "breathing AND conscious, Selected: true"
        }, {
          "valueString": "breathing but NOT conscious (includes current fitting), Selected: false"
        }, {
          "valueString": "NOT breathing, Selected: false"
        }, {
          "valueString": "choking now, Selected: false"
        } ]
      } ]
    }
  }, {
    "fullUrl": "urn:uuid:2ac825c8-b5be-4aff-8735-22af14b3f9e6",
    "resource": {
      "resourceType": "QuestionnaireResponse",
      "id": "2ac825c8-b5be-4aff-8735-22af14b3f9e6",
      "identifier": {
        "value": "8067b9b2-e604-4414-b56f-8e3cc4de4b1b"
      },
      "questionnaire": {
        "reference": "urn:uuid:8ae827fb-3445-4b23-8ca2-ad050ffb98fa"
      },
      "status": "completed",
      "subject": {
        "reference": "urn:uuid:30116d61-00b8-4b39-880a-7f818331717d"
      },
      "context": {
        "reference": "urn:uuid:21f8e773-a011-482a-b87c-9b544cdf443c"
      },
      "authored": "2011-02-17T17:31:14+00:00",
      "item": [ {
        "linkId": "Tx220285",
        "text": "Has he been bleeding very heavily IN THE LAST HOUR?",
        "answer": [ {
          "valueString": "an egg cupful or more from a wound"
        } ]
      } ]
    }
  }, {
    "fullUrl": "urn:uuid:8ae827fb-3445-4b23-8ca2-ad050ffb98fa",
    "resource": {
      "resourceType": "Questionnaire",
      "id": "8ae827fb-3445-4b23-8ca2-ad050ffb98fa",
      "identifier": [ {
        "value": "8067b9b2-e604-4414-b56f-8e3cc4de4b1b"
      } ],
      "version": "2011-02-17T17:31:14.313Z",
      "status": "active",
      "experimental": false,
      "date": "2011-02-17T17:31:14+00:00",
      "publisher": "User ID: '3137' User name: 'redacted' User skill set: 'T1'",
      "lastReviewDate": "2011-02-17",
      "jurisdiction": [ {
        "text": "England"
      } ],
      "contact": [ {
        "telecom": [ {
          "system": "phone",
          "value": "redacted"
        } ]
      } ],
      "subjectType": [ "Patient" ],
      "item": [ {
        "linkId": "8067b9b2-e604-4414-b56f-8e3cc4de4b1b",
        "prefix": "60",
        "text": "Has he been bleeding very heavily IN THE LAST HOUR?",
        "type": "choice",
        "required": true,
        "repeats": false,
        "option": [ {
          "valueString": "blood spurting from a wound, Selected: false"
        }, {
          "valueString": "an egg cupful or more of red blood from a body opening, Selected: false"
        }, {
          "valueString": "an egg cupful or more from a wound, Selected: true"
        }, {
          "valueString": "not sure, Selected: false"
        }, {
          "valueString": "no, Selected: false"
        } ]
      } ]
    }
  }, {
    "fullUrl": "urn:uuid:cf25b1f5-c2ac-4282-8bee-5e33cd8b7f3a",
    "resource": {
      "resourceType": "QuestionnaireResponse",
      "id": "cf25b1f5-c2ac-4282-8bee-5e33cd8b7f3a",
      "identifier": {
        "value": "8067b9b2-e604-4414-b56f-8e3cc4de4b1b"
      },
      "questionnaire": {
        "reference": "urn:uuid:15e8b481-acc5-4d21-9897-fac7bf70dc95"
      },
      "status": "completed",
      "subject": {
        "reference": "urn:uuid:30116d61-00b8-4b39-880a-7f818331717d"
      },
      "context": {
        "reference": "urn:uuid:21f8e773-a011-482a-b87c-9b544cdf443c"
      },
      "authored": "2011-02-17T17:31:14+00:00",
      "item": [ {
        "linkId": "Tx140109",
        "text": "Is he fighting desperately for every breath?",
        "answer": [ {
          "valueString": "no"
        } ]
      } ]
    }
  }, {
    "fullUrl": "urn:uuid:15e8b481-acc5-4d21-9897-fac7bf70dc95",
    "resource": {
      "resourceType": "Questionnaire",
      "id": "15e8b481-acc5-4d21-9897-fac7bf70dc95",
      "identifier": [ {
        "value": "8067b9b2-e604-4414-b56f-8e3cc4de4b1b"
      } ],
      "version": "2011-02-17T17:31:14.313Z",
      "status": "active",
      "experimental": false,
      "date": "2011-02-17T17:31:14+00:00",
      "publisher": "User ID: '3137' User name: 'redacted' User skill set: 'T1'",
      "lastReviewDate": "2011-02-17",
      "jurisdiction": [ {
        "text": "England"
      } ],
      "contact": [ {
        "telecom": [ {
          "system": "phone",
          "value": "redacted"
        } ]
      } ],
      "subjectType": [ "Patient" ],
      "item": [ {
        "linkId": "8067b9b2-e604-4414-b56f-8e3cc4de4b1b",
        "prefix": "20000",
        "text": "Is he fighting desperately for every breath?",
        "type": "choice",
        "required": true,
        "repeats": false,
        "option": [ {
          "valueString": "yes, Selected: false"
        }, {
          "valueString": "not sure, Selected: false"
        }, {
          "valueString": "no, Selected: true"
        } ]
      } ]
    }
  }, {
    "fullUrl": "urn:uuid:cd9090da-14bc-468a-8d14-6740dd46b72e",
    "resource": {
      "resourceType": "QuestionnaireResponse",
      "id": "cd9090da-14bc-468a-8d14-6740dd46b72e",
      "identifier": {
        "value": "8067b9b2-e604-4414-b56f-8e3cc4de4b1b"
      },
      "questionnaire": {
        "reference": "urn:uuid:74d52c21-a4e3-4136-b026-e87a9c69c20d"
      },
      "status": "completed",
      "subject": {
        "reference": "urn:uuid:30116d61-00b8-4b39-880a-7f818331717d"
      },
      "context": {
        "reference": "urn:uuid:21f8e773-a011-482a-b87c-9b544cdf443c"
      },
      "authored": "2011-02-17T17:31:14+00:00",
      "item": [ {
        "linkId": "Tx220563",
        "text": "Is he limp, floppy and/or unresponsive?",
        "answer": [ {
          "valueString": "no"
        } ]
      } ]
    }
  }, {
    "fullUrl": "urn:uuid:74d52c21-a4e3-4136-b026-e87a9c69c20d",
    "resource": {
      "resourceType": "Questionnaire",
      "id": "74d52c21-a4e3-4136-b026-e87a9c69c20d",
      "identifier": [ {
        "value": "8067b9b2-e604-4414-b56f-8e3cc4de4b1b"
      } ],
      "version": "2011-02-17T17:31:14.313Z",
      "status": "active",
      "experimental": false,
      "date": "2011-02-17T17:31:14+00:00",
      "publisher": "User ID: '3137' User name: 'redacted' User skill set: 'T1'",
      "lastReviewDate": "2011-02-17",
      "jurisdiction": [ {
        "text": "England"
      } ],
      "contact": [ {
        "telecom": [ {
          "system": "phone",
          "value": "redacted"
        } ]
      } ],
      "subjectType": [ "Patient" ],
      "item": [ {
        "linkId": "8067b9b2-e604-4414-b56f-8e3cc4de4b1b",
        "prefix": "20400",
        "text": "Is he limp, floppy and/or unresponsive?",
        "type": "choice",
        "required": true,
        "repeats": false,
        "option": [ {
          "valueString": "yes, Selected: false"
        }, {
          "valueString": "not sure, Selected: false"
        }, {
          "valueString": "no, Selected: true"
        } ]
      } ]
    }
  }, {
    "fullUrl": "urn:uuid:5117a23e-eece-4a0a-8d55-59cb3c1ff30c",
    "resource": {
      "resourceType": "QuestionnaireResponse",
      "id": "5117a23e-eece-4a0a-8d55-59cb3c1ff30c",
      "identifier": {
        "value": "8067b9b2-e604-4414-b56f-8e3cc4de4b1b"
      },
      "questionnaire": {
        "reference": "urn:uuid:e0d815a1-bc6e-4510-9363-7a5d9b26c753"
      },
      "status": "completed",
      "subject": {
        "reference": "urn:uuid:30116d61-00b8-4b39-880a-7f818331717d"
      },
      "context": {
        "reference": "urn:uuid:21f8e773-a011-482a-b87c-9b544cdf443c"
      },
      "authored": "2011-02-17T17:31:14+00:00",
      "item": [ {
        "linkId": "Tx220561",
        "text": "Is he warm to touch?",
        "answer": [ {
          "valueString": "yes"
        } ]
      } ]
    }
  }, {
    "fullUrl": "urn:uuid:e0d815a1-bc6e-4510-9363-7a5d9b26c753",
    "resource": {
      "resourceType": "Questionnaire",
      "id": "e0d815a1-bc6e-4510-9363-7a5d9b26c753",
      "identifier": [ {
        "value": "8067b9b2-e604-4414-b56f-8e3cc4de4b1b"
      } ],
      "version": "2011-02-17T17:31:14.313Z",
      "status": "active",
      "experimental": false,
      "date": "2011-02-17T17:31:14+00:00",
      "publisher": "User ID: '3137' User name: 'redacted' User skill set: 'T1'",
      "lastReviewDate": "2011-02-17",
      "jurisdiction": [ {
        "text": "England"
      } ],
      "contact": [ {
        "telecom": [ {
          "system": "phone",
          "value": "redacted"
        } ]
      } ],
      "subjectType": [ "Patient" ],
      "item": [ {
        "linkId": "8067b9b2-e604-4414-b56f-8e3cc4de4b1b",
        "prefix": "20450",
        "text": "Is he warm to touch?",
        "type": "choice",
        "required": true,
        "repeats": false,
        "option": [ {
          "valueString": "yes, Selected: true"
        }, {
          "valueString": "not sure, Selected: false"
        }, {
          "valueString": "no, Selected: false"
        }, {
          "valueString": "not safe to touch, Selected: false"
        } ]
      } ]
    }
  }, {
    "fullUrl": "urn:uuid:1a74e6b4-27ef-4972-a0bc-9ca77384cdd2",
    "resource": {
      "resourceType": "QuestionnaireResponse",
      "id": "1a74e6b4-27ef-4972-a0bc-9ca77384cdd2",
      "identifier": {
        "value": "8067b9b2-e604-4414-b56f-8e3cc4de4b1b"
      },
      "questionnaire": {
        "reference": "urn:uuid:2d5ba77d-11a6-4f1f-9462-ea2229327c96"
      },
      "status": "completed",
      "subject": {
        "reference": "urn:uuid:30116d61-00b8-4b39-880a-7f818331717d"
      },
      "context": {
        "reference": "urn:uuid:21f8e773-a011-482a-b87c-9b544cdf443c"
      },
      "authored": "2011-02-17T17:31:14+00:00",
      "item": [ {
        "linkId": "Tx120019",
        "text": "Was the injury caused by any of the following?",
        "answer": [ {
          "valueString": "no"
        } ]
      } ]
    }
  }, {
    "fullUrl": "urn:uuid:2d5ba77d-11a6-4f1f-9462-ea2229327c96",
    "resource": {
      "resourceType": "Questionnaire",
      "id": "2d5ba77d-11a6-4f1f-9462-ea2229327c96",
      "identifier": [ {
        "value": "8067b9b2-e604-4414-b56f-8e3cc4de4b1b"
      } ],
      "version": "2011-02-17T17:31:14.313Z",
      "status": "active",
      "experimental": false,
      "date": "2011-02-17T17:31:14+00:00",
      "publisher": "User ID: '3137' User name: 'redacted' User skill set: 'T1'",
      "lastReviewDate": "2011-02-17",
      "jurisdiction": [ {
        "text": "England"
      } ],
      "contact": [ {
        "telecom": [ {
          "system": "phone",
          "value": "redacted"
        } ]
      } ],
      "subjectType": [ "Patient" ],
      "item": [ {
        "linkId": "8067b9b2-e604-4414-b56f-8e3cc4de4b1b",
        "prefix": "20800",
        "text": "Was the injury caused by any of the following?",
        "type": "choice",
        "required": true,
        "repeats": false,
        "option": [ {
          "valueString": "a gunshot, Selected: false"
        }, {
          "valueString": "a stabbing, Selected: false"
        }, {
          "valueString": "being ejected from a vehicle, Selected: false"
        }, {
          "valueString": "not sure, Selected: false"
        }, {
          "valueString": "no, Selected: true"
        } ]
      } ]
    }
  }, {
    "fullUrl": "urn:uuid:406f6f20-6b2a-4513-9b09-c5d509974ad1",
    "resource": {
      "resourceType": "QuestionnaireResponse",
      "id": "406f6f20-6b2a-4513-9b09-c5d509974ad1",
      "identifier": {
        "value": "8067b9b2-e604-4414-b56f-8e3cc4de4b1b"
      },
      "questionnaire": {
        "reference": "urn:uuid:18cc3573-7211-4014-9c36-667117f94481"
      },
      "status": "completed",
      "subject": {
        "reference": "urn:uuid:30116d61-00b8-4b39-880a-7f818331717d"
      },
      "context": {
        "reference": "urn:uuid:21f8e773-a011-482a-b87c-9b544cdf443c"
      },
      "authored": "2011-02-17T17:31:14+00:00",
      "item": [ {
        "linkId": "Tx220286",
        "text": "DID THE INJURY INVOLVE ANY OF THE FOLLOWING?",
        "answer": [ {
          "valueString": "no"
        } ]
      } ]
    }
  }, {
    "fullUrl": "urn:uuid:18cc3573-7211-4014-9c36-667117f94481",
    "resource": {
      "resourceType": "Questionnaire",
      "id": "18cc3573-7211-4014-9c36-667117f94481",
      "identifier": [ {
        "value": "8067b9b2-e604-4414-b56f-8e3cc4de4b1b"
      } ],
      "version": "2011-02-17T17:31:14.313Z",
      "status": "active",
      "experimental": false,
      "date": "2011-02-17T17:31:14+00:00",
      "publisher": "User ID: '3137' User name: 'redacted' User skill set: 'T1'",
      "lastReviewDate": "2011-02-17",
      "jurisdiction": [ {
        "text": "England"
      } ],
      "contact": [ {
        "telecom": [ {
          "system": "phone",
          "value": "redacted"
        } ]
      } ],
      "subjectType": [ "Patient" ],
      "item": [ {
        "linkId": "8067b9b2-e604-4414-b56f-8e3cc4de4b1b",
        "prefix": "23100",
        "text": "DID THE INJURY INVOLVE ANY OF THE FOLLOWING?",
        "type": "choice",
        "required": true,
        "repeats": false,
        "option": [ {
          "valueString": "a fall of 5 metres or more (specify), Selected: false"
        }, {
          "valueString": "multiple major injuries (specify), Selected: false"
        }, {
          "valueString": "major wound or amputation - not just involving a single finger or toe (specify), Selected: false"
        }, {
          "valueString": "being knocked over by a blast (specify), Selected: false"
        }, {
          "valueString": "not sure, Selected: false"
        }, {
          "valueString": "no, Selected: true"
        } ]
      } ]
    }
  }, {
    "fullUrl": "urn:uuid:97918b8a-728b-4ead-9fcb-8f167ddac6ae",
    "resource": {
      "resourceType": "QuestionnaireResponse",
      "id": "97918b8a-728b-4ead-9fcb-8f167ddac6ae",
      "identifier": {
        "value": "8067b9b2-e604-4414-b56f-8e3cc4de4b1b"
      },
      "questionnaire": {
        "reference": "urn:uuid:691d4bbc-8aec-43c8-bae6-ea448a0c269a"
      },
      "status": "completed",
      "subject": {
        "reference": "urn:uuid:30116d61-00b8-4b39-880a-7f818331717d"
      },
      "context": {
        "reference": "urn:uuid:21f8e773-a011-482a-b87c-9b544cdf443c"
      },
      "authored": "2011-02-17T17:31:14+00:00",
      "item": [ {
        "linkId": "Tx140159",
        "text": "What is the reason for ending the assessment?",
        "answer": [ {
          "valueString": "transfer to a clinician"
        } ]
      } ]
    }
  }, {
    "fullUrl": "urn:uuid:691d4bbc-8aec-43c8-bae6-ea448a0c269a",
    "resource": {
      "resourceType": "Questionnaire",
      "id": "691d4bbc-8aec-43c8-bae6-ea448a0c269a",
      "identifier": [ {
        "value": "8067b9b2-e604-4414-b56f-8e3cc4de4b1b"
      } ],
      "version": "2011-02-17T17:31:14.313Z",
      "status": "active",
      "experimental": false,
      "date": "2011-02-17T17:31:14+00:00",
      "publisher": "User ID: '3137' User name: 'redacted' User skill set: 'T1'",
      "lastReviewDate": "2011-02-17",
      "jurisdiction": [ {
        "text": "England"
      } ],
      "contact": [ {
        "telecom": [ {
          "system": "phone",
          "value": "redacted"
        } ]
      } ],
      "subjectType": [ "Patient" ],
      "item": [ {
        "linkId": "8067b9b2-e604-4414-b56f-8e3cc4de4b1b",
        "prefix": "0",
        "text": "What is the reason for ending the assessment?",
        "type": "choice",
        "required": true,
        "repeats": false,
        "option": [ {
          "valueString": "the phone line went dead, Selected: false"
        }, {
          "valueString": "the caller terminated the call (specify), Selected: false"
        }, {
          "valueString": "I terminated the call (specify), Selected: false"
        }, {
          "valueString": "triage not possible, Selected: false"
        }, {
          "valueString": "transfer to a clinician, Selected: true"
        } ]
      } ]
    }
  }, {
    "fullUrl": "urn:uuid:bda315b0-5a50-4ae4-beec-95e613c786cd",
    "resource": {
      "resourceType": "QuestionnaireResponse",
      "id": "bda315b0-5a50-4ae4-beec-95e613c786cd",
      "identifier": {
        "value": "8067b9b2-e604-4414-b56f-8e3cc4de4b1b"
      },
      "questionnaire": {
        "reference": "urn:uuid:3670c2cc-f7b1-4a4a-a54f-249d82f2c2ff"
      },
      "status": "completed",
      "subject": {
        "reference": "urn:uuid:30116d61-00b8-4b39-880a-7f818331717d"
      },
      "context": {
        "reference": "urn:uuid:21f8e773-a011-482a-b87c-9b544cdf443c"
      },
      "authored": "2011-02-17T17:31:14+00:00",
      "item": [ {
        "linkId": "Tx220286",
        "text": "DID THE INJURY INVOLVE ANY OF THE FOLLOWING?",
        "answer": [ {
          "valueString": "no"
        } ]
      } ]
    }
  }, {
    "fullUrl": "urn:uuid:3670c2cc-f7b1-4a4a-a54f-249d82f2c2ff",
    "resource": {
      "resourceType": "Questionnaire",
      "id": "3670c2cc-f7b1-4a4a-a54f-249d82f2c2ff",
      "identifier": [ {
        "value": "8067b9b2-e604-4414-b56f-8e3cc4de4b1b"
      } ],
      "version": "2011-02-17T17:31:14.313Z",
      "status": "active",
      "experimental": false,
      "date": "2011-02-17T17:31:14+00:00",
      "publisher": "User ID: '3137' User name: 'redacted' User skill set: 'T1'",
      "lastReviewDate": "2011-02-17",
      "jurisdiction": [ {
        "text": "England"
      } ],
      "contact": [ {
        "telecom": [ {
          "system": "phone",
          "value": "redacted"
        } ]
      } ],
      "subjectType": [ "Patient" ],
      "item": [ {
        "linkId": "8067b9b2-e604-4414-b56f-8e3cc4de4b1b",
        "prefix": "23100",
        "text": "DID THE INJURY INVOLVE ANY OF THE FOLLOWING?",
        "type": "choice",
        "required": true,
        "repeats": false,
        "option": [ {
          "valueString": "a fall of 5 metres or more (specify), Selected: false"
        }, {
          "valueString": "multiple major injuries (specify), Selected: false"
        }, {
          "valueString": "major wound or amputation - not just involving a single finger or toe (specify), Selected: false"
        }, {
          "valueString": "being knocked over by a blast (specify), Selected: false"
        }, {
          "valueString": "not sure, Selected: false"
        }, {
          "valueString": "no, Selected: true"
        } ]
      } ]
    }
  }, {
    "fullUrl": "urn:uuid:23513e59-fbcd-47c7-b5ea-7f034a04be5f",
    "resource": {
      "resourceType": "QuestionnaireResponse",
      "id": "23513e59-fbcd-47c7-b5ea-7f034a04be5f",
      "identifier": {
        "value": "8067b9b2-e604-4414-b56f-8e3cc4de4b1b"
      },
      "questionnaire": {
        "reference": "urn:uuid:d0b0a973-0c21-443c-8b24-e9298ed34f62"
      },
      "status": "completed",
      "subject": {
        "reference": "urn:uuid:30116d61-00b8-4b39-880a-7f818331717d"
      },
      "context": {
        "reference": "urn:uuid:21f8e773-a011-482a-b87c-9b544cdf443c"
      },
      "authored": "2011-02-17T17:31:14+00:00",
      "item": [ {
        "linkId": "N/A",
        "text": "Dispatch 19 minute ambulance"
      } ]
    }
  }, {
    "fullUrl": "urn:uuid:d0b0a973-0c21-443c-8b24-e9298ed34f62",
    "resource": {
      "resourceType": "Questionnaire",
      "id": "d0b0a973-0c21-443c-8b24-e9298ed34f62",
      "identifier": [ {
        "value": "8067b9b2-e604-4414-b56f-8e3cc4de4b1b"
      } ],
      "version": "2011-02-17T17:31:14.313Z",
      "status": "active",
      "experimental": false,
      "date": "2011-02-17T17:31:14+00:00",
      "publisher": "User ID: '3137' User name: 'redacted' User skill set: 'T1'",
      "lastReviewDate": "2011-02-17",
      "jurisdiction": [ {
        "text": "England"
      } ],
      "contact": [ {
        "telecom": [ {
          "system": "phone",
          "value": "redacted"
        } ]
      } ],
      "subjectType": [ "Patient" ],
      "item": [ {
        "linkId": "8067b9b2-e604-4414-b56f-8e3cc4de4b1b",
        "prefix": "24100",
        "text": "Dispatch 19 minute ambulance",
        "type": "choice",
        "required": true,
        "repeats": false,
        "option": [ {
          "valueString": ", Selected: false"
        } ]
      } ]
    }
  }, {
    "fullUrl": "urn:uuid:5b78e2aa-ebc5-48e2-ad47-09e32e426c29",
    "resource": {
      "resourceType": "PractitionerRole",
      "id": "5b78e2aa-ebc5-48e2-ad47-09e32e426c29",
      "practitioner": {
        "reference": "urn:uuid:9466cac9-bd8b-48f8-9a6a-5c00023a427f"
      },
      "organization": {
        "reference": "urn:uuid:f0abe0e8-2220-48b0-ad49-be16fc5ad358"
      },
      "code": [ {
        "coding": [ {
          "system": "2.16.840.1.113883.2.1.3.2.4.17.196",
          "code": "T1",
          "display": "Nurse Triage Practitioner"
        } ]
      } ]
    }
  }, {
    "fullUrl": "urn:uuid:f0abe0e8-2220-48b0-ad49-be16fc5ad358",
    "resource": {
      "resourceType": "Organization",
      "id": "f0abe0e8-2220-48b0-ad49-be16fc5ad358",
      "identifier": [ {
        "value": "5L399"
      } ],
      "name": "Medway NHS Foundation Trust"
    }
  }, {
    "fullUrl": "urn:uuid:4d781d17-ac2e-4944-812a-3d39482d0c27",
    "resource": {
      "resourceType": "PractitionerRole",
      "id": "4d781d17-ac2e-4944-812a-3d39482d0c27",
      "practitioner": {
        "reference": "urn:uuid:044c7672-52a5-43b6-8b20-49493c70aec7"
      },
      "organization": {
        "reference": "urn:uuid:77a711e7-41bb-415d-9836-51f9fe1cabd6"
      },
      "code": [ {
        "coding": [ {
          "system": "2.16.840.1.113883.2.1.3.2.4.17.196",
          "code": "R0010",
          "display": "Medical Director"
        } ]
      } ]
    }
  }, {
    "fullUrl": "urn:uuid:77a711e7-41bb-415d-9836-51f9fe1cabd6",
    "resource": {
      "resourceType": "Organization",
      "id": "77a711e7-41bb-415d-9836-51f9fe1cabd6",
      "identifier": [ {
        "value": "VDE232323"
      } ],
      "name": "Medway South Out of Hours Centre"
    }
  }, {
    "fullUrl": "urn:uuid:e6eb5e6e-4131-4e1e-9157-b32230d3b097",
    "resource": {
      "resourceType": "Device",
      "id": "e6eb5e6e-4131-4e1e-9157-b32230d3b097",
      "model": "111 Adaptor",
      "version": "1.0.1"
    }
  }, {
    "fullUrl": "urn:uuid:c5652275-1ee8-4f06-963c-cc0567a9a3e1",
    "resource": {
      "resourceType": "List",
      "id": "c5652275-1ee8-4f06-963c-cc0567a9a3e1",
      "status": "current",
      "mode": "working",
      "title": "111 Report List",
      "code": {
        "coding": [ {
          "system": "http://snomed.info/sct",
          "code": "225390008",
          "display": "Triage"
        } ]
      },
      "subject": {
        "reference": "urn:uuid:30116d61-00b8-4b39-880a-7f818331717d"
      },
      "encounter": {
        "reference": "urn:uuid:21f8e773-a011-482a-b87c-9b544cdf443c"
      },
      "date": "2017-01-01T20:00:00+00:00",
      "source": {
        "reference": "urn:uuid:e6eb5e6e-4131-4e1e-9157-b32230d3b097"
      },
      "orderedBy": {
        "coding": [ {
          "system": "http://hl7.org/fhir/list-order",
          "code": "event-date",
          "display": "Sorted by Event Date"
        } ]
      },
      "entry": [ {
        "item": {
          "reference": "urn:uuid:044c7672-52a5-43b6-8b20-49493c70aec7"
        }
      }, {
        "item": {
          "reference": "urn:uuid:f7289a74-122b-456e-8b03-26c4e00a3950"
        }
      }, {
        "item": {
          "reference": "urn:uuid:987b3483-45de-451e-b4be-1ba446f3f4c6"
        }
      }, {
        "item": {
          "reference": "urn:uuid:f0abe0e8-2220-48b0-ad49-be16fc5ad358"
        }
      }, {
        "item": {
          "reference": "urn:uuid:9466cac9-bd8b-48f8-9a6a-5c00023a427f"
        }
      }, {
        "item": {
          "reference": "urn:uuid:b2e92d25-a815-4adc-ae42-541ff44af332"
        }
      }, {
        "item": {
          "reference": "urn:uuid:4d97e531-afc3-44cd-99ba-fefa953f3654"
        }
      }, {
        "item": {
          "reference": "urn:uuid:81f8cfa7-81b3-4c2f-b3ce-f1fe9cf863bf"
        }
      }, {
        "item": {
          "reference": "urn:uuid:1a7f7287-3899-4fa7-ab31-517921f7271e"
        }
      }, {
        "item": {
          "reference": "urn:uuid:6f3a6e23-1880-443d-b94d-056eeec79ee5"
        }
      }, {
        "item": {
          "reference": "urn:uuid:7383b573-c88d-4460-bdcb-f0da0a52b867"
        }
      }, {
        "item": {
          "reference": "urn:uuid:77a711e7-41bb-415d-9836-51f9fe1cabd6"
        }
      }, {
        "item": {
          "reference": "urn:uuid:6dc1686e-f1dc-43f5-8bde-1a0723e6576a"
        }
      }, {
        "item": {
          "reference": "urn:uuid:6b1da48a-1fee-4d01-9f6e-5d8cb7148e34"
        }
      }, {
        "item": {
          "reference": "urn:uuid:9aca58b4-78aa-4201-aa52-390b4d30b847"
        }
      }, {
        "item": {
          "reference": "urn:uuid:a780a8b1-2465-48f9-9379-1c222da0b94d"
        }
      }, {
        "item": {
          "reference": "urn:uuid:5097a327-40dc-4b3f-9eab-b517c5030ebd"
        }
      }, {
        "item": {
          "reference": "urn:uuid:23513e59-fbcd-47c7-b5ea-7f034a04be5f"
        }
      }, {
        "item": {
          "reference": "urn:uuid:4282fd8a-014d-46f7-bba2-b065639bbf78"
        }
      }, {
        "item": {
          "reference": "urn:uuid:9ed79a0e-18cb-4c10-971b-9dbf10673d85"
        }
      }, {
        "item": {
          "reference": "urn:uuid:640306df-80b3-45ea-bde0-803233acc441"
        }
      }, {
        "item": {
          "reference": "urn:uuid:5117a23e-eece-4a0a-8d55-59cb3c1ff30c"
        }
      }, {
        "item": {
          "reference": "urn:uuid:406f6f20-6b2a-4513-9b09-c5d509974ad1"
        }
      }, {
        "item": {
          "reference": "urn:uuid:97918b8a-728b-4ead-9fcb-8f167ddac6ae"
        }
      }, {
        "item": {
          "reference": "urn:uuid:2ac825c8-b5be-4aff-8735-22af14b3f9e6"
        }
      }, {
        "item": {
          "reference": "urn:uuid:18cc3573-7211-4014-9c36-667117f94481"
        }
      }, {
        "item": {
          "reference": "urn:uuid:2d5ba77d-11a6-4f1f-9462-ea2229327c96"
        }
      }, {
        "item": {
          "reference": "urn:uuid:3670c2cc-f7b1-4a4a-a54f-249d82f2c2ff"
        }
      }, {
        "item": {
          "reference": "urn:uuid:cd9090da-14bc-468a-8d14-6740dd46b72e"
        }
      }, {
        "item": {
          "reference": "urn:uuid:62038d50-52a1-41f9-99a4-a597b5f9545e"
        }
      }, {
        "item": {
          "reference": "urn:uuid:d0b0a973-0c21-443c-8b24-e9298ed34f62"
        }
      }, {
        "item": {
          "reference": "urn:uuid:768f6d40-db53-4332-81ab-b75892453b43"
        }
      }, {
        "item": {
          "reference": "urn:uuid:38bf0427-6873-49c9-a0ea-4db82ab00820"
        }
      }, {
        "item": {
          "reference": "urn:uuid:8d5c8e7a-6009-4f33-8a4a-990d5f8e762b"
        }
      }, {
        "item": {
          "reference": "urn:uuid:1a74e6b4-27ef-4972-a0bc-9ca77384cdd2"
        }
      }, {
        "item": {
          "reference": "urn:uuid:4c5b6465-5650-45e0-ab6c-978a35f085ac"
        }
      }, {
        "item": {
          "reference": "urn:uuid:fb29f7ad-d56b-442f-b129-62936ef88b24"
        }
      }, {
        "item": {
          "reference": "urn:uuid:f5353022-2920-4d84-a131-612cff4c7082"
        }
      }, {
        "item": {
          "reference": "urn:uuid:edba8046-e449-4b20-b4d5-bb57c4dff0c8"
        }
      }, {
        "item": {
          "reference": "urn:uuid:ffad5d89-61b5-460a-9a17-bee876a0b133"
        }
      }, {
        "item": {
          "reference": "urn:uuid:607f9596-a0ec-4099-bf26-c3a610b27cbe"
        }
      }, {
        "item": {
          "reference": "urn:uuid:4d758218-fbe7-4b55-a476-ffdb6a4396e0"
        }
      }, {
        "item": {
          "reference": "urn:uuid:bda315b0-5a50-4ae4-beec-95e613c786cd"
        }
      }, {
        "item": {
          "reference": "urn:uuid:8ae827fb-3445-4b23-8ca2-ad050ffb98fa"
        }
      }, {
        "item": {
          "reference": "urn:uuid:241e27ba-b33a-4387-b4db-d417f31da470"
        }
      }, {
        "item": {
          "reference": "urn:uuid:524e845e-1093-4e86-aebd-6b5855c6d47a"
        }
      }, {
        "item": {
          "reference": "urn:uuid:4e49f961-1bf0-4334-84bc-24a4a0449375"
        }
      }, {
        "item": {
          "reference": "urn:uuid:e0d815a1-bc6e-4510-9363-7a5d9b26c753"
        }
      }, {
        "item": {
          "reference": "urn:uuid:d35ebfef-7326-4f50-a61e-22bbc12a80f0"
        }
      }, {
        "item": {
          "reference": "urn:uuid:cf103eee-e967-4f8a-b903-845e6017c4d3"
        }
      }, {
        "item": {
          "reference": "urn:uuid:63b3788c-11cb-4543-afe1-e81ca12c5922"
        }
      }, {
        "item": {
          "reference": "urn:uuid:8aeebaf3-7a69-4ea0-8149-a14ed167f3e1"
        }
      }, {
        "item": {
          "reference": "urn:uuid:cf25b1f5-c2ac-4282-8bee-5e33cd8b7f3a"
        }
      }, {
        "item": {
          "reference": "urn:uuid:d44b0b32-e30f-4fcb-b544-7f9bd02d897d"
        }
      }, {
        "item": {
          "reference": "urn:uuid:74d52c21-a4e3-4136-b026-e87a9c69c20d"
        }
      }, {
        "item": {
          "reference": "urn:uuid:15e8b481-acc5-4d21-9897-fac7bf70dc95"
        }
      }, {
        "item": {
          "reference": "urn:uuid:55713f1d-2248-4dda-8d6f-6c559a4bb5ce"
        }
      }, {
        "item": {
          "reference": "urn:uuid:caa57a4a-fddd-4445-91ec-c6f1192acdc8"
        }
      }, {
        "item": {
          "reference": "urn:uuid:8f85f46a-8542-4110-aad2-37d85f389d06"
        }
      }, {
        "item": {
          "reference": "urn:uuid:691d4bbc-8aec-43c8-bae6-ea448a0c269a"
        }
      }, {
        "item": {
          "reference": "urn:uuid:dbeecb5b-6f67-40fc-884c-9c309fa846b5"
        }
      }, {
        "item": {
          "reference": "urn:uuid:17359c2b-1e2e-484f-b0b9-7fd62614ce88"
        }
      } ]
    }
  } ]
}