{
  "resourceType": "Bundle",
  "identifier": {
    "type": {
      "text": "ClinicalDocument VersionNumber"
    },
    "value": "2"
  },
  "type": "message",
  "entry": [ {
    "fullUrl": "urn:uuid:2B77B3F5-3016-4A6D-821F-152CE420E58D",
    "resource": {
      "resourceType": "MessageHeader",
      "id": "2B77B3F5-3016-4A6D-821F-152CE420E58D",
      "event": {
        "system": "https://fhir.nhs.uk/STU3/CodeSystem/EventType-1",
        "code": "referral-1",
        "display": "Referral"
      },
      "destination": [ {
        "endpoint": "urn:nhs-uk:addressing:ods:EM396"
      } ],
      "timestamp": "2017-01-01T20:00:00.000+00:00",
      "source": {
        "name": "NHS 111 Adaptor",
        "endpoint": "http://localhost:8080/report"
      },
      "reason": {
        "coding": [ {
          "system": "urn:nhs-itk:ns:201005:interaction",
          "code": "urn:nhs-itk:interaction:primaryEmergencyDepartmentRecipientNHS111CDADocument-v2-0"
        } ]
      }
    }
  }, {
    "fullUrl": "urn:uuid:08164783-78ee-438e-8796-057cd39b8c38",
    "resource": {
      "resourceType": "Encounter",
      "id": "08164783-78ee-438e-8796-057cd39b8c38",
      "identifier": [ {
        "system": "2.16.840.1.113883.2.1.3.2.4.18.49",
        "value": "LOC665"
      }, {
        "system": "2.16.840.1.113883.2.1.3.2.4.18.34",
        "value": "CASEREF1234"
      }, {
        "system": "2.16.840.1.113883.2.1.3.2.4.18.35",
        "value": "CASEID123"
      } ],
      "status": "finished",
      "type": [ {
        "text": "111 Encounter Referral"
      } ],
      "subject": {
        "reference": "urn:uuid:116a1665-f620-45b3-a193-3e50794f018c"
      },
      "participant": [ {
        "type": [ {
          "text": "CALLBCK"
        } ],
        "individual": {
          "reference": "urn:uuid:2aa01083-a75f-493e-9031-42aaea5596a4"
        }
      }, {
        "type": [ {
          "coding": [ {
            "system": "http://hl7.org/fhir/ValueSet/encounter-participant-type",
            "code": "PPRF",
            "display": "Author"
          } ]
        } ],
        "individual": {
          "reference": "urn:uuid:c236d2b4-6d48-4d15-8b64-a09a779b4e4b"
        }
      }, {
        "type": [ {
          "text": "Informant"
        } ],
        "individual": {
          "reference": "urn:uuid:b7a3b25a-8fb9-4a39-a20f-446ce7922e63"
        }
      }, {
        "type": [ {
          "coding": [ {
            "system": "http://hl7.org/fhir/ValueSet/encounter-participant-type",
            "code": "ATND",
            "display": "Responsible Party"
          } ]
        } ],
        "individual": {
          "reference": "urn:uuid:0076025d-9103-4297-9410-133b2ea784be"
        }
      } ],
      "appointment": {
        "reference": "urn:uuid:97281520-7da4-407f-841d-4427ce212488"
      },
      "period": {
        "start": "2017-01-01T20:00:00+00:00"
      },
      "location": [ {
        "location": {
          "reference": "urn:uuid:67fb514f-6ad5-4d30-a6e6-ea9aa45824c9"
        },
        "status": "active"
      }, {
        "location": {
          "reference": "urn:uuid:364b7db2-4135-48b6-aa39-0a4065c69f00"
        },
        "status": "completed"
      } ],
      "serviceProvider": {
        "reference": "urn:uuid:abd5d441-06e3-4ce5-bf41-2d7947e28bb9"
      }
    }
  }, {
    "fullUrl": "urn:uuid:abd5d441-06e3-4ce5-bf41-2d7947e28bb9",
    "resource": {
      "resourceType": "Organization",
      "id": "abd5d441-06e3-4ce5-bf41-2d7947e28bb9",
      "active": true,
      "type": [ {
        "text": "CST"
      } ],
      "name": "Medway NHS Foundation Trust"
    }
  }, {
    "fullUrl": "urn:uuid:2aa01083-a75f-493e-9031-42aaea5596a4",
    "resource": {
      "resourceType": "Practitioner",
      "id": "2aa01083-a75f-493e-9031-42aaea5596a4",
      "active": true,
      "name": [ {
        "text": "Call Centre Manager"
      } ],
      "telecom": [ {
        "system": "phone",
        "value": "tel:08001111111"
      } ]
    }
  }, {
    "fullUrl": "urn:uuid:c236d2b4-6d48-4d15-8b64-a09a779b4e4b",
    "resource": {
      "resourceType": "Practitioner",
      "id": "c236d2b4-6d48-4d15-8b64-a09a779b4e4b",
      "active": true,
      "name": [ {
        "use": "official",
        "family": "Jones",
        "given": [ "Mary" ]
      } ]
    }
  }, {
    "fullUrl": "urn:uuid:b7a3b25a-8fb9-4a39-a20f-446ce7922e63",
    "resource": {
      "resourceType": "RelatedPerson",
      "id": "b7a3b25a-8fb9-4a39-a20f-446ce7922e63",
      "active": true,
      "patient": {
        "reference": "urn:uuid:116a1665-f620-45b3-a193-3e50794f018c"
      },
      "relationship": {
        "coding": [ {
          "system": "2.16.840.1.113883.2.1.3.2.4.16.45",
          "code": "01",
          "display": "Spouse"
        } ]
      },
      "name": [ {
        "use": "official",
        "family": "Bloggs",
        "given": [ "Helga" ]
      } ],
      "telecom": [ {
        "system": "phone",
        "value": "tel:07886554123",
        "use": "mobile"
      }, {
        "system": "phone",
        "value": "tel:01783678321"
      } ],
      "gender": "unknown",
      "address": [ {
        "use": "home",
        "line": [ "43 Summers Avenue", "Somerset Street" ],
        "city": "Medway",
        "postalCode": "ME5 7TY"
      } ]
    }
  }, {
    "fullUrl": "urn:uuid:0076025d-9103-4297-9410-133b2ea784be",
    "resource": {
      "resourceType": "Practitioner",
      "id": "0076025d-9103-4297-9410-133b2ea784be",
      "active": true,
      "name": [ {
        "use": "official",
        "family": "Cornwell",
        "given": [ "Dave" ]
      } ]
    }
  }, {
    "fullUrl": "urn:uuid:67fb514f-6ad5-4d30-a6e6-ea9aa45824c9",
    "resource": {
      "resourceType": "Location",
      "id": "67fb514f-6ad5-4d30-a6e6-ea9aa45824c9",
      "managingOrganization": {
        "reference": "urn:uuid:eaffd556-7484-4c08-8f85-e02342e3c986"
      }
    }
  }, {
    "fullUrl": "urn:uuid:eaffd556-7484-4c08-8f85-e02342e3c986",
    "resource": {
      "resourceType": "Organization",
      "id": "eaffd556-7484-4c08-8f85-e02342e3c986",
      "identifier": [ {
        "value": "V396F"
      } ],
      "type": [ {
        "text": "GP Practice"
      } ],
      "name": "Medway Medical Practice",
      "telecom": [ {
        "system": "phone",
        "value": "tel:01634111222",
        "use": "work"
      } ],
      "address": [ {
        "use": "work",
        "line": [ "Springer Street" ],
        "city": "Medway",
        "postalCode": "ME5 5TY"
      } ]
    }
  }, {
    "fullUrl": "urn:uuid:364b7db2-4135-48b6-aa39-0a4065c69f00",
    "resource": {
      "resourceType": "Location",
      "id": "364b7db2-4135-48b6-aa39-0a4065c69f00",
      "name": "Incident Location",
      "address": {
        "type": "physical",
        "text": "Follow the high street and turn left by Boots",
        "line": [ "2, Brancaster Road" ],
        "city": "Medway",
        "postalCode": "ME5 4LS",
        "country": "GB"
      }
    }
  }, {
    "fullUrl": "urn:uuid:116a1665-f620-45b3-a193-3e50794f018c",
    "resource": {
      "resourceType": "Patient",
      "id": "116a1665-f620-45b3-a193-3e50794f018c",
      "language": "en",
      "identifier": [ {
        "extension": [ {
          "url": "https://fhir.hl7.org.uk/STU3/StructureDefinition/Extension-CareConnect-NHSNumberVerificationStatus-1",
          "valueCodeableConcept": {
            "coding": [ {
              "system": "https://fhir.hl7.org.uk/STU3/StructureDefinition/Extension-CareConnect-NHSNumberVerificationStatus-1",
              "code": "02"
            } ]
          }
        } ],
        "system": "https://fhir.nhs.uk/Id/nhs-number",
        "value": "993254128"
      } ],
      "active": true,
      "name": [ {
        "use": "official",
        "family": "Joe",
        "given": [ "Blogg" ],
        "prefix": [ "Mr" ]
      } ],
      "telecom": [ {
        "system": "phone",
        "value": "tel:01634775667",
        "use": "home"
      }, {
        "system": "phone",
        "value": "tel:01634451628",
        "use": "home"
      }, {
        "system": "email",
        "value": "mailto:Joe.Blogg@emailfree.co.uk",
        "use": "home"
      } ],
      "gender": "male",
      "birthDate": "1989-01-01",
      "address": [ {
        "use": "home",
        "line": [ "17, County Avenue", "Woodtown" ],
        "city": "Medway",
        "postalCode": "ME5 FS3"
      } ],
      "generalPractitioner": [ {
        "reference": "urn:uuid:c7aeba00-7817-44cc-b7be-fd1ec083b4ab"
      } ]
    }
  }, {
    "fullUrl": "urn:uuid:c7aeba00-7817-44cc-b7be-fd1ec083b4ab",
    "resource": {
      "resourceType": "Organization",
      "id": "c7aeba00-7817-44cc-b7be-fd1ec083b4ab",
      "identifier": [ {
        "value": "V396F"
      } ],
      "type": [ {
        "text": "GP Practice"
      } ],
      "name": "Medway Medical Practice",
      "telecom": [ {
        "system": "phone",
        "value": "tel:01634111222",
        "use": "work"
      } ],
      "address": [ {
        "use": "work",
        "line": [ "Springer Street" ],
        "city": "Medway",
        "postalCode": "ME5 5TY"
      } ]
    }
  }, {
    "fullUrl": "urn:uuid:978aef59-3b46-4398-8aae-04f9937c25b5",
    "resource": {
      "resourceType": "HealthcareService",
      "id": "978aef59-3b46-4398-8aae-04f9937c25b5",
      "active": true,
      "providedBy": {
        "reference": "urn:uuid:6078c2b7-3983-4451-a484-9e2dd14afeb5"
      },
      "location": [ {
        "reference": "urn:uuid:1c7dc8c7-b896-4e7b-986a-f1e781c1d476"
      } ],
      "name": "Thames Medical Practice",
      "telecom": [ {
        "system": "phone",
        "value": "tel:0123476895",
        "use": "work"
      } ]
    }
  }, {
    "fullUrl": "urn:uuid:1c7dc8c7-b896-4e7b-986a-f1e781c1d476",
    "resource": {
      "resourceType": "Location",
      "id": "1c7dc8c7-b896-4e7b-986a-f1e781c1d476",
      "telecom": [ {
        "system": "phone",
        "value": "tel:0123476895",
        "use": "work"
      } ],
      "address": {
        "use": "work",
        "line": [ "Thames Medical Practice", "Hill Street Branch Surgery", "Medway", "Essex" ],
        "postalCode": "ME4 5TT"
      },
      "managingOrganization": {
        "reference": "urn:uuid:6078c2b7-3983-4451-a484-9e2dd14afeb5"
      }
    }
  }, {
    "fullUrl": "urn:uuid:6078c2b7-3983-4451-a484-9e2dd14afeb5",
    "resource": {
      "resourceType": "Organization",
      "id": "6078c2b7-3983-4451-a484-9e2dd14afeb5",
      "identifier": [ {
        "value": "PRA123"
      } ],
      "type": [ {
        "coding": [ {
          "code": "PRCP",
          "display": "Thames Medical Practice"
        } ]
      } ],
      "name": "Thames Medical Practice"
    }
  }, {
    "fullUrl": "urn:uuid:bd9b29e4-6913-4ee1-837f-94f332cfaff2",
    "resource": {
      "resourceType": "HealthcareService",
      "id": "bd9b29e4-6913-4ee1-837f-94f332cfaff2",
      "active": true,
      "providedBy": {
        "reference": "urn:uuid:e678fa28-6251-46b3-bc7b-ed34f6ac3213"
      },
      "location": [ {
        "reference": "urn:uuid:69cce30a-1c71-49a2-9022-1b4d9869a003"
      } ],
      "name": "Medway Kent Out of Hours Clinic"
    }
  }, {
    "fullUrl": "urn:uuid:69cce30a-1c71-49a2-9022-1b4d9869a003",
    "resource": {
      "resourceType": "Location",
      "id": "69cce30a-1c71-49a2-9022-1b4d9869a003",
      "managingOrganization": {
        "reference": "urn:uuid:e678fa28-6251-46b3-bc7b-ed34f6ac3213"
      }
    }
  }, {
    "fullUrl": "urn:uuid:e678fa28-6251-46b3-bc7b-ed34f6ac3213",
    "resource": {
      "resourceType": "Organization",
      "id": "e678fa28-6251-46b3-bc7b-ed34f6ac3213",
      "identifier": [ {
        "value": "EM396"
      } ],
      "type": [ {
        "coding": [ {
          "code": "PRCP",
          "display": "Medway Kent Out of Hours Clinic"
        } ]
      } ],
      "name": "Medway Kent Out of Hours Clinic"
    }
  }, {
    "fullUrl": "urn:uuid:a3224530-452e-4371-bcd9-749ca5a15941",
    "resource": {
      "resourceType": "ReferralRequest",
      "id": "a3224530-452e-4371-bcd9-749ca5a15941",
      "status": "active",
      "intent": "plan",
      "priority": "routine",
      "subject": {
        "reference": "urn:uuid:116a1665-f620-45b3-a193-3e50794f018c"
      },
      "context": {
        "reference": "urn:uuid:08164783-78ee-438e-8796-057cd39b8c38"
      },
      "occurrencePeriod": {
        "start": "2022-04-07T07:52:12+00:00",
        "end": "2022-04-07T08:52:12+00:00"
      },
      "authoredOn": "2019-01-01T20:00:00+00:00",
      "requester": {
        "agent": {
          "reference": "urn:uuid:1bdcbc09-8291-4771-87cc-cb46b436592e"
        },
        "onBehalfOf": {
          "reference": "urn:uuid:abd5d441-06e3-4ce5-bf41-2d7947e28bb9"
        }
      },
      "recipient": [ {
        "reference": "urn:uuid:1bbad3fb-18e7-4bf9-aee9-751c32b76ae4"
      }, {
        "reference": "urn:uuid:978aef59-3b46-4398-8aae-04f9937c25b5"
      }, {
        "reference": "urn:uuid:bd9b29e4-6913-4ee1-837f-94f332cfaff2"
      } ],
      "reasonReference": [ {
        "reference": "urn:uuid:59a95e62-02b8-4675-a5c9-c2877fe25d3d"
      } ],
      "supportingInfo": [ {
        "reference": "urn:uuid:ea7652e3-c8ca-49ba-ae0a-88c0f646cb02"
      } ]
    }
  }, {
    "fullUrl": "urn:uuid:ea7652e3-c8ca-49ba-ae0a-88c0f646cb02",
    "resource": {
      "resourceType": "ProcedureRequest",
      "id": "ea7652e3-c8ca-49ba-ae0a-88c0f646cb02",
      "status": "active",
      "intent": "plan",
      "priority": "routine",
      "doNotPerform": false,
      "code": {
        "coding": [ {
          "system": "2.16.840.1.113883.2.1.3.2.4.17.325",
          "code": "Dx001",
          "display": "Passed onto clinical hub"
        } ]
      },
      "subject": {
        "reference": "urn:uuid:116a1665-f620-45b3-a193-3e50794f018c"
      },
      "occurrencePeriod": {
        "start": "2022-04-07T07:52:12+00:00",
        "end": "2022-04-07T08:52:12+00:00"
      },
      "reasonReference": [ {
        "reference": "urn:uuid:59a95e62-02b8-4675-a5c9-c2877fe25d3d"
      } ]
    }
  }, {
    "fullUrl": "urn:uuid:1bbad3fb-18e7-4bf9-aee9-751c32b76ae4",
    "resource": {
      "resourceType": "Practitioner",
      "id": "1bbad3fb-18e7-4bf9-aee9-751c32b76ae4",
      "active": true,
      "telecom": [ {
        "system": "phone",
        "value": "tel:0123456789"
      } ],
      "address": [ {
        "type": "physical",
        "line": [ "Church Street Walk in Centre", "4 Church Street", "Medway" ],
        "postalCode": "ME8 7TT"
      } ]
    }
  }, {
    "fullUrl": "urn:uuid:afdaabc1-31d7-4b2a-bdc5-59eb780f1ecd",
    "resource": {
      "resourceType": "Composition",
      "id": "afdaabc1-31d7-4b2a-bdc5-59eb780f1ecd",
      "identifier": {
        "use": "usual",
        "value": "411910CF-1A76-4330-98FE-C345DDEE5553"
      },
      "status": "final",
      "type": {
        "coding": [ {
          "system": "http://snomed.info/sct",
          "code": "371531000",
          "display": "Report of clinical encounter (record artifact)"
        } ]
      },
      "subject": {
        "reference": "urn:uuid:116a1665-f620-45b3-a193-3e50794f018c"
      },
      "encounter": {
        "reference": "urn:uuid:08164783-78ee-438e-8796-057cd39b8c38"
      },
      "date": "2022-04-07T07:52:12+00:00",
      "author": [ {
        "reference": "urn:uuid:c236d2b4-6d48-4d15-8b64-a09a779b4e4b"
      } ],
      "title": "111 Report",
      "confidentiality": "V",
      "section": [ {
        "section": [ {
          "title": "Permission to View",
          "text": {
            "status": "generated",
            "div": "<div xmlns=\"http://www.w3.org/1999/xhtml\">&lt;table&gt;\n                                                        &lt;tbody&gt;\n                                                            &lt;tr&gt;\n                                                                &lt;th&gt;Permission to view outcome&lt;/th&gt;\n                                                                &lt;td&gt;Permission to view obtained&lt;/td&gt;\n                                                            &lt;/tr&gt;\n                                                            &lt;tr&gt;\n                                                                &lt;th&gt;Date obtained&lt;/th&gt;\n                                                                &lt;td&gt;01-Jan-2017, 20:00&lt;/td&gt;\n                                                            &lt;/tr&gt;\n                                                            &lt;tr&gt;\n                                                                &lt;th&gt;Date expires&lt;/th&gt;\n                                                                &lt;td&gt;15-Jan-2017, 20:00&lt;/td&gt;\n                                                            &lt;/tr&gt;\n                                                        &lt;/tbody&gt;\n                                                    &lt;/table&gt;</div>"
          }
        }, {
          "title": "Primary Reason for Call",
          "text": {
            "status": "generated",
            "div": "<div xmlns=\"http://www.w3.org/1999/xhtml\">&lt;content&gt;Patient feels dizzy.&lt;/content&gt;</div>"
          },
          "section": [ {
            "title": "SUBSUB2",
            "text": {
              "status": "generated",
              "div": "<div xmlns=\"http://www.w3.org/1999/xhtml\">&lt;content&gt;SUBSUB2&lt;/content&gt;</div>"
            },
            "section": [ {
              "title": "SUBSUB3",
              "text": {
                "status": "generated",
                "div": "<div xmlns=\"http://www.w3.org/1999/xhtml\">&lt;content&gt;SUBSUB3&lt;/content&gt;</div>"
              }
            } ]
          } ]
        }, {
          "title": "Clinical Summary",
          "text": {
            "status": "generated",
            "div": "<div xmlns=\"http://www.w3.org/1999/xhtml\">&lt;content&gt;\n                                                        Patient fels nausea and dizzy after waking up. Lasted 30\n                                                        minutes.\n                                                    &lt;/content&gt;</div>"
          }
        }, {
          "title": "Additional Patient Notes",
          "text": {
            "status": "generated",
            "div": "<div xmlns=\"http://www.w3.org/1999/xhtml\">Additional Patient Notes\n                                                    &lt;br/&gt;\n                                                    Additional Patient Notes abc 01-Feb-2017, 12:00\n                                                    &lt;br/&gt;</div>"
          },
          "section": [ {
            "text": {
              "status": "generated",
              "div": "<div xmlns=\"http://www.w3.org/1999/xhtml\">These are more notes, nested under the top one.</div>"
            }
          } ]
        }, {
          "title": "Disposition Details",
          "text": {
            "status": "generated",
            "div": "<div xmlns=\"http://www.w3.org/1999/xhtml\">&lt;content&gt;Lie down.&lt;/content&gt;</div>"
          }
        }, {
          "title": "Information and advice given",
          "text": {
            "status": "generated",
            "div": "<div xmlns=\"http://www.w3.org/1999/xhtml\">&lt;content&gt;Do not perform any strenuous activities.&lt;/content&gt;</div>"
          }
        }, {
          "title": "Recorded Allergies",
          "text": {
            "status": "generated",
            "div": "<div xmlns=\"http://www.w3.org/1999/xhtml\">&lt;content&gt;No known allergies or adverse reaction.&lt;/content&gt;</div>"
          }
        }, {
          "title": "Triage Report",
          "text": {
            "status": "generated",
            "div": "<div xmlns=\"http://www.w3.org/1999/xhtml\">&lt;content&gt;An injury or other health problem was described.\n                                                        &lt;br/&gt;The individual was described as breathing and conscious.\n                                                        &lt;br/&gt;Loss of at least a mugful of blood in the last 30 minutes\n                                                        was not described.\n                                                        &lt;br/&gt;An illness or other health problem was described. -\n                                                        Dizziness\n                                                        &lt;br/&gt;Fighting for breath was not described.\n                                                        &lt;br/&gt;A heart attack, chest/upper back pain, recent probable\n                                                        stroke, recent fit/seizure or suicide attempt was not described\n                                                        as the main call reason.\n                                                        &lt;br/&gt;Dizziness and nausea was described.\n                                                        &lt;br/&gt;\n                                                    &lt;/content&gt;</div>"
          }
        }, {
          "title": "Prescribed Items",
          "text": {
            "status": "generated",
            "div": "<div xmlns=\"http://www.w3.org/1999/xhtml\">&lt;content&gt;\n                                                        Medications\n                                                    &lt;/content&gt;</div>"
          }
        }, {
          "title": "Appointment Reference",
          "text": {
            "status": "generated",
            "div": "<div xmlns=\"http://www.w3.org/1999/xhtml\">&lt;content&gt;\n                                                        Date/Time: 01 June 2017 14:00\n                                                        Location: CENTRAL LONDON COMMUNITY HEALTHCARE NHS TRUST\n                                                        Psychiatric Community Care Service\n                                                    &lt;/content&gt;</div>"
          }
        } ]
      }, {
        "title": "CarePlan",
        "entry": [ {
          "reference": "urn:uuid:c19ccf10-6c12-4de9-a5a4-eea9811e9d0d"
        } ]
      }, {
        "title": "ReferralRequest",
        "entry": [ {
          "reference": "urn:uuid:a3224530-452e-4371-bcd9-749ca5a15941"
        } ]
      }, {
        "title": "QuestionnaireResponse",
        "entry": [ {
          "reference": "urn:uuid:fe155636-c840-47b7-b40d-c0c101b841c9"
        } ]
      }, {
        "title": "QuestionnaireResponse",
        "entry": [ {
          "reference": "urn:uuid:ff931664-3636-4da0-80f6-104489e50b4e"
        } ]
      }, {
        "title": "QuestionnaireResponse",
        "entry": [ {
          "reference": "urn:uuid:88e9716f-3b85-4184-b1f5-36bb9dca3732"
        } ]
      }, {
        "title": "QuestionnaireResponse",
        "entry": [ {
          "reference": "urn:uuid:70061632-9cd2-41bd-9fad-6ecacfffeb47"
        } ]
      }, {
        "title": "QuestionnaireResponse",
        "entry": [ {
          "reference": "urn:uuid:744c3d08-8810-41a6-898f-b555031e9f35"
        } ]
      }, {
        "title": "QuestionnaireResponse",
        "entry": [ {
          "reference": "urn:uuid:c0d56a16-c45f-46c7-85c8-cdcc7568c7ad"
        } ]
      }, {
        "title": "QuestionnaireResponse",
        "entry": [ {
          "reference": "urn:uuid:7e57a6b2-a15c-4cba-9515-2d080101a428"
        } ]
      }, {
        "title": "QuestionnaireResponse",
        "entry": [ {
          "reference": "urn:uuid:301988dd-847a-40c3-a189-373d9d0ff37a"
        } ]
      }, {
        "title": "QuestionnaireResponse",
        "entry": [ {
          "reference": "urn:uuid:cf12e329-7112-40f8-9004-790f069b0398"
        } ]
      }, {
        "title": "QuestionnaireResponse",
        "entry": [ {
          "reference": "urn:uuid:f637055a-3ccb-4952-9015-3925bb9cd447"
        } ]
      }, {
        "title": "QuestionnaireResponse",
        "entry": [ {
          "reference": "urn:uuid:b1144475-426f-4f4d-929c-1c166d68af02"
        } ]
      }, {
        "title": "QuestionnaireResponse",
        "entry": [ {
          "reference": "urn:uuid:d4d44e0f-b6e6-4e9f-976b-5ef1e475958e"
        } ]
      }, {
        "title": "QuestionnaireResponse",
        "entry": [ {
          "reference": "urn:uuid:3d5b1581-4331-44c0-b58a-f5ffae7d343a"
        } ]
      }, {
        "title": "QuestionnaireResponse",
        "entry": [ {
          "reference": "urn:uuid:d6789ed5-0421-4a5c-be98-e3dbc22e3030"
        } ]
      }, {
        "title": "QuestionnaireResponse",
        "entry": [ {
          "reference": "urn:uuid:65fc52df-cdaf-489f-bba9-adb944084372"
        } ]
      }, {
        "title": "QuestionnaireResponse",
        "entry": [ {
          "reference": "urn:uuid:8fd8d097-6a3a-43fa-889b-3ba948580a88"
        } ]
      }, {
        "title": "QuestionnaireResponse",
        "entry": [ {
          "reference": "urn:uuid:8ef9b4ed-fdae-4a6f-a9e1-53b30ac4221c"
        } ]
      }, {
        "title": "QuestionnaireResponse",
        "entry": [ {
          "reference": "urn:uuid:09a148dd-e018-4b18-b47d-43659ea3740d"
        } ]
      }, {
        "title": "QuestionnaireResponse",
        "entry": [ {
          "reference": "urn:uuid:7aa3951c-05d2-4f90-a16f-2ecb3f718811"
        } ]
      }, {
        "title": "QuestionnaireResponse",
        "entry": [ {
          "reference": "urn:uuid:d378f41d-e4a7-405a-a212-2c2977c8d215"
        } ]
      }, {
        "title": "QuestionnaireResponse",
        "entry": [ {
          "reference": "urn:uuid:e5e0ce74-3ae7-4331-8642-1a00f35d1e16"
        } ]
      }, {
        "title": "QuestionnaireResponse",
        "entry": [ {
          "reference": "urn:uuid:989bb83a-735e-453e-986d-d6fba7ec4017"
        } ]
      }, {
        "title": "QuestionnaireResponse",
        "entry": [ {
          "reference": "urn:uuid:22fbe64e-8554-4acb-8fbf-5347ddc9b535"
        } ]
      }, {
        "title": "QuestionnaireResponse",
        "entry": [ {
          "reference": "urn:uuid:369cce9a-85d6-4a8d-a87c-a829351b3543"
        } ]
      } ]
    }
  }, {
    "fullUrl": "urn:uuid:c19ccf10-6c12-4de9-a5a4-eea9811e9d0d",
    "resource": {
      "resourceType": "CarePlan",
      "id": "c19ccf10-6c12-4de9-a5a4-eea9811e9d0d",
      "status": "completed",
      "intent": "plan",
      "title": "Information and advice given",
      "description": "Do not perform any strenuous activities.",
      "subject": {
        "reference": "urn:uuid:116a1665-f620-45b3-a193-3e50794f018c"
      },
      "context": {
        "reference": "urn:uuid:08164783-78ee-438e-8796-057cd39b8c38"
      },
      "period": {
        "start": "2017-01-01T20:00:00+00:00"
      },
      "author": [ {
        "reference": "urn:uuid:eaffd556-7484-4c08-8f85-e02342e3c986"
      } ],
      "addresses": [ {
        "reference": "urn:uuid:59a95e62-02b8-4675-a5c9-c2877fe25d3d"
      } ]
    }
  }, {
    "fullUrl": "urn:uuid:16394a22-b21c-4f7c-b8fb-f096cc66333a",
    "resource": {
      "resourceType": "Consent",
      "id": "16394a22-b21c-4f7c-b8fb-f096cc66333a",
      "text": {
        "status": "generated",
        "div": "<div xmlns=\"http://www.w3.org/1999/xhtml\">\n                                                    <table>\n                                                        <tbody>\n                                                            <tr>\n                                                                <th>Permission to view outcome</th>\n                                                                <td>Permission to view obtained</td>\n                                                            </tr>\n                                                            <tr>\n                                                                <th>Date obtained</th>\n                                                                <td>01-Jan-2017, 20:00</td>\n                                                            </tr>\n                                                            <tr>\n                                                                <th>Date expires</th>\n                                                                <td>15-Jan-2017, 20:00</td>\n                                                            </tr>\n                                                        </tbody>\n                                                    </table>\n                                                </div>"
      },
      "identifier": {
        "use": "usual",
        "value": "411910CF-1A76-4330-98FE-C345DDEE5553"
      },
      "status": "active",
      "patient": {
        "reference": "urn:uuid:116a1665-f620-45b3-a193-3e50794f018c"
      },
      "period": {
        "start": "2017-01-01T20:00:00+00:00"
      },
      "consentingParty": [ {
        "reference": "urn:uuid:116a1665-f620-45b3-a193-3e50794f018c"
      } ],
      "action": [ {
        "coding": [ {
          "system": "http://snomed.info/sct",
          "code": "425691002",
          "display": "Consent given for electronic record sharing"
        } ],
        "text": "Consent given for electronic record sharing"
      } ],
      "organization": [ {
        "reference": "urn:uuid:abd5d441-06e3-4ce5-bf41-2d7947e28bb9"
      } ],
      "sourceIdentifier": {
        "value": "41D9F90F-6DB7-4939-BEF5-F8D75D79ECDD"
      },
      "policyRule": "http://hl7.org/fhir/ConsentPolicy/opt-out",
      "dataPeriod": {
        "start": "2011-05-19T20:00:00+00:00",
        "end": "2011-05-26T20:00:00+00:00"
      },
      "data": [ {
        "meaning": "related",
        "reference": {
          "reference": "urn:uuid:08164783-78ee-438e-8796-057cd39b8c38"
        }
      } ]
    }
  }, {
    "fullUrl": "urn:uuid:59a95e62-02b8-4675-a5c9-c2877fe25d3d",
    "resource": {
      "resourceType": "Condition",
      "id": "59a95e62-02b8-4675-a5c9-c2877fe25d3d",
      "clinicalStatus": "active",
      "verificationStatus": "unknown",
      "code": {
        "coding": [ {
          "system": "22298006",
          "code": "2.16.840.1.113883.2.1.3.2.4.15",
          "display": "Myocardial infarction"
        } ]
      },
      "subject": {
        "reference": "urn:uuid:116a1665-f620-45b3-a193-3e50794f018c"
      },
      "context": {
        "reference": "urn:uuid:08164783-78ee-438e-8796-057cd39b8c38"
      },
      "assertedDate": "2017-06-01T14:00:00+00:00",
      "evidence": [ {
        "detail": [ {
          "reference": "urn:uuid:fe155636-c840-47b7-b40d-c0c101b841c9"
        } ]
      }, {
        "detail": [ {
          "reference": "urn:uuid:ff931664-3636-4da0-80f6-104489e50b4e"
        } ]
      }, {
        "detail": [ {
          "reference": "urn:uuid:88e9716f-3b85-4184-b1f5-36bb9dca3732"
        } ]
      }, {
        "detail": [ {
          "reference": "urn:uuid:70061632-9cd2-41bd-9fad-6ecacfffeb47"
        } ]
      }, {
        "detail": [ {
          "reference": "urn:uuid:744c3d08-8810-41a6-898f-b555031e9f35"
        } ]
      }, {
        "detail": [ {
          "reference": "urn:uuid:c0d56a16-c45f-46c7-85c8-cdcc7568c7ad"
        } ]
      }, {
        "detail": [ {
          "reference": "urn:uuid:7e57a6b2-a15c-4cba-9515-2d080101a428"
        } ]
      }, {
        "detail": [ {
          "reference": "urn:uuid:301988dd-847a-40c3-a189-373d9d0ff37a"
        } ]
      }, {
        "detail": [ {
          "reference": "urn:uuid:cf12e329-7112-40f8-9004-790f069b0398"
        } ]
      }, {
        "detail": [ {
          "reference": "urn:uuid:f637055a-3ccb-4952-9015-3925bb9cd447"
        } ]
      }, {
        "detail": [ {
          "reference": "urn:uuid:b1144475-426f-4f4d-929c-1c166d68af02"
        } ]
      }, {
        "detail": [ {
          "reference": "urn:uuid:d4d44e0f-b6e6-4e9f-976b-5ef1e475958e"
        } ]
      }, {
        "detail": [ {
          "reference": "urn:uuid:3d5b1581-4331-44c0-b58a-f5ffae7d343a"
        } ]
      }, {
        "detail": [ {
          "reference": "urn:uuid:d6789ed5-0421-4a5c-be98-e3dbc22e3030"
        } ]
      }, {
        "detail": [ {
          "reference": "urn:uuid:65fc52df-cdaf-489f-bba9-adb944084372"
        } ]
      }, {
        "detail": [ {
          "reference": "urn:uuid:8fd8d097-6a3a-43fa-889b-3ba948580a88"
        } ]
      }, {
        "detail": [ {
          "reference": "urn:uuid:8ef9b4ed-fdae-4a6f-a9e1-53b30ac4221c"
        } ]
      }, {
        "detail": [ {
          "reference": "urn:uuid:09a148dd-e018-4b18-b47d-43659ea3740d"
        } ]
      }, {
        "detail": [ {
          "reference": "urn:uuid:7aa3951c-05d2-4f90-a16f-2ecb3f718811"
        } ]
      }, {
        "detail": [ {
          "reference": "urn:uuid:d378f41d-e4a7-405a-a212-2c2977c8d215"
        } ]
      }, {
        "detail": [ {
          "reference": "urn:uuid:e5e0ce74-3ae7-4331-8642-1a00f35d1e16"
        } ]
      }, {
        "detail": [ {
          "reference": "urn:uuid:989bb83a-735e-453e-986d-d6fba7ec4017"
        } ]
      }, {
        "detail": [ {
          "reference": "urn:uuid:22fbe64e-8554-4acb-8fbf-5347ddc9b535"
        } ]
      }, {
        "detail": [ {
          "reference": "urn:uuid:369cce9a-85d6-4a8d-a87c-a829351b3543"
        } ]
      } ]
    }
  }, {
    "fullUrl": "urn:uuid:fe155636-c840-47b7-b40d-c0c101b841c9",
    "resource": {
      "resourceType": "QuestionnaireResponse",
      "id": "fe155636-c840-47b7-b40d-c0c101b841c9",
      "identifier": {
        "value": "8067b9b2-e604-4414-b56f-8e3cc4de4b1b"
      },
      "questionnaire": {
        "reference": "urn:uuid:82d5de13-571a-4d70-8dac-d7f0a147c3f9"
      },
      "status": "completed",
      "subject": {
        "reference": "urn:uuid:116a1665-f620-45b3-a193-3e50794f018c"
      },
      "context": {
        "reference": "urn:uuid:08164783-78ee-438e-8796-057cd39b8c38"
      },
      "authored": "2011-02-17T17:31:14+00:00",
      "item": [ {
        "linkId": "N/A"
      } ]
    }
  }, {
    "fullUrl": "urn:uuid:82d5de13-571a-4d70-8dac-d7f0a147c3f9",
    "resource": {
      "resourceType": "Questionnaire",
      "id": "82d5de13-571a-4d70-8dac-d7f0a147c3f9",
      "identifier": [ {
        "value": "8067b9b2-e604-4414-b56f-8e3cc4de4b1b"
      } ],
      "version": "2011-02-17T17:31:14.313Z",
      "status": "active",
      "experimental": false,
      "date": "2011-02-17T17:31:14+00:00",
      "publisher": "User ID: '3137' User name: 'redacted' User skill set: 'T1'",
      "lastReviewDate": "2011-02-17",
      "jurisdiction": [ {
        "text": "England"
      } ],
      "contact": [ {
        "telecom": [ {
          "system": "phone",
          "value": "redacted"
        } ]
      } ],
      "subjectType": [ "Patient" ],
      "item": [ {
        "linkId": "8067b9b2-e604-4414-b56f-8e3cc4de4b1b",
        "prefix": "0",
        "type": "choice",
        "required": true,
        "repeats": false,
        "option": [ {
          "valueString": ", Selected: false"
        } ]
      } ]
    }
  }, {
    "fullUrl": "urn:uuid:ff931664-3636-4da0-80f6-104489e50b4e",
    "resource": {
      "resourceType": "QuestionnaireResponse",
      "id": "ff931664-3636-4da0-80f6-104489e50b4e",
      "identifier": {
        "value": "8067b9b2-e604-4414-b56f-8e3cc4de4b1b"
      },
      "questionnaire": {
        "reference": "urn:uuid:8f442297-69f3-41e5-ae14-6087f9eef632"
      },
      "status": "completed",
      "subject": {
        "reference": "urn:uuid:116a1665-f620-45b3-a193-3e50794f018c"
      },
      "context": {
        "reference": "urn:uuid:08164783-78ee-438e-8796-057cd39b8c38"
      },
      "authored": "2011-02-17T17:31:14+00:00",
      "item": [ {
        "linkId": "N/A"
      } ]
    }
  }, {
    "fullUrl": "urn:uuid:8f442297-69f3-41e5-ae14-6087f9eef632",
    "resource": {
      "resourceType": "Questionnaire",
      "id": "8f442297-69f3-41e5-ae14-6087f9eef632",
      "identifier": [ {
        "value": "8067b9b2-e604-4414-b56f-8e3cc4de4b1b"
      } ],
      "version": "2011-02-17T17:31:14.313Z",
      "status": "active",
      "experimental": false,
      "date": "2011-02-17T17:31:14+00:00",
      "publisher": "User ID: '3137' User name: 'redacted' User skill set: 'T1'",
      "lastReviewDate": "2011-02-17",
      "jurisdiction": [ {
        "text": "England"
      } ],
      "contact": [ {
        "telecom": [ {
          "system": "phone",
          "value": "redacted"
        } ]
      } ],
      "subjectType": [ "Patient" ],
      "item": [ {
        "linkId": "8067b9b2-e604-4414-b56f-8e3cc4de4b1b",
        "prefix": "0",
        "type": "choice",
        "required": true,
        "repeats": false,
        "option": [ {
          "valueString": ", Selected: false"
        } ]
      } ]
    }
  }, {
    "fullUrl": "urn:uuid:88e9716f-3b85-4184-b1f5-36bb9dca3732",
    "resource": {
      "resourceType": "QuestionnaireResponse",
      "id": "88e9716f-3b85-4184-b1f5-36bb9dca3732",
      "identifier": {
        "value": "8067b9b2-e604-4414-b56f-8e3cc4de4b1b"
      },
      "questionnaire": {
        "reference": "urn:uuid:2c48c083-ed99-4169-921a-ddec405f1bdc"
      },
      "status": "completed",
      "subject": {
        "reference": "urn:uuid:116a1665-f620-45b3-a193-3e50794f018c"
      },
      "context": {
        "reference": "urn:uuid:08164783-78ee-438e-8796-057cd39b8c38"
      },
      "authored": "2011-02-17T17:31:14+00:00",
      "item": [ {
        "linkId": "Tx220109",
        "text": "What is the reason for the call?",
        "answer": [ {
          "valueString": "an injury or other health problem"
        } ]
      } ]
    }
  }, {
    "fullUrl": "urn:uuid:2c48c083-ed99-4169-921a-ddec405f1bdc",
    "resource": {
      "resourceType": "Questionnaire",
      "id": "2c48c083-ed99-4169-921a-ddec405f1bdc",
      "identifier": [ {
        "value": "8067b9b2-e604-4414-b56f-8e3cc4de4b1b"
      } ],
      "version": "2011-02-17T17:31:14.313Z",
      "status": "active",
      "experimental": false,
      "date": "2011-02-17T17:31:14+00:00",
      "publisher": "User ID: '3137' User name: 'redacted' User skill set: 'T1'",
      "lastReviewDate": "2011-02-17",
      "jurisdiction": [ {
        "text": "England"
      } ],
      "contact": [ {
        "telecom": [ {
          "system": "phone",
          "value": "redacted"
        } ]
      } ],
      "subjectType": [ "Patient" ],
      "item": [ {
        "linkId": "8067b9b2-e604-4414-b56f-8e3cc4de4b1b",
        "prefix": "5",
        "text": "What is the reason for the call?",
        "type": "choice",
        "required": true,
        "repeats": false,
        "option": [ {
          "valueString": "an injury or other health problem, Selected: true"
        }, {
          "valueString": "a need to access another healthcare provider, Selected: false"
        }, {
          "valueString": "a healthcare professional requesting contact with another clinician, Selected: false"
        }, {
          "valueString": "a report of results or tests, Selected: false"
        }, {
          "valueString": "more, Selected: false"
        } ]
      } ]
    }
  }, {
    "fullUrl": "urn:uuid:70061632-9cd2-41bd-9fad-6ecacfffeb47",
    "resource": {
      "resourceType": "QuestionnaireResponse",
      "id": "70061632-9cd2-41bd-9fad-6ecacfffeb47",
      "identifier": {
        "value": "8067b9b2-e604-4414-b56f-8e3cc4de4b1b"
      },
      "questionnaire": {
        "reference": "urn:uuid:5b61fb04-acaa-4eff-9a18-7d578b48d7fc"
      },
      "status": "completed",
      "subject": {
        "reference": "urn:uuid:116a1665-f620-45b3-a193-3e50794f018c"
      },
      "context": {
        "reference": "urn:uuid:08164783-78ee-438e-8796-057cd39b8c38"
      },
      "authored": "2011-02-17T17:31:14+00:00",
      "item": [ {
        "linkId": "Tx140118",
        "text": "Has the baby just been born?",
        "answer": [ {
          "valueString": "no"
        } ]
      } ]
    }
  }, {
    "fullUrl": "urn:uuid:5b61fb04-acaa-4eff-9a18-7d578b48d7fc",
    "resource": {
      "resourceType": "Questionnaire",
      "id": "5b61fb04-acaa-4eff-9a18-7d578b48d7fc",
      "identifier": [ {
        "value": "8067b9b2-e604-4414-b56f-8e3cc4de4b1b"
      } ],
      "version": "2011-02-17T17:31:14.313Z",
      "status": "active",
      "experimental": false,
      "date": "2011-02-17T17:31:14+00:00",
      "publisher": "User ID: '3137' User name: 'redacted' User skill set: 'T1'",
      "lastReviewDate": "2011-02-17",
      "jurisdiction": [ {
        "text": "England"
      } ],
      "contact": [ {
        "telecom": [ {
          "system": "phone",
          "value": "redacted"
        } ]
      } ],
      "subjectType": [ "Patient" ],
      "item": [ {
        "linkId": "8067b9b2-e604-4414-b56f-8e3cc4de4b1b",
        "prefix": "35",
        "text": "Has the baby just been born?",
        "type": "choice",
        "required": true,
        "repeats": false,
        "option": [ {
          "valueString": "yes, Selected: false"
        }, {
          "valueString": "not sure, Selected: false"
        }, {
          "valueString": "no, Selected: true"
        } ]
      } ]
    }
  }, {
    "fullUrl": "urn:uuid:744c3d08-8810-41a6-898f-b555031e9f35",
    "resource": {
      "resourceType": "QuestionnaireResponse",
      "id": "744c3d08-8810-41a6-898f-b555031e9f35",
      "identifier": {
        "value": "8067b9b2-e604-4414-b56f-8e3cc4de4b1b"
      },
      "questionnaire": {
        "reference": "urn:uuid:1493ab7e-f630-4810-8789-da1dd7e6fb2c"
      },
      "status": "completed",
      "subject": {
        "reference": "urn:uuid:116a1665-f620-45b3-a193-3e50794f018c"
      },
      "context": {
        "reference": "urn:uuid:08164783-78ee-438e-8796-057cd39b8c38"
      },
      "authored": "2011-02-17T17:31:14+00:00",
      "item": [ {
        "linkId": "Tx220110",
        "text": "Is he breathing and conscious?",
        "answer": [ {
          "valueString": "breathing AND conscious"
        } ]
      } ]
    }
  }, {
    "fullUrl": "urn:uuid:1493ab7e-f630-4810-8789-da1dd7e6fb2c",
    "resource": {
      "resourceType": "Questionnaire",
      "id": "1493ab7e-f630-4810-8789-da1dd7e6fb2c",
      "identifier": [ {
        "value": "8067b9b2-e604-4414-b56f-8e3cc4de4b1b"
      } ],
      "version": "2011-02-17T17:31:14.313Z",
      "status": "active",
      "experimental": false,
      "date": "2011-02-17T17:31:14+00:00",
      "publisher": "User ID: '3137' User name: 'redacted' User skill set: 'T1'",
      "lastReviewDate": "2011-02-17",
      "jurisdiction": [ {
        "text": "England"
      } ],
      "contact": [ {
        "telecom": [ {
          "system": "phone",
          "value": "redacted"
        } ]
      } ],
      "subjectType": [ "Patient" ],
      "item": [ {
        "linkId": "8067b9b2-e604-4414-b56f-8e3cc4de4b1b",
        "prefix": "40",
        "text": "Is he breathing and conscious?",
        "type": "choice",
        "required": true,
        "repeats": false,
        "option": [ {
          "valueString": "breathing AND conscious, Selected: true"
        }, {
          "valueString": "breathing but NOT conscious (includes current fitting), Selected: false"
        }, {
          "valueString": "NOT breathing, Selected: false"
        }, {
          "valueString": "choking now, Selected: false"
        } ]
      } ]
    }
  }, {
    "fullUrl": "urn:uuid:c0d56a16-c45f-46c7-85c8-cdcc7568c7ad",
    "resource": {
      "resourceType": "QuestionnaireResponse",
      "id": "c0d56a16-c45f-46c7-85c8-cdcc7568c7ad",
      "identifier": {
        "value": "8067b9b2-e604-4414-b56f-8e3cc4de4b1b"
      },
      "questionnaire": {
        "reference": "urn:uuid:21cf1456-628c-4b80-9090-6c37b68b4f19"
      },
      "status": "completed",
      "subject": {
        "reference": "urn:uuid:116a1665-f620-45b3-a193-3e50794f018c"
      },
      "context": {
        "reference": "urn:uuid:08164783-78ee-438e-8796-057cd39b8c38"
      },
      "authored": "2011-02-17T17:31:14+00:00",
      "item": [ {
        "linkId": "Tx220285",
        "text": "Has he been bleeding very heavily IN THE LAST HOUR?",
        "answer": [ {
          "valueString": "no"
        } ]
      } ]
    }
  }, {
    "fullUrl": "urn:uuid:21cf1456-628c-4b80-9090-6c37b68b4f19",
    "resource": {
      "resourceType": "Questionnaire",
      "id": "21cf1456-628c-4b80-9090-6c37b68b4f19",
      "identifier": [ {
        "value": "8067b9b2-e604-4414-b56f-8e3cc4de4b1b"
      } ],
      "version": "2011-02-17T17:31:14.313Z",
      "status": "active",
      "experimental": false,
      "date": "2011-02-17T17:31:14+00:00",
      "publisher": "User ID: '3137' User name: 'redacted' User skill set: 'T1'",
      "lastReviewDate": "2011-02-17",
      "jurisdiction": [ {
        "text": "England"
      } ],
      "contact": [ {
        "telecom": [ {
          "system": "phone",
          "value": "redacted"
        } ]
      } ],
      "subjectType": [ "Patient" ],
      "item": [ {
        "linkId": "8067b9b2-e604-4414-b56f-8e3cc4de4b1b",
        "prefix": "60",
        "text": "Has he been bleeding very heavily IN THE LAST HOUR?",
        "type": "choice",
        "required": true,
        "repeats": false,
        "option": [ {
          "valueString": "blood spurting from a wound, Selected: false"
        }, {
          "valueString": "an egg cupful or more of red blood from a body opening, Selected: false"
        }, {
          "valueString": "an egg cupful or more from a wound, Selected: false"
        }, {
          "valueString": "not sure, Selected: false"
        }, {
          "valueString": "no, Selected: true"
        } ]
      } ]
    }
  }, {
    "fullUrl": "urn:uuid:7e57a6b2-a15c-4cba-9515-2d080101a428",
    "resource": {
      "resourceType": "QuestionnaireResponse",
      "id": "7e57a6b2-a15c-4cba-9515-2d080101a428",
      "identifier": {
        "value": "8067b9b2-e604-4414-b56f-8e3cc4de4b1b"
      },
      "questionnaire": {
        "reference": "urn:uuid:0c156989-cc62-46fa-bf1e-92492583dd2a"
      },
      "status": "completed",
      "subject": {
        "reference": "urn:uuid:116a1665-f620-45b3-a193-3e50794f018c"
      },
      "context": {
        "reference": "urn:uuid:08164783-78ee-438e-8796-057cd39b8c38"
      },
      "authored": "2011-02-17T17:31:14+00:00",
      "item": [ {
        "linkId": "N/A",
        "text": "SocialConcernsExcluded",
        "answer": [ {
          "valueString": "*"
        } ]
      } ]
    }
  }, {
    "fullUrl": "urn:uuid:0c156989-cc62-46fa-bf1e-92492583dd2a",
    "resource": {
      "resourceType": "Questionnaire",
      "id": "0c156989-cc62-46fa-bf1e-92492583dd2a",
      "identifier": [ {
        "value": "8067b9b2-e604-4414-b56f-8e3cc4de4b1b"
      } ],
      "version": "2011-02-17T17:31:14.313Z",
      "status": "active",
      "experimental": false,
      "date": "2011-02-17T17:31:14+00:00",
      "publisher": "User ID: '3137' User name: 'redacted' User skill set: 'T1'",
      "lastReviewDate": "2011-02-17",
      "jurisdiction": [ {
        "text": "England"
      } ],
      "contact": [ {
        "telecom": [ {
          "system": "phone",
          "value": "redacted"
        } ]
      } ],
      "subjectType": [ "Patient" ],
      "item": [ {
        "linkId": "8067b9b2-e604-4414-b56f-8e3cc4de4b1b",
        "prefix": "2050",
        "text": "SocialConcernsExcluded",
        "type": "choice",
        "required": true,
        "repeats": false,
        "option": [ {
          "valueString": "==\"present\", Selected: false"
        }, {
          "valueString": "*, Selected: true"
        } ]
      } ]
    }
  }, {
    "fullUrl": "urn:uuid:301988dd-847a-40c3-a189-373d9d0ff37a",
    "resource": {
      "resourceType": "QuestionnaireResponse",
      "id": "301988dd-847a-40c3-a189-373d9d0ff37a",
      "identifier": {
        "value": "8067b9b2-e604-4414-b56f-8e3cc4de4b1b"
      },
      "questionnaire": {
        "reference": "urn:uuid:10fa7a88-5c69-4616-8693-2fdb4f21b406"
      },
      "status": "completed",
      "subject": {
        "reference": "urn:uuid:116a1665-f620-45b3-a193-3e50794f018c"
      },
      "context": {
        "reference": "urn:uuid:08164783-78ee-438e-8796-057cd39b8c38"
      },
      "authored": "2011-02-17T17:31:14+00:00",
      "item": [ {
        "linkId": "Tx140159",
        "text": "What is the reason for ending the assessment?",
        "answer": [ {
          "valueString": "transfer to a clinician"
        } ]
      } ]
    }
  }, {
    "fullUrl": "urn:uuid:10fa7a88-5c69-4616-8693-2fdb4f21b406",
    "resource": {
      "resourceType": "Questionnaire",
      "id": "10fa7a88-5c69-4616-8693-2fdb4f21b406",
      "identifier": [ {
        "value": "8067b9b2-e604-4414-b56f-8e3cc4de4b1b"
      } ],
      "version": "2011-02-17T17:31:14.313Z",
      "status": "active",
      "experimental": false,
      "date": "2011-02-17T17:31:14+00:00",
      "publisher": "User ID: '3137' User name: 'redacted' User skill set: 'T1'",
      "lastReviewDate": "2011-02-17",
      "jurisdiction": [ {
        "text": "England"
      } ],
      "contact": [ {
        "telecom": [ {
          "system": "phone",
          "value": "redacted"
        } ]
      } ],
      "subjectType": [ "Patient" ],
      "item": [ {
        "linkId": "8067b9b2-e604-4414-b56f-8e3cc4de4b1b",
        "prefix": "0",
        "text": "What is the reason for ending the assessment?",
        "type": "choice",
        "required": true,
        "repeats": false,
        "option": [ {
          "valueString": "the phone line went dead, Selected: false"
        }, {
          "valueString": "the caller terminated the call (specify), Selected: false"
        }, {
          "valueString": "I terminated the call (specify), Selected: false"
        }, {
          "valueString": "triage not possible, Selected: false"
        }, {
          "valueString": "transfer to a clinician, Selected: true"
        } ]
      } ]
    }
  }, {
    "fullUrl": "urn:uuid:cf12e329-7112-40f8-9004-790f069b0398",
    "resource": {
      "resourceType": "QuestionnaireResponse",
      "id": "cf12e329-7112-40f8-9004-790f069b0398",
      "identifier": {
        "value": "8067b9b2-e604-4414-b56f-8e3cc4de4b1b"
      },
      "questionnaire": {
        "reference": "urn:uuid:c5f4862f-66eb-4fd8-91ea-ad96a0a6baa9"
      },
      "status": "completed",
      "subject": {
        "reference": "urn:uuid:116a1665-f620-45b3-a193-3e50794f018c"
      },
      "context": {
        "reference": "urn:uuid:08164783-78ee-438e-8796-057cd39b8c38"
      },
      "authored": "2011-02-17T17:31:14+00:00",
      "item": [ {
        "linkId": "Tx220408",
        "text": "WHAT IS THE REASON FOR TRANSFER TO A CLINICIAN?",
        "answer": [ {
          "valueString": "other complex call (specify)"
        } ]
      } ]
    }
  }, {
    "fullUrl": "urn:uuid:c5f4862f-66eb-4fd8-91ea-ad96a0a6baa9",
    "resource": {
      "resourceType": "Questionnaire",
      "id": "c5f4862f-66eb-4fd8-91ea-ad96a0a6baa9",
      "identifier": [ {
        "value": "8067b9b2-e604-4414-b56f-8e3cc4de4b1b"
      } ],
      "version": "2011-02-17T17:31:14.313Z",
      "status": "active",
      "experimental": false,
      "date": "2011-02-17T17:31:14+00:00",
      "publisher": "User ID: '3137' User name: 'redacted' User skill set: 'T1'",
      "lastReviewDate": "2011-02-17",
      "jurisdiction": [ {
        "text": "England"
      } ],
      "contact": [ {
        "telecom": [ {
          "system": "phone",
          "value": "redacted"
        } ]
      } ],
      "subjectType": [ "Patient" ],
      "item": [ {
        "linkId": "8067b9b2-e604-4414-b56f-8e3cc4de4b1b",
        "prefix": "50",
        "text": "WHAT IS THE REASON FOR TRANSFER TO A CLINICIAN?",
        "type": "choice",
        "required": true,
        "repeats": false,
        "option": [ {
          "valueString": "caller refuses disposition, Selected: false"
        }, {
          "valueString": "multiple unrelated symptoms, Selected: false"
        }, {
          "valueString": "difficulty obtaining adequate information, Selected: false"
        }, {
          "valueString": "medication or medical procedure enquiry, Selected: false"
        }, {
          "valueString": "declared medical history (details not required), Selected: false"
        }, {
          "valueString": "other complex call (specify), Selected: true"
        } ]
      } ]
    }
  }, {
    "fullUrl": "urn:uuid:f637055a-3ccb-4952-9015-3925bb9cd447",
    "resource": {
      "resourceType": "QuestionnaireResponse",
      "id": "f637055a-3ccb-4952-9015-3925bb9cd447",
      "identifier": {
        "value": "8067b9b2-e604-4414-b56f-8e3cc4de4b1b"
      },
      "questionnaire": {
        "reference": "urn:uuid:652fa40a-5a28-463f-bdd9-1e39f35a0f4d"
      },
      "status": "completed",
      "subject": {
        "reference": "urn:uuid:116a1665-f620-45b3-a193-3e50794f018c"
      },
      "context": {
        "reference": "urn:uuid:08164783-78ee-438e-8796-057cd39b8c38"
      },
      "authored": "2011-02-17T17:31:14+00:00",
      "item": [ {
        "linkId": "N/A",
        "text": "Speak to Clinician from our Service immediately"
      } ]
    }
  }, {
    "fullUrl": "urn:uuid:652fa40a-5a28-463f-bdd9-1e39f35a0f4d",
    "resource": {
      "resourceType": "Questionnaire",
      "id": "652fa40a-5a28-463f-bdd9-1e39f35a0f4d",
      "identifier": [ {
        "value": "8067b9b2-e604-4414-b56f-8e3cc4de4b1b"
      } ],
      "version": "2011-02-17T17:31:14.313Z",
      "status": "active",
      "experimental": false,
      "date": "2011-02-17T17:31:14+00:00",
      "publisher": "User ID: '3137' User name: 'redacted' User skill set: 'T1'",
      "lastReviewDate": "2011-02-17",
      "jurisdiction": [ {
        "text": "England"
      } ],
      "contact": [ {
        "telecom": [ {
          "system": "phone",
          "value": "redacted"
        } ]
      } ],
      "subjectType": [ "Patient" ],
      "item": [ {
        "linkId": "8067b9b2-e604-4414-b56f-8e3cc4de4b1b",
        "prefix": "0",
        "text": "Speak to Clinician from our Service immediately",
        "type": "choice",
        "required": true,
        "repeats": false,
        "option": [ {
          "valueString": ", Selected: false"
        } ]
      } ]
    }
  }, {
    "fullUrl": "urn:uuid:b1144475-426f-4f4d-929c-1c166d68af02",
    "resource": {
      "resourceType": "QuestionnaireResponse",
      "id": "b1144475-426f-4f4d-929c-1c166d68af02",
      "identifier": {
        "value": "8067b9b2-e604-4414-b56f-8e3cc4de4b1b"
      },
      "questionnaire": {
        "reference": "urn:uuid:00b15b4e-50b0-44f4-b1fe-799807ad0f06"
      },
      "status": "completed",
      "subject": {
        "reference": "urn:uuid:116a1665-f620-45b3-a193-3e50794f018c"
      },
      "context": {
        "reference": "urn:uuid:08164783-78ee-438e-8796-057cd39b8c38"
      },
      "authored": "2011-02-17T17:31:14+00:00",
      "item": [ {
        "linkId": "N/A"
      } ]
    }
  }, {
    "fullUrl": "urn:uuid:00b15b4e-50b0-44f4-b1fe-799807ad0f06",
    "resource": {
      "resourceType": "Questionnaire",
      "id": "00b15b4e-50b0-44f4-b1fe-799807ad0f06",
      "identifier": [ {
        "value": "8067b9b2-e604-4414-b56f-8e3cc4de4b1b"
      } ],
      "version": "2011-02-17T17:31:14.313Z",
      "status": "active",
      "experimental": false,
      "date": "2011-02-17T17:31:14+00:00",
      "publisher": "User ID: '3137' User name: 'redacted' User skill set: 'T1'",
      "lastReviewDate": "2011-02-17",
      "jurisdiction": [ {
        "text": "England"
      } ],
      "contact": [ {
        "telecom": [ {
          "system": "phone",
          "value": "redacted"
        } ]
      } ],
      "subjectType": [ "Patient" ],
      "item": [ {
        "linkId": "8067b9b2-e604-4414-b56f-8e3cc4de4b1b",
        "prefix": "0",
        "type": "choice",
        "required": true,
        "repeats": false,
        "option": [ {
          "valueString": ", Selected: false"
        } ]
      } ]
    }
  }, {
    "fullUrl": "urn:uuid:d4d44e0f-b6e6-4e9f-976b-5ef1e475958e",
    "resource": {
      "resourceType": "QuestionnaireResponse",
      "id": "d4d44e0f-b6e6-4e9f-976b-5ef1e475958e",
      "identifier": {
        "value": "8067b9b2-e604-4414-b56f-8e3cc4de4b1b"
      },
      "questionnaire": {
        "reference": "urn:uuid:5ba4d2e2-efd2-4795-8ab4-3cd1c1e4dbb7"
      },
      "status": "completed",
      "subject": {
        "reference": "urn:uuid:116a1665-f620-45b3-a193-3e50794f018c"
      },
      "context": {
        "reference": "urn:uuid:08164783-78ee-438e-8796-057cd39b8c38"
      },
      "authored": "2011-02-17T17:31:14+00:00",
      "item": [ {
        "linkId": "N/A"
      } ]
    }
  }, {
    "fullUrl": "urn:uuid:5ba4d2e2-efd2-4795-8ab4-3cd1c1e4dbb7",
    "resource": {
      "resourceType": "Questionnaire",
      "id": "5ba4d2e2-efd2-4795-8ab4-3cd1c1e4dbb7",
      "identifier": [ {
        "value": "8067b9b2-e604-4414-b56f-8e3cc4de4b1b"
      } ],
      "version": "2011-02-17T17:31:14.313Z",
      "status": "active",
      "experimental": false,
      "date": "2011-02-17T17:31:14+00:00",
      "publisher": "User ID: '3137' User name: 'redacted' User skill set: 'T1'",
      "lastReviewDate": "2011-02-17",
      "jurisdiction": [ {
        "text": "England"
      } ],
      "contact": [ {
        "telecom": [ {
          "system": "phone",
          "value": "redacted"
        } ]
      } ],
      "subjectType": [ "Patient" ],
      "item": [ {
        "linkId": "8067b9b2-e604-4414-b56f-8e3cc4de4b1b",
        "prefix": "0",
        "type": "choice",
        "required": true,
        "repeats": false,
        "option": [ {
          "valueString": ", Selected: false"
        } ]
      } ]
    }
  }, {
    "fullUrl": "urn:uuid:3d5b1581-4331-44c0-b58a-f5ffae7d343a",
    "resource": {
      "resourceType": "QuestionnaireResponse",
      "id": "3d5b1581-4331-44c0-b58a-f5ffae7d343a",
      "identifier": {
        "value": "8067b9b2-e604-4414-b56f-8e3cc4de4b1b"
      },
      "questionnaire": {
        "reference": "urn:uuid:a4a7b1fe-9cfe-4083-b2e3-97b01cdf6a29"
      },
      "status": "completed",
      "subject": {
        "reference": "urn:uuid:116a1665-f620-45b3-a193-3e50794f018c"
      },
      "context": {
        "reference": "urn:uuid:08164783-78ee-438e-8796-057cd39b8c38"
      },
      "authored": "2011-02-17T17:31:14+00:00",
      "item": [ {
        "linkId": "Tx220109",
        "text": "What is the reason for the call?",
        "answer": [ {
          "valueString": "an injury or other health problem"
        } ]
      } ]
    }
  }, {
    "fullUrl": "urn:uuid:a4a7b1fe-9cfe-4083-b2e3-97b01cdf6a29",
    "resource": {
      "resourceType": "Questionnaire",
      "id": "a4a7b1fe-9cfe-4083-b2e3-97b01cdf6a29",
      "identifier": [ {
        "value": "8067b9b2-e604-4414-b56f-8e3cc4de4b1b"
      } ],
      "version": "2011-02-17T17:31:14.313Z",
      "status": "active",
      "experimental": false,
      "date": "2011-02-17T17:31:14+00:00",
      "publisher": "User ID: '3137' User name: 'redacted' User skill set: 'T1'",
      "lastReviewDate": "2011-02-17",
      "jurisdiction": [ {
        "text": "England"
      } ],
      "contact": [ {
        "telecom": [ {
          "system": "phone",
          "value": "redacted"
        } ]
      } ],
      "subjectType": [ "Patient" ],
      "item": [ {
        "linkId": "8067b9b2-e604-4414-b56f-8e3cc4de4b1b",
        "prefix": "5",
        "text": "What is the reason for the call?",
        "type": "choice",
        "required": true,
        "repeats": false,
        "option": [ {
          "valueString": "an injury or other health problem, Selected: true"
        }, {
          "valueString": "a need to access another healthcare provider, Selected: false"
        }, {
          "valueString": "a healthcare professional requesting contact with another clinician, Selected: false"
        }, {
          "valueString": "a report of results or tests, Selected: false"
        }, {
          "valueString": "more, Selected: false"
        } ]
      } ]
    }
  }, {
    "fullUrl": "urn:uuid:d6789ed5-0421-4a5c-be98-e3dbc22e3030",
    "resource": {
      "resourceType": "QuestionnaireResponse",
      "id": "d6789ed5-0421-4a5c-be98-e3dbc22e3030",
      "identifier": {
        "value": "8067b9b2-e604-4414-b56f-8e3cc4de4b1b"
      },
      "questionnaire": {
        "reference": "urn:uuid:2f54f77b-726c-425a-91f6-380165aab9a3"
      },
      "status": "completed",
      "subject": {
        "reference": "urn:uuid:116a1665-f620-45b3-a193-3e50794f018c"
      },
      "context": {
        "reference": "urn:uuid:08164783-78ee-438e-8796-057cd39b8c38"
      },
      "authored": "2011-02-17T17:31:14+00:00",
      "item": [ {
        "linkId": "Tx140118",
        "text": "Has the baby just been born?",
        "answer": [ {
          "valueString": "no"
        } ]
      } ]
    }
  }, {
    "fullUrl": "urn:uuid:2f54f77b-726c-425a-91f6-380165aab9a3",
    "resource": {
      "resourceType": "Questionnaire",
      "id": "2f54f77b-726c-425a-91f6-380165aab9a3",
      "identifier": [ {
        "value": "8067b9b2-e604-4414-b56f-8e3cc4de4b1b"
      } ],
      "version": "2011-02-17T17:31:14.313Z",
      "status": "active",
      "experimental": false,
      "date": "2011-02-17T17:31:14+00:00",
      "publisher": "User ID: '3137' User name: 'redacted' User skill set: 'T1'",
      "lastReviewDate": "2011-02-17",
      "jurisdiction": [ {
        "text": "England"
      } ],
      "contact": [ {
        "telecom": [ {
          "system": "phone",
          "value": "redacted"
        } ]
      } ],
      "subjectType": [ "Patient" ],
      "item": [ {
        "linkId": "8067b9b2-e604-4414-b56f-8e3cc4de4b1b",
        "prefix": "35",
        "text": "Has the baby just been born?",
        "type": "choice",
        "required": true,
        "repeats": false,
        "option": [ {
          "valueString": "yes, Selected: false"
        }, {
          "valueString": "not sure, Selected: false"
        }, {
          "valueString": "no, Selected: true"
        } ]
      } ]
    }
  }, {
    "fullUrl": "urn:uuid:65fc52df-cdaf-489f-bba9-adb944084372",
    "resource": {
      "resourceType": "QuestionnaireResponse",
      "id": "65fc52df-cdaf-489f-bba9-adb944084372",
      "identifier": {
        "value": "8067b9b2-e604-4414-b56f-8e3cc4de4b1b"
      },
      "questionnaire": {
        "reference": "urn:uuid:aa558280-5ee1-4ae8-b92e-e7e522002f1d"
      },
      "status": "completed",
      "subject": {
        "reference": "urn:uuid:116a1665-f620-45b3-a193-3e50794f018c"
      },
      "context": {
        "reference": "urn:uuid:08164783-78ee-438e-8796-057cd39b8c38"
      },
      "authored": "2011-02-17T17:31:14+00:00",
      "item": [ {
        "linkId": "Tx220110",
        "text": "Is he breathing and conscious?",
        "answer": [ {
          "valueString": "breathing AND conscious"
        } ]
      } ]
    }
  }, {
    "fullUrl": "urn:uuid:aa558280-5ee1-4ae8-b92e-e7e522002f1d",
    "resource": {
      "resourceType": "Questionnaire",
      "id": "aa558280-5ee1-4ae8-b92e-e7e522002f1d",
      "identifier": [ {
        "value": "8067b9b2-e604-4414-b56f-8e3cc4de4b1b"
      } ],
      "version": "2011-02-17T17:31:14.313Z",
      "status": "active",
      "experimental": false,
      "date": "2011-02-17T17:31:14+00:00",
      "publisher": "User ID: '3137' User name: 'redacted' User skill set: 'T1'",
      "lastReviewDate": "2011-02-17",
      "jurisdiction": [ {
        "text": "England"
      } ],
      "contact": [ {
        "telecom": [ {
          "system": "phone",
          "value": "redacted"
        } ]
      } ],
      "subjectType": [ "Patient" ],
      "item": [ {
        "linkId": "8067b9b2-e604-4414-b56f-8e3cc4de4b1b",
        "prefix": "40",
        "text": "Is he breathing and conscious?",
        "type": "choice",
        "required": true,
        "repeats": false,
        "option": [ {
          "valueString": "breathing AND conscious, Selected: true"
        }, {
          "valueString": "breathing but NOT conscious (includes current fitting), Selected: false"
        }, {
          "valueString": "NOT breathing, Selected: false"
        }, {
          "valueString": "choking now, Selected: false"
        } ]
      } ]
    }
  }, {
    "fullUrl": "urn:uuid:8fd8d097-6a3a-43fa-889b-3ba948580a88",
    "resource": {
      "resourceType": "QuestionnaireResponse",
      "id": "8fd8d097-6a3a-43fa-889b-3ba948580a88",
      "identifier": {
        "value": "8067b9b2-e604-4414-b56f-8e3cc4de4b1b"
      },
      "questionnaire": {
        "reference": "urn:uuid:18326858-f02d-42f7-84ab-a6ca67794876"
      },
      "status": "completed",
      "subject": {
        "reference": "urn:uuid:116a1665-f620-45b3-a193-3e50794f018c"
      },
      "context": {
        "reference": "urn:uuid:08164783-78ee-438e-8796-057cd39b8c38"
      },
      "authored": "2011-02-17T17:31:14+00:00",
      "item": [ {
        "linkId": "Tx220285",
        "text": "Has he been bleeding very heavily IN THE LAST HOUR?",
        "answer": [ {
          "valueString": "an egg cupful or more from a wound"
        } ]
      } ]
    }
  }, {
    "fullUrl": "urn:uuid:18326858-f02d-42f7-84ab-a6ca67794876",
    "resource": {
      "resourceType": "Questionnaire",
      "id": "18326858-f02d-42f7-84ab-a6ca67794876",
      "identifier": [ {
        "value": "8067b9b2-e604-4414-b56f-8e3cc4de4b1b"
      } ],
      "version": "2011-02-17T17:31:14.313Z",
      "status": "active",
      "experimental": false,
      "date": "2011-02-17T17:31:14+00:00",
      "publisher": "User ID: '3137' User name: 'redacted' User skill set: 'T1'",
      "lastReviewDate": "2011-02-17",
      "jurisdiction": [ {
        "text": "England"
      } ],
      "contact": [ {
        "telecom": [ {
          "system": "phone",
          "value": "redacted"
        } ]
      } ],
      "subjectType": [ "Patient" ],
      "item": [ {
        "linkId": "8067b9b2-e604-4414-b56f-8e3cc4de4b1b",
        "prefix": "60",
        "text": "Has he been bleeding very heavily IN THE LAST HOUR?",
        "type": "choice",
        "required": true,
        "repeats": false,
        "option": [ {
          "valueString": "blood spurting from a wound, Selected: false"
        }, {
          "valueString": "an egg cupful or more of red blood from a body opening, Selected: false"
        }, {
          "valueString": "an egg cupful or more from a wound, Selected: true"
        }, {
          "valueString": "not sure, Selected: false"
        }, {
          "valueString": "no, Selected: false"
        } ]
      } ]
    }
  }, {
    "fullUrl": "urn:uuid:8ef9b4ed-fdae-4a6f-a9e1-53b30ac4221c",
    "resource": {
      "resourceType": "QuestionnaireResponse",
      "id": "8ef9b4ed-fdae-4a6f-a9e1-53b30ac4221c",
      "identifier": {
        "value": "8067b9b2-e604-4414-b56f-8e3cc4de4b1b"
      },
      "questionnaire": {
        "reference": "urn:uuid:12bc8bce-4a69-4ba5-805a-8189285de85f"
      },
      "status": "completed",
      "subject": {
        "reference": "urn:uuid:116a1665-f620-45b3-a193-3e50794f018c"
      },
      "context": {
        "reference": "urn:uuid:08164783-78ee-438e-8796-057cd39b8c38"
      },
      "authored": "2011-02-17T17:31:14+00:00",
      "item": [ {
        "linkId": "Tx140109",
        "text": "Is he fighting desperately for every breath?",
        "answer": [ {
          "valueString": "no"
        } ]
      } ]
    }
  }, {
    "fullUrl": "urn:uuid:12bc8bce-4a69-4ba5-805a-8189285de85f",
    "resource": {
      "resourceType": "Questionnaire",
      "id": "12bc8bce-4a69-4ba5-805a-8189285de85f",
      "identifier": [ {
        "value": "8067b9b2-e604-4414-b56f-8e3cc4de4b1b"
      } ],
      "version": "2011-02-17T17:31:14.313Z",
      "status": "active",
      "experimental": false,
      "date": "2011-02-17T17:31:14+00:00",
      "publisher": "User ID: '3137' User name: 'redacted' User skill set: 'T1'",
      "lastReviewDate": "2011-02-17",
      "jurisdiction": [ {
        "text": "England"
      } ],
      "contact": [ {
        "telecom": [ {
          "system": "phone",
          "value": "redacted"
        } ]
      } ],
      "subjectType": [ "Patient" ],
      "item": [ {
        "linkId": "8067b9b2-e604-4414-b56f-8e3cc4de4b1b",
        "prefix": "20000",
        "text": "Is he fighting desperately for every breath?",
        "type": "choice",
        "required": true,
        "repeats": false,
        "option": [ {
          "valueString": "yes, Selected: false"
        }, {
          "valueString": "not sure, Selected: false"
        }, {
          "valueString": "no, Selected: true"
        } ]
      } ]
    }
  }, {
    "fullUrl": "urn:uuid:09a148dd-e018-4b18-b47d-43659ea3740d",
    "resource": {
      "resourceType": "QuestionnaireResponse",
      "id": "09a148dd-e018-4b18-b47d-43659ea3740d",
      "identifier": {
        "value": "8067b9b2-e604-4414-b56f-8e3cc4de4b1b"
      },
      "questionnaire": {
        "reference": "urn:uuid:136bf3de-b8d3-4941-b1f3-3f2affea96f5"
      },
      "status": "completed",
      "subject": {
        "reference": "urn:uuid:116a1665-f620-45b3-a193-3e50794f018c"
      },
      "context": {
        "reference": "urn:uuid:08164783-78ee-438e-8796-057cd39b8c38"
      },
      "authored": "2011-02-17T17:31:14+00:00",
      "item": [ {
        "linkId": "Tx220563",
        "text": "Is he limp, floppy and/or unresponsive?",
        "answer": [ {
          "valueString": "no"
        } ]
      } ]
    }
  }, {
    "fullUrl": "urn:uuid:136bf3de-b8d3-4941-b1f3-3f2affea96f5",
    "resource": {
      "resourceType": "Questionnaire",
      "id": "136bf3de-b8d3-4941-b1f3-3f2affea96f5",
      "identifier": [ {
        "value": "8067b9b2-e604-4414-b56f-8e3cc4de4b1b"
      } ],
      "version": "2011-02-17T17:31:14.313Z",
      "status": "active",
      "experimental": false,
      "date": "2011-02-17T17:31:14+00:00",
      "publisher": "User ID: '3137' User name: 'redacted' User skill set: 'T1'",
      "lastReviewDate": "2011-02-17",
      "jurisdiction": [ {
        "text": "England"
      } ],
      "contact": [ {
        "telecom": [ {
          "system": "phone",
          "value": "redacted"
        } ]
      } ],
      "subjectType": [ "Patient" ],
      "item": [ {
        "linkId": "8067b9b2-e604-4414-b56f-8e3cc4de4b1b",
        "prefix": "20400",
        "text": "Is he limp, floppy and/or unresponsive?",
        "type": "choice",
        "required": true,
        "repeats": false,
        "option": [ {
          "valueString": "yes, Selected: false"
        }, {
          "valueString": "not sure, Selected: false"
        }, {
          "valueString": "no, Selected: true"
        } ]
      } ]
    }
  }, {
    "fullUrl": "urn:uuid:7aa3951c-05d2-4f90-a16f-2ecb3f718811",
    "resource": {
      "resourceType": "QuestionnaireResponse",
      "id": "7aa3951c-05d2-4f90-a16f-2ecb3f718811",
      "identifier": {
        "value": "8067b9b2-e604-4414-b56f-8e3cc4de4b1b"
      },
      "questionnaire": {
        "reference": "urn:uuid:d95c9175-c818-45ed-b913-b04a2767fb04"
      },
      "status": "completed",
      "subject": {
        "reference": "urn:uuid:116a1665-f620-45b3-a193-3e50794f018c"
      },
      "context": {
        "reference": "urn:uuid:08164783-78ee-438e-8796-057cd39b8c38"
      },
      "authored": "2011-02-17T17:31:14+00:00",
      "item": [ {
        "linkId": "Tx220561",
        "text": "Is he warm to touch?",
        "answer": [ {
          "valueString": "yes"
        } ]
      } ]
    }
  }, {
    "fullUrl": "urn:uuid:d95c9175-c818-45ed-b913-b04a2767fb04",
    "resource": {
      "resourceType": "Questionnaire",
      "id": "d95c9175-c818-45ed-b913-b04a2767fb04",
      "identifier": [ {
        "value": "8067b9b2-e604-4414-b56f-8e3cc4de4b1b"
      } ],
      "version": "2011-02-17T17:31:14.313Z",
      "status": "active",
      "experimental": false,
      "date": "2011-02-17T17:31:14+00:00",
      "publisher": "User ID: '3137' User name: 'redacted' User skill set: 'T1'",
      "lastReviewDate": "2011-02-17",
      "jurisdiction": [ {
        "text": "England"
      } ],
      "contact": [ {
        "telecom": [ {
          "system": "phone",
          "value": "redacted"
        } ]
      } ],
      "subjectType": [ "Patient" ],
      "item": [ {
        "linkId": "8067b9b2-e604-4414-b56f-8e3cc4de4b1b",
        "prefix": "20450",
        "text": "Is he warm to touch?",
        "type": "choice",
        "required": true,
        "repeats": false,
        "option": [ {
          "valueString": "yes, Selected: true"
        }, {
          "valueString": "not sure, Selected: false"
        }, {
          "valueString": "no, Selected: false"
        }, {
          "valueString": "not safe to touch, Selected: false"
        } ]
      } ]
    }
  }, {
    "fullUrl": "urn:uuid:d378f41d-e4a7-405a-a212-2c2977c8d215",
    "resource": {
      "resourceType": "QuestionnaireResponse",
      "id": "d378f41d-e4a7-405a-a212-2c2977c8d215",
      "identifier": {
        "value": "8067b9b2-e604-4414-b56f-8e3cc4de4b1b"
      },
      "questionnaire": {
        "reference": "urn:uuid:50964b60-ca83-4a50-8dd8-ba151b8b4a52"
      },
      "status": "completed",
      "subject": {
        "reference": "urn:uuid:116a1665-f620-45b3-a193-3e50794f018c"
      },
      "context": {
        "reference": "urn:uuid:08164783-78ee-438e-8796-057cd39b8c38"
      },
      "authored": "2011-02-17T17:31:14+00:00",
      "item": [ {
        "linkId": "Tx120019",
        "text": "Was the injury caused by any of the following?",
        "answer": [ {
          "valueString": "no"
        } ]
      } ]
    }
  }, {
    "fullUrl": "urn:uuid:50964b60-ca83-4a50-8dd8-ba151b8b4a52",
    "resource": {
      "resourceType": "Questionnaire",
      "id": "50964b60-ca83-4a50-8dd8-ba151b8b4a52",
      "identifier": [ {
        "value": "8067b9b2-e604-4414-b56f-8e3cc4de4b1b"
      } ],
      "version": "2011-02-17T17:31:14.313Z",
      "status": "active",
      "experimental": false,
      "date": "2011-02-17T17:31:14+00:00",
      "publisher": "User ID: '3137' User name: 'redacted' User skill set: 'T1'",
      "lastReviewDate": "2011-02-17",
      "jurisdiction": [ {
        "text": "England"
      } ],
      "contact": [ {
        "telecom": [ {
          "system": "phone",
          "value": "redacted"
        } ]
      } ],
      "subjectType": [ "Patient" ],
      "item": [ {
        "linkId": "8067b9b2-e604-4414-b56f-8e3cc4de4b1b",
        "prefix": "20800",
        "text": "Was the injury caused by any of the following?",
        "type": "choice",
        "required": true,
        "repeats": false,
        "option": [ {
          "valueString": "a gunshot, Selected: false"
        }, {
          "valueString": "a stabbing, Selected: false"
        }, {
          "valueString": "being ejected from a vehicle, Selected: false"
        }, {
          "valueString": "not sure, Selected: false"
        }, {
          "valueString": "no, Selected: true"
        } ]
      } ]
    }
  }, {
    "fullUrl": "urn:uuid:e5e0ce74-3ae7-4331-8642-1a00f35d1e16",
    "resource": {
      "resourceType": "QuestionnaireResponse",
      "id": "e5e0ce74-3ae7-4331-8642-1a00f35d1e16",
      "identifier": {
        "value": "8067b9b2-e604-4414-b56f-8e3cc4de4b1b"
      },
      "questionnaire": {
        "reference": "urn:uuid:64e5955f-5ad1-405f-b837-78c2d201e0be"
      },
      "status": "completed",
      "subject": {
        "reference": "urn:uuid:116a1665-f620-45b3-a193-3e50794f018c"
      },
      "context": {
        "reference": "urn:uuid:08164783-78ee-438e-8796-057cd39b8c38"
      },
      "authored": "2011-02-17T17:31:14+00:00",
      "item": [ {
        "linkId": "Tx220286",
        "text": "DID THE INJURY INVOLVE ANY OF THE FOLLOWING?",
        "answer": [ {
          "valueString": "no"
        } ]
      } ]
    }
  }, {
    "fullUrl": "urn:uuid:64e5955f-5ad1-405f-b837-78c2d201e0be",
    "resource": {
      "resourceType": "Questionnaire",
      "id": "64e5955f-5ad1-405f-b837-78c2d201e0be",
      "identifier": [ {
        "value": "8067b9b2-e604-4414-b56f-8e3cc4de4b1b"
      } ],
      "version": "2011-02-17T17:31:14.313Z",
      "status": "active",
      "experimental": false,
      "date": "2011-02-17T17:31:14+00:00",
      "publisher": "User ID: '3137' User name: 'redacted' User skill set: 'T1'",
      "lastReviewDate": "2011-02-17",
      "jurisdiction": [ {
        "text": "England"
      } ],
      "contact": [ {
        "telecom": [ {
          "system": "phone",
          "value": "redacted"
        } ]
      } ],
      "subjectType": [ "Patient" ],
      "item": [ {
        "linkId": "8067b9b2-e604-4414-b56f-8e3cc4de4b1b",
        "prefix": "23100",
        "text": "DID THE INJURY INVOLVE ANY OF THE FOLLOWING?",
        "type": "choice",
        "required": true,
        "repeats": false,
        "option": [ {
          "valueString": "a fall of 5 metres or more (specify), Selected: false"
        }, {
          "valueString": "multiple major injuries (specify), Selected: false"
        }, {
          "valueString": "major wound or amputation - not just involving a single finger or toe (specify), Selected: false"
        }, {
          "valueString": "being knocked over by a blast (specify), Selected: false"
        }, {
          "valueString": "not sure, Selected: false"
        }, {
          "valueString": "no, Selected: true"
        } ]
      } ]
    }
  }, {
    "fullUrl": "urn:uuid:989bb83a-735e-453e-986d-d6fba7ec4017",
    "resource": {
      "resourceType": "QuestionnaireResponse",
      "id": "989bb83a-735e-453e-986d-d6fba7ec4017",
      "identifier": {
        "value": "8067b9b2-e604-4414-b56f-8e3cc4de4b1b"
      },
      "questionnaire": {
        "reference": "urn:uuid:d56c5142-34ff-4410-ad8d-f1e82eccc52f"
      },
      "status": "completed",
      "subject": {
        "reference": "urn:uuid:116a1665-f620-45b3-a193-3e50794f018c"
      },
      "context": {
        "reference": "urn:uuid:08164783-78ee-438e-8796-057cd39b8c38"
      },
      "authored": "2011-02-17T17:31:14+00:00",
      "item": [ {
        "linkId": "Tx140159",
        "text": "What is the reason for ending the assessment?",
        "answer": [ {
          "valueString": "transfer to a clinician"
        } ]
      } ]
    }
  }, {
    "fullUrl": "urn:uuid:d56c5142-34ff-4410-ad8d-f1e82eccc52f",
    "resource": {
      "resourceType": "Questionnaire",
      "id": "d56c5142-34ff-4410-ad8d-f1e82eccc52f",
      "identifier": [ {
        "value": "8067b9b2-e604-4414-b56f-8e3cc4de4b1b"
      } ],
      "version": "2011-02-17T17:31:14.313Z",
      "status": "active",
      "experimental": false,
      "date": "2011-02-17T17:31:14+00:00",
      "publisher": "User ID: '3137' User name: 'redacted' User skill set: 'T1'",
      "lastReviewDate": "2011-02-17",
      "jurisdiction": [ {
        "text": "England"
      } ],
      "contact": [ {
        "telecom": [ {
          "system": "phone",
          "value": "redacted"
        } ]
      } ],
      "subjectType": [ "Patient" ],
      "item": [ {
        "linkId": "8067b9b2-e604-4414-b56f-8e3cc4de4b1b",
        "prefix": "0",
        "text": "What is the reason for ending the assessment?",
        "type": "choice",
        "required": true,
        "repeats": false,
        "option": [ {
          "valueString": "the phone line went dead, Selected: false"
        }, {
          "valueString": "the caller terminated the call (specify), Selected: false"
        }, {
          "valueString": "I terminated the call (specify), Selected: false"
        }, {
          "valueString": "triage not possible, Selected: false"
        }, {
          "valueString": "transfer to a clinician, Selected: true"
        } ]
      } ]
    }
  }, {
    "fullUrl": "urn:uuid:22fbe64e-8554-4acb-8fbf-5347ddc9b535",
    "resource": {
      "resourceType": "QuestionnaireResponse",
      "id": "22fbe64e-8554-4acb-8fbf-5347ddc9b535",
      "identifier": {
        "value": "8067b9b2-e604-4414-b56f-8e3cc4de4b1b"
      },
      "questionnaire": {
        "reference": "urn:uuid:7cac19f7-1490-40d1-8f78-eb22dd3755dd"
      },
      "status": "completed",
      "subject": {
        "reference": "urn:uuid:116a1665-f620-45b3-a193-3e50794f018c"
      },
      "context": {
        "reference": "urn:uuid:08164783-78ee-438e-8796-057cd39b8c38"
      },
      "authored": "2011-02-17T17:31:14+00:00",
      "item": [ {
        "linkId": "Tx220286",
        "text": "DID THE INJURY INVOLVE ANY OF THE FOLLOWING?",
        "answer": [ {
          "valueString": "no"
        } ]
      } ]
    }
  }, {
    "fullUrl": "urn:uuid:7cac19f7-1490-40d1-8f78-eb22dd3755dd",
    "resource": {
      "resourceType": "Questionnaire",
      "id": "7cac19f7-1490-40d1-8f78-eb22dd3755dd",
      "identifier": [ {
        "value": "8067b9b2-e604-4414-b56f-8e3cc4de4b1b"
      } ],
      "version": "2011-02-17T17:31:14.313Z",
      "status": "active",
      "experimental": false,
      "date": "2011-02-17T17:31:14+00:00",
      "publisher": "User ID: '3137' User name: 'redacted' User skill set: 'T1'",
      "lastReviewDate": "2011-02-17",
      "jurisdiction": [ {
        "text": "England"
      } ],
      "contact": [ {
        "telecom": [ {
          "system": "phone",
          "value": "redacted"
        } ]
      } ],
      "subjectType": [ "Patient" ],
      "item": [ {
        "linkId": "8067b9b2-e604-4414-b56f-8e3cc4de4b1b",
        "prefix": "23100",
        "text": "DID THE INJURY INVOLVE ANY OF THE FOLLOWING?",
        "type": "choice",
        "required": true,
        "repeats": false,
        "option": [ {
          "valueString": "a fall of 5 metres or more (specify), Selected: false"
        }, {
          "valueString": "multiple major injuries (specify), Selected: false"
        }, {
          "valueString": "major wound or amputation - not just involving a single finger or toe (specify), Selected: false"
        }, {
          "valueString": "being knocked over by a blast (specify), Selected: false"
        }, {
          "valueString": "not sure, Selected: false"
        }, {
          "valueString": "no, Selected: true"
        } ]
      } ]
    }
  }, {
    "fullUrl": "urn:uuid:369cce9a-85d6-4a8d-a87c-a829351b3543",
    "resource": {
      "resourceType": "QuestionnaireResponse",
      "id": "369cce9a-85d6-4a8d-a87c-a829351b3543",
      "identifier": {
        "value": "8067b9b2-e604-4414-b56f-8e3cc4de4b1b"
      },
      "questionnaire": {
        "reference": "urn:uuid:a274312a-91cf-48b8-847a-4bf493966a44"
      },
      "status": "completed",
      "subject": {
        "reference": "urn:uuid:116a1665-f620-45b3-a193-3e50794f018c"
      },
      "context": {
        "reference": "urn:uuid:08164783-78ee-438e-8796-057cd39b8c38"
      },
      "authored": "2011-02-17T17:31:14+00:00",
      "item": [ {
        "linkId": "N/A",
        "text": "Dispatch 19 minute ambulance"
      } ]
    }
  }, {
    "fullUrl": "urn:uuid:a274312a-91cf-48b8-847a-4bf493966a44",
    "resource": {
      "resourceType": "Questionnaire",
      "id": "a274312a-91cf-48b8-847a-4bf493966a44",
      "identifier": [ {
        "value": "8067b9b2-e604-4414-b56f-8e3cc4de4b1b"
      } ],
      "version": "2011-02-17T17:31:14.313Z",
      "status": "active",
      "experimental": false,
      "date": "2011-02-17T17:31:14+00:00",
      "publisher": "User ID: '3137' User name: 'redacted' User skill set: 'T1'",
      "lastReviewDate": "2011-02-17",
      "jurisdiction": [ {
        "text": "England"
      } ],
      "contact": [ {
        "telecom": [ {
          "system": "phone",
          "value": "redacted"
        } ]
      } ],
      "subjectType": [ "Patient" ],
      "item": [ {
        "linkId": "8067b9b2-e604-4414-b56f-8e3cc4de4b1b",
        "prefix": "24100",
        "text": "Dispatch 19 minute ambulance",
        "type": "choice",
        "required": true,
        "repeats": false,
        "option": [ {
          "valueString": ", Selected: false"
        } ]
      } ]
    }
  }, {
    "fullUrl": "urn:uuid:bb5bed05-0e89-4e7e-bb56-ba15a1865826",
    "resource": {
      "resourceType": "PractitionerRole",
      "id": "bb5bed05-0e89-4e7e-bb56-ba15a1865826",
      "practitioner": {
        "reference": "urn:uuid:c236d2b4-6d48-4d15-8b64-a09a779b4e4b"
      },
      "organization": {
        "reference": "urn:uuid:323c140f-9743-425a-ab09-6763e718e1c4"
      },
      "code": [ {
        "coding": [ {
          "system": "2.16.840.1.113883.2.1.3.2.4.17.196",
          "code": "T1",
          "display": "Nurse Triage Practitioner"
        } ]
      } ]
    }
  }, {
    "fullUrl": "urn:uuid:323c140f-9743-425a-ab09-6763e718e1c4",
    "resource": {
      "resourceType": "Organization",
      "id": "323c140f-9743-425a-ab09-6763e718e1c4",
      "identifier": [ {
        "value": "5L399"
      } ],
      "name": "Medway NHS Foundation Trust"
    }
  }, {
    "fullUrl": "urn:uuid:3c45f2df-9c31-4739-b1f1-3c8416aa8624",
    "resource": {
      "resourceType": "PractitionerRole",
      "id": "3c45f2df-9c31-4739-b1f1-3c8416aa8624",
      "practitioner": {
        "reference": "urn:uuid:0076025d-9103-4297-9410-133b2ea784be"
      },
      "organization": {
        "reference": "urn:uuid:f469e39f-2edb-48db-b4d8-b6843071ec0a"
      },
      "code": [ {
        "coding": [ {
          "system": "2.16.840.1.113883.2.1.3.2.4.17.196",
          "code": "R0010",
          "display": "Medical Director"
        } ]
      } ]
    }
  }, {
    "fullUrl": "urn:uuid:f469e39f-2edb-48db-b4d8-b6843071ec0a",
    "resource": {
      "resourceType": "Organization",
      "id": "f469e39f-2edb-48db-b4d8-b6843071ec0a",
      "identifier": [ {
        "value": "VDE232323"
      } ],
      "name": "Medway South Out of Hours Centre"
    }
  }, {
    "fullUrl": "urn:uuid:1bdcbc09-8291-4771-87cc-cb46b436592e",
    "resource": {
      "resourceType": "Device",
      "id": "1bdcbc09-8291-4771-87cc-cb46b436592e",
      "model": "111 Adaptor",
      "version": "1.0.1"
    }
  }, {
    "fullUrl": "urn:uuid:41d2eb7f-379e-4510-a705-1a95043e23be",
    "resource": {
      "resourceType": "List",
      "id": "41d2eb7f-379e-4510-a705-1a95043e23be",
      "status": "current",
      "mode": "working",
      "title": "111 Report List",
      "code": {
        "coding": [ {
          "system": "http://snomed.info/sct",
          "code": "225390008",
          "display": "Triage"
        } ]
      },
      "subject": {
        "reference": "urn:uuid:116a1665-f620-45b3-a193-3e50794f018c"
      },
      "encounter": {
        "reference": "urn:uuid:08164783-78ee-438e-8796-057cd39b8c38"
      },
      "date": "2022-04-07T07:52:12+00:00",
      "source": {
        "reference": "urn:uuid:1bdcbc09-8291-4771-87cc-cb46b436592e"
      },
      "orderedBy": {
        "coding": [ {
          "system": "http://hl7.org/fhir/list-order",
          "code": "event-date",
          "display": "Sorted by Event Date"
        } ]
      },
      "entry": [ {
        "item": {
          "reference": "urn:uuid:323c140f-9743-425a-ab09-6763e718e1c4"
        }
      }, {
        "item": {
          "reference": "urn:uuid:6078c2b7-3983-4451-a484-9e2dd14afeb5"
        }
      }, {
        "item": {
          "reference": "urn:uuid:f469e39f-2edb-48db-b4d8-b6843071ec0a"
        }
      }, {
        "item": {
          "reference": "urn:uuid:c236d2b4-6d48-4d15-8b64-a09a779b4e4b"
        }
      }, {
        "item": {
          "reference": "urn:uuid:abd5d441-06e3-4ce5-bf41-2d7947e28bb9"
        }
      }, {
        "item": {
          "reference": "urn:uuid:e678fa28-6251-46b3-bc7b-ed34f6ac3213"
        }
      }, {
        "item": {
          "reference": "urn:uuid:2aa01083-a75f-493e-9031-42aaea5596a4"
        }
      }, {
        "item": {
          "reference": "urn:uuid:b7a3b25a-8fb9-4a39-a20f-446ce7922e63"
        }
      }, {
        "item": {
          "reference": "urn:uuid:0076025d-9103-4297-9410-133b2ea784be"
        }
      }, {
        "item": {
          "reference": "urn:uuid:1bbad3fb-18e7-4bf9-aee9-751c32b76ae4"
        }
      }, {
        "item": {
          "reference": "urn:uuid:c7aeba00-7817-44cc-b7be-fd1ec083b4ab"
        }
      }, {
        "item": {
          "reference": "urn:uuid:eaffd556-7484-4c08-8f85-e02342e3c986"
        }
      }, {
        "item": {
          "reference": "urn:uuid:a3224530-452e-4371-bcd9-749ca5a15941"
        }
      }, {
        "item": {
          "reference": "urn:uuid:59a95e62-02b8-4675-a5c9-c2877fe25d3d"
        }
      }, {
        "item": {
          "reference": "urn:uuid:22fbe64e-8554-4acb-8fbf-5347ddc9b535"
        }
      }, {
        "item": {
          "reference": "urn:uuid:ff931664-3636-4da0-80f6-104489e50b4e"
        }
      }, {
        "item": {
          "reference": "urn:uuid:e5e0ce74-3ae7-4331-8642-1a00f35d1e16"
        }
      }, {
        "item": {
          "reference": "urn:uuid:82d5de13-571a-4d70-8dac-d7f0a147c3f9"
        }
      }, {
        "item": {
          "reference": "urn:uuid:744c3d08-8810-41a6-898f-b555031e9f35"
        }
      }, {
        "item": {
          "reference": "urn:uuid:652fa40a-5a28-463f-bdd9-1e39f35a0f4d"
        }
      }, {
        "item": {
          "reference": "urn:uuid:7cac19f7-1490-40d1-8f78-eb22dd3755dd"
        }
      }, {
        "item": {
          "reference": "urn:uuid:88e9716f-3b85-4184-b1f5-36bb9dca3732"
        }
      }, {
        "item": {
          "reference": "urn:uuid:fe155636-c840-47b7-b40d-c0c101b841c9"
        }
      }, {
        "item": {
          "reference": "urn:uuid:8f442297-69f3-41e5-ae14-6087f9eef632"
        }
      }, {
        "item": {
          "reference": "urn:uuid:3d5b1581-4331-44c0-b58a-f5ffae7d343a"
        }
      }, {
        "item": {
          "reference": "urn:uuid:8ef9b4ed-fdae-4a6f-a9e1-53b30ac4221c"
        }
      }, {
        "item": {
          "reference": "urn:uuid:8fd8d097-6a3a-43fa-889b-3ba948580a88"
        }
      }, {
        "item": {
          "reference": "urn:uuid:18326858-f02d-42f7-84ab-a6ca67794876"
        }
      }, {
        "item": {
          "reference": "urn:uuid:21cf1456-628c-4b80-9090-6c37b68b4f19"
        }
      }, {
        "item": {
          "reference": "urn:uuid:2f54f77b-726c-425a-91f6-380165aab9a3"
        }
      }, {
        "item": {
          "reference": "urn:uuid:cf12e329-7112-40f8-9004-790f069b0398"
        }
      }, {
        "item": {
          "reference": "urn:uuid:301988dd-847a-40c3-a189-373d9d0ff37a"
        }
      }, {
        "item": {
          "reference": "urn:uuid:7e57a6b2-a15c-4cba-9515-2d080101a428"
        }
      }, {
        "item": {
          "reference": "urn:uuid:989bb83a-735e-453e-986d-d6fba7ec4017"
        }
      }, {
        "item": {
          "reference": "urn:uuid:c5f4862f-66eb-4fd8-91ea-ad96a0a6baa9"
        }
      }, {
        "item": {
          "reference": "urn:uuid:0c156989-cc62-46fa-bf1e-92492583dd2a"
        }
      }, {
        "item": {
          "reference": "urn:uuid:aa558280-5ee1-4ae8-b92e-e7e522002f1d"
        }
      }, {
        "item": {
          "reference": "urn:uuid:10fa7a88-5c69-4616-8693-2fdb4f21b406"
        }
      }, {
        "item": {
          "reference": "urn:uuid:d95c9175-c818-45ed-b913-b04a2767fb04"
        }
      }, {
        "item": {
          "reference": "urn:uuid:c0d56a16-c45f-46c7-85c8-cdcc7568c7ad"
        }
      }, {
        "item": {
          "reference": "urn:uuid:d4d44e0f-b6e6-4e9f-976b-5ef1e475958e"
        }
      }, {
        "item": {
          "reference": "urn:uuid:369cce9a-85d6-4a8d-a87c-a829351b3543"
        }
      }, {
        "item": {
          "reference": "urn:uuid:1493ab7e-f630-4810-8789-da1dd7e6fb2c"
        }
      }, {
        "item": {
          "reference": "urn:uuid:65fc52df-cdaf-489f-bba9-adb944084372"
        }
      }, {
        "item": {
          "reference": "urn:uuid:b1144475-426f-4f4d-929c-1c166d68af02"
        }
      }, {
        "item": {
          "reference": "urn:uuid:d6789ed5-0421-4a5c-be98-e3dbc22e3030"
        }
      }, {
        "item": {
          "reference": "urn:uuid:7aa3951c-05d2-4f90-a16f-2ecb3f718811"
        }
      }, {
        "item": {
          "reference": "urn:uuid:5b61fb04-acaa-4eff-9a18-7d578b48d7fc"
        }
      }, {
        "item": {
          "reference": "urn:uuid:50964b60-ca83-4a50-8dd8-ba151b8b4a52"
        }
      }, {
        "item": {
          "reference": "urn:uuid:136bf3de-b8d3-4941-b1f3-3f2affea96f5"
        }
      }, {
        "item": {
          "reference": "urn:uuid:64e5955f-5ad1-405f-b837-78c2d201e0be"
        }
      }, {
        "item": {
          "reference": "urn:uuid:70061632-9cd2-41bd-9fad-6ecacfffeb47"
        }
      }, {
        "item": {
          "reference": "urn:uuid:2c48c083-ed99-4169-921a-ddec405f1bdc"
        }
      }, {
        "item": {
          "reference": "urn:uuid:f637055a-3ccb-4952-9015-3925bb9cd447"
        }
      }, {
        "item": {
          "reference": "urn:uuid:a274312a-91cf-48b8-847a-4bf493966a44"
        }
      }, {
        "item": {
          "reference": "urn:uuid:12bc8bce-4a69-4ba5-805a-8189285de85f"
        }
      }, {
        "item": {
          "reference": "urn:uuid:d378f41d-e4a7-405a-a212-2c2977c8d215"
        }
      }, {
        "item": {
          "reference": "urn:uuid:5ba4d2e2-efd2-4795-8ab4-3cd1c1e4dbb7"
        }
      }, {
        "item": {
          "reference": "urn:uuid:00b15b4e-50b0-44f4-b1fe-799807ad0f06"
        }
      }, {
        "item": {
          "reference": "urn:uuid:a4a7b1fe-9cfe-4083-b2e3-97b01cdf6a29"
        }
      }, {
        "item": {
          "reference": "urn:uuid:d56c5142-34ff-4410-ad8d-f1e82eccc52f"
        }
      }, {
        "item": {
          "reference": "urn:uuid:09a148dd-e018-4b18-b47d-43659ea3740d"
        }
      } ]
    }
  } ]
}