{
  "resourceType": "Bundle",
  "identifier": {
    "type": {
      "text": "ClinicalDocument VersionNumber"
    },
    "value": "2"
  },
  "type": "message",
  "entry": [ {
    "fullUrl": "urn:uuid:2B77B3F5-3016-4A6D-821F-152CE420E58D",
    "resource": {
      "resourceType": "MessageHeader",
      "id": "2B77B3F5-3016-4A6D-821F-152CE420E58D",
      "event": {
        "system": "https://fhir.nhs.uk/STU3/CodeSystem/EventType-1",
        "code": "referral-1",
        "display": "Referral"
      },
      "destination": [ {
        "endpoint": "urn:nhs-uk:addressing:ods:EM396"
      } ],
      "timestamp": "2017-01-01T20:00:00.000+00:00",
      "source": {
        "name": "NHS 111 Adaptor",
        "endpoint": "http://localhost:8080/report"
      },
      "reason": {
        "coding": [ {
          "system": "urn:nhs-itk:ns:201005:interaction",
          "code": "urn:nhs-itk:interaction:primaryEmergencyDepartmentRecipientNHS111CDADocument-v2-0"
        } ]
      }
    },
    "response": {
      "status": "success",
      "lastModified": "2022-05-09T13:25:16.054+00:00"
    }
  }, {
    "fullUrl": "urn:uuid:201c0671-b47e-4fae-9727-3990cde4808c",
    "resource": {
      "resourceType": "Encounter",
      "id": "201c0671-b47e-4fae-9727-3990cde4808c",
      "identifier": [ {
        "system": "2.16.840.1.113883.2.1.3.2.4.18.49",
        "value": "LOC665"
      }, {
        "system": "2.16.840.1.113883.2.1.3.2.4.18.34",
        "value": "CASEREF1234"
      }, {
        "system": "2.16.840.1.113883.2.1.3.2.4.18.35",
        "value": "CASEID123"
      } ],
      "status": "finished",
      "type": [ {
        "text": "111 Encounter Referral"
      } ],
      "subject": {
        "reference": "urn:uuid:61fd5259-dd89-4a11-b80e-f8ff52d9e024"
      },
      "participant": [ {
        "type": [ {
          "text": "CALLBCK"
        } ],
        "individual": {
          "reference": "urn:uuid:cbd572d8-3ca6-47a7-83cb-372f3e06cb67"
        }
      }, {
        "type": [ {
          "coding": [ {
            "system": "http://hl7.org/fhir/ValueSet/encounter-participant-type",
            "code": "PPRF",
            "display": "Author"
          } ]
        } ],
        "individual": {
          "reference": "urn:uuid:b85238a5-defd-42a8-9235-c41a5ed42498"
        }
      }, {
        "type": [ {
          "text": "Informant"
        } ],
        "individual": {
          "reference": "urn:uuid:c5fca922-54f8-46b5-9c6e-6c8f5a7d3fd8"
        }
      }, {
        "type": [ {
          "coding": [ {
            "system": "http://hl7.org/fhir/ValueSet/encounter-participant-type",
            "code": "ATND",
            "display": "Responsible Party"
          } ]
        } ],
        "individual": {
          "reference": "urn:uuid:df35adc2-c609-4222-8061-9cb1b5dd67d0"
        }
      } ],
      "appointment": {
        "reference": "urn:uuid:f0e8229f-ccd7-42ec-af39-007fa29397c8"
      },
      "period": {
        "start": "2017-01-01T19:45:00+00:00",
        "end": "2017-01-01T20:15:00+00:00"
      },
      "location": [ {
        "location": {
          "reference": "urn:uuid:cf40dcd2-45b7-4471-9774-79dc0fbd10cf"
        },
        "status": "active"
      }, {
        "location": {
          "reference": "urn:uuid:d530bdee-878b-4bbb-b342-b74f6212c9f4"
        },
        "status": "completed"
      } ],
      "serviceProvider": {
        "reference": "urn:uuid:0a6fb8d3-c480-4408-bd8d-9725e7d44371"
      }
    }
  }, {
    "fullUrl": "urn:uuid:0a6fb8d3-c480-4408-bd8d-9725e7d44371",
    "resource": {
      "resourceType": "Organization",
      "id": "0a6fb8d3-c480-4408-bd8d-9725e7d44371",
      "active": true,
      "type": [ {
        "text": "CST"
      } ],
      "name": "Medway NHS Foundation Trust"
    }
  }, {
    "fullUrl": "urn:uuid:cbd572d8-3ca6-47a7-83cb-372f3e06cb67",
    "resource": {
      "resourceType": "Practitioner",
      "id": "cbd572d8-3ca6-47a7-83cb-372f3e06cb67",
      "active": true,
      "name": [ {
        "text": "Call Centre Manager"
      } ],
      "telecom": [ {
        "system": "phone",
        "value": "tel:08001111111"
      } ]
    }
  }, {
    "fullUrl": "urn:uuid:b85238a5-defd-42a8-9235-c41a5ed42498",
    "resource": {
      "resourceType": "Practitioner",
      "id": "b85238a5-defd-42a8-9235-c41a5ed42498",
      "active": true,
      "name": [ {
        "use": "official",
        "family": "Jones",
        "given": [ "Mary" ]
      } ]
    }
  }, {
    "fullUrl": "urn:uuid:c5fca922-54f8-46b5-9c6e-6c8f5a7d3fd8",
    "resource": {
      "resourceType": "RelatedPerson",
      "id": "c5fca922-54f8-46b5-9c6e-6c8f5a7d3fd8",
      "active": true,
      "patient": {
        "reference": "urn:uuid:61fd5259-dd89-4a11-b80e-f8ff52d9e024"
      },
      "relationship": {
        "coding": [ {
          "system": "2.16.840.1.113883.2.1.3.2.4.16.45",
          "code": "01",
          "display": "Spouse"
        } ]
      },
      "name": [ {
        "use": "official",
        "family": "Bloggs",
        "given": [ "Helga" ]
      } ],
      "telecom": [ {
        "system": "phone",
        "value": "tel:07886554123",
        "use": "mobile"
      }, {
        "system": "phone",
        "value": "tel:01783678321"
      } ],
      "gender": "unknown",
      "address": [ {
        "use": "home",
        "line": [ "43 Summers Avenue", "Somerset Street" ],
        "city": "Medway",
        "postalCode": "ME5 7TY"
      } ]
    }
  }, {
    "fullUrl": "urn:uuid:df35adc2-c609-4222-8061-9cb1b5dd67d0",
    "resource": {
      "resourceType": "Practitioner",
      "id": "df35adc2-c609-4222-8061-9cb1b5dd67d0",
      "active": true,
      "name": [ {
        "use": "official",
        "family": "Cornwell",
        "given": [ "Dave" ]
      } ]
    }
  }, {
    "fullUrl": "urn:uuid:cf40dcd2-45b7-4471-9774-79dc0fbd10cf",
    "resource": {
      "resourceType": "Location",
      "id": "cf40dcd2-45b7-4471-9774-79dc0fbd10cf",
      "managingOrganization": {
        "reference": "urn:uuid:9292f07d-94a3-4de6-94a0-94228ed4339c"
      }
    }
  }, {
    "fullUrl": "urn:uuid:9292f07d-94a3-4de6-94a0-94228ed4339c",
    "resource": {
      "resourceType": "Organization",
      "id": "9292f07d-94a3-4de6-94a0-94228ed4339c",
      "identifier": [ {
        "value": "V396F"
      } ],
      "type": [ {
        "text": "GP Practice"
      } ],
      "name": "Medway Medical Practice",
      "telecom": [ {
        "system": "phone",
        "value": "tel:01634111222",
        "use": "work"
      } ],
      "address": [ {
        "use": "work",
        "line": [ "Springer Street" ],
        "city": "Medway",
        "postalCode": "ME5 5TY"
      } ]
    }
  }, {
    "fullUrl": "urn:uuid:d530bdee-878b-4bbb-b342-b74f6212c9f4",
    "resource": {
      "resourceType": "Location",
      "id": "d530bdee-878b-4bbb-b342-b74f6212c9f4",
      "name": "Incident Location",
      "address": {
        "type": "physical",
        "text": "Follow the high street and turn left by Boots",
        "line": [ "2, Brancaster Road" ],
        "city": "Medway",
        "postalCode": "ME5 4LS",
        "country": "GB"
      }
    }
  }, {
    "fullUrl": "urn:uuid:61fd5259-dd89-4a11-b80e-f8ff52d9e024",
    "resource": {
      "resourceType": "Patient",
      "id": "61fd5259-dd89-4a11-b80e-f8ff52d9e024",
      "language": "en",
      "identifier": [ {
        "extension": [ {
          "url": "https://fhir.hl7.org.uk/STU3/StructureDefinition/Extension-CareConnect-NHSNumberVerificationStatus-1",
          "valueCodeableConcept": {
            "coding": [ {
              "system": "https://fhir.hl7.org.uk/STU3/StructureDefinition/Extension-CareConnect-NHSNumberVerificationStatus-1",
              "code": "02"
            } ]
          }
        } ],
        "system": "https://fhir.nhs.uk/Id/nhs-number",
        "value": "993254128"
      } ],
      "active": true,
      "name": [ {
        "use": "official",
        "family": "Joe",
        "given": [ "Blogg" ],
        "prefix": [ "Mr" ]
      } ],
      "telecom": [ {
        "system": "phone",
        "value": "tel:01634775667",
        "use": "home"
      }, {
        "system": "phone",
        "value": "tel:01634451628",
        "use": "home"
      }, {
        "system": "email",
        "value": "mailto:Joe.Blogg@emailfree.co.uk",
        "use": "home"
      } ],
      "gender": "male",
      "birthDate": "1989-01-01",
      "address": [ {
        "use": "home",
        "line": [ "17, County Avenue", "Woodtown" ],
        "city": "Medway",
        "postalCode": "ME5 FS3"
      } ],
      "generalPractitioner": [ {
        "reference": "urn:uuid:93eaf5d3-224f-4877-9794-ba36b258e250"
      } ]
    }
  }, {
    "fullUrl": "urn:uuid:93eaf5d3-224f-4877-9794-ba36b258e250",
    "resource": {
      "resourceType": "Organization",
      "id": "93eaf5d3-224f-4877-9794-ba36b258e250",
      "identifier": [ {
        "value": "V396F"
      } ],
      "type": [ {
        "text": "GP Practice"
      } ],
      "name": "Medway Medical Practice",
      "telecom": [ {
        "system": "phone",
        "value": "tel:01634111222",
        "use": "work"
      } ],
      "address": [ {
        "use": "work",
        "line": [ "Springer Street" ],
        "city": "Medway",
        "postalCode": "ME5 5TY"
      } ]
    }
  }, {
    "fullUrl": "urn:uuid:5fbf93c8-e63f-41a4-8317-baf4bce1225c",
    "resource": {
      "resourceType": "HealthcareService",
      "id": "5fbf93c8-e63f-41a4-8317-baf4bce1225c",
      "active": true,
      "providedBy": {
        "reference": "urn:uuid:bccc6bf8-72b5-4ac3-b8d3-7582b81571d6"
      },
      "location": [ {
        "reference": "urn:uuid:70d0d4bf-049d-4a5a-843f-977592e6a5c7"
      } ],
      "name": "Thames Medical Practice",
      "telecom": [ {
        "system": "phone",
        "value": "tel:0123476895",
        "use": "work"
      } ]
    }
  }, {
    "fullUrl": "urn:uuid:70d0d4bf-049d-4a5a-843f-977592e6a5c7",
    "resource": {
      "resourceType": "Location",
      "id": "70d0d4bf-049d-4a5a-843f-977592e6a5c7",
      "telecom": [ {
        "system": "phone",
        "value": "tel:0123476895",
        "use": "work"
      } ],
      "address": {
        "use": "work",
        "line": [ "Thames Medical Practice", "Hill Street Branch Surgery", "Medway", "Essex" ],
        "postalCode": "ME4 5TT"
      },
      "managingOrganization": {
        "reference": "urn:uuid:bccc6bf8-72b5-4ac3-b8d3-7582b81571d6"
      }
    }
  }, {
    "fullUrl": "urn:uuid:bccc6bf8-72b5-4ac3-b8d3-7582b81571d6",
    "resource": {
      "resourceType": "Organization",
      "id": "bccc6bf8-72b5-4ac3-b8d3-7582b81571d6",
      "identifier": [ {
        "value": "PRA123"
      } ],
      "type": [ {
        "coding": [ {
          "code": "PRCP",
          "display": "Thames Medical Practice"
        } ]
      } ],
      "name": "Thames Medical Practice"
    }
  }, {
    "fullUrl": "urn:uuid:cb83c77e-5c30-4277-8cb9-9c430c6c162a",
    "resource": {
      "resourceType": "HealthcareService",
      "id": "cb83c77e-5c30-4277-8cb9-9c430c6c162a",
      "active": true,
      "providedBy": {
        "reference": "urn:uuid:abe7b949-23b5-44ef-a279-e90e39bcdb78"
      },
      "location": [ {
        "reference": "urn:uuid:014e0afa-8eb5-448a-9081-9469f758aca6"
      } ],
      "name": "Medway Kent Out of Hours Clinic"
    }
  }, {
    "fullUrl": "urn:uuid:014e0afa-8eb5-448a-9081-9469f758aca6",
    "resource": {
      "resourceType": "Location",
      "id": "014e0afa-8eb5-448a-9081-9469f758aca6",
      "managingOrganization": {
        "reference": "urn:uuid:abe7b949-23b5-44ef-a279-e90e39bcdb78"
      }
    }
  }, {
    "fullUrl": "urn:uuid:abe7b949-23b5-44ef-a279-e90e39bcdb78",
    "resource": {
      "resourceType": "Organization",
      "id": "abe7b949-23b5-44ef-a279-e90e39bcdb78",
      "identifier": [ {
        "value": "EM396"
      } ],
      "type": [ {
        "coding": [ {
          "code": "PRCP",
          "display": "Medway Kent Out of Hours Clinic"
        } ]
      } ],
      "name": "Medway Kent Out of Hours Clinic"
    }
  }, {
    "fullUrl": "urn:uuid:1aa794e1-1c5b-436f-804c-534338a77e34",
    "resource": {
      "resourceType": "ReferralRequest",
      "id": "1aa794e1-1c5b-436f-804c-534338a77e34",
      "status": "active",
      "intent": "plan",
      "priority": "routine",
      "subject": {
        "reference": "urn:uuid:61fd5259-dd89-4a11-b80e-f8ff52d9e024"
      },
      "context": {
        "reference": "urn:uuid:201c0671-b47e-4fae-9727-3990cde4808c"
      },
      "occurrencePeriod": {
        "start": "2017-01-01T20:00:00+00:00"
      },
      "authoredOn": "2019-01-01T20:00:00+00:00",
      "requester": {
        "agent": {
          "reference": "urn:uuid:321d43bb-9a34-49a5-b02d-c4840a262f64"
        },
        "onBehalfOf": {
          "reference": "urn:uuid:0a6fb8d3-c480-4408-bd8d-9725e7d44371"
        }
      },
      "recipient": [ {
        "reference": "urn:uuid:8e297e4b-8bfe-4967-a51e-8d66db644264"
      }, {
        "reference": "urn:uuid:5fbf93c8-e63f-41a4-8317-baf4bce1225c"
      }, {
        "reference": "urn:uuid:cb83c77e-5c30-4277-8cb9-9c430c6c162a"
      } ],
      "reasonReference": [ {
        "reference": "urn:uuid:bfd9c6e5-ef43-4b99-bc01-650e34e43f4c"
      } ],
      "supportingInfo": [ {
        "reference": "urn:uuid:4b0fa60f-ad34-4072-9f6d-32fe8845d23b"
      } ]
    }
  }, {
    "fullUrl": "urn:uuid:4b0fa60f-ad34-4072-9f6d-32fe8845d23b",
    "resource": {
      "resourceType": "ProcedureRequest",
      "id": "4b0fa60f-ad34-4072-9f6d-32fe8845d23b",
      "status": "active",
      "intent": "plan",
      "priority": "routine",
      "doNotPerform": false,
      "code": {
        "coding": [ {
          "system": "2.16.840.1.113883.2.1.3.2.4.17.325",
          "code": "Dx001",
          "display": "Passed onto clinical hub"
        } ]
      },
      "subject": {
        "reference": "urn:uuid:61fd5259-dd89-4a11-b80e-f8ff52d9e024"
      },
      "occurrencePeriod": {
        "start": "2017-01-01T20:00:00+00:00"
      },
      "reasonReference": [ {
        "reference": "urn:uuid:bfd9c6e5-ef43-4b99-bc01-650e34e43f4c"
      } ]
    }
  }, {
    "fullUrl": "urn:uuid:8e297e4b-8bfe-4967-a51e-8d66db644264",
    "resource": {
      "resourceType": "Practitioner",
      "id": "8e297e4b-8bfe-4967-a51e-8d66db644264",
      "active": true,
      "telecom": [ {
        "system": "phone",
        "value": "tel:0123456789"
      } ],
      "address": [ {
        "type": "physical",
        "line": [ "Church Street Walk in Centre", "4 Church Street", "Medway" ],
        "postalCode": "ME8 7TT"
      } ]
    }
  }, {
    "fullUrl": "urn:uuid:75bf938d-b1e4-4958-94ec-9d38e2729e0d",
    "resource": {
      "resourceType": "Composition",
      "id": "75bf938d-b1e4-4958-94ec-9d38e2729e0d",
      "identifier": {
        "use": "usual",
        "value": "411910CF-1A76-4330-98FE-C345DDEE5553"
      },
      "status": "final",
      "type": {
        "coding": [ {
          "system": "http://snomed.info/sct",
          "code": "371531000",
          "display": "Report of clinical encounter (record artifact)"
        } ]
      },
      "subject": {
        "reference": "urn:uuid:61fd5259-dd89-4a11-b80e-f8ff52d9e024"
      },
      "encounter": {
        "reference": "urn:uuid:201c0671-b47e-4fae-9727-3990cde4808c"
      },
      "date": "2017-01-01T20:00:00+00:00",
      "author": [ {
        "reference": "urn:uuid:b85238a5-defd-42a8-9235-c41a5ed42498"
      } ],
      "title": "111 Report",
      "confidentiality": "V",
      "section": [ {
        "section": [ {
          "title": "Permission to View",
          "text": {
            "status": "generated",
            "div": "<div xmlns=\"http://www.w3.org/1999/xhtml\">&lt;table&gt;\n                                                        &lt;tbody&gt;\n                                                            &lt;tr&gt;\n                                                                &lt;th&gt;Permission to view outcome&lt;/th&gt;\n                                                                &lt;td&gt;Permission to view obtained&lt;/td&gt;\n                                                            &lt;/tr&gt;\n                                                            &lt;tr&gt;\n                                                                &lt;th&gt;Date obtained&lt;/th&gt;\n                                                                &lt;td&gt;01-Jan-2017, 20:00&lt;/td&gt;\n                                                            &lt;/tr&gt;\n                                                            &lt;tr&gt;\n                                                                &lt;th&gt;Date expires&lt;/th&gt;\n                                                                &lt;td&gt;15-Jan-2017, 20:00&lt;/td&gt;\n                                                            &lt;/tr&gt;\n                                                        &lt;/tbody&gt;\n                                                    &lt;/table&gt;</div>"
          }
        }, {
          "title": "Primary Reason for Call",
          "text": {
            "status": "generated",
            "div": "<div xmlns=\"http://www.w3.org/1999/xhtml\">&lt;content&gt;Patient feels dizzy.&lt;/content&gt;</div>"
          },
          "section": [ {
            "title": "SUBSUB2",
            "text": {
              "status": "generated",
              "div": "<div xmlns=\"http://www.w3.org/1999/xhtml\">&lt;content&gt;SUBSUB2&lt;/content&gt;</div>"
            },
            "section": [ {
              "title": "SUBSUB3",
              "text": {
                "status": "generated",
                "div": "<div xmlns=\"http://www.w3.org/1999/xhtml\">&lt;content&gt;SUBSUB3&lt;/content&gt;</div>"
              }
            } ]
          } ]
        }, {
          "title": "Clinical Summary",
          "text": {
            "status": "generated",
            "div": "<div xmlns=\"http://www.w3.org/1999/xhtml\">&lt;content&gt;\n                                                        Patient fels nausea and dizzy after waking up. Lasted 30\n                                                        minutes.\n                                                    &lt;/content&gt;</div>"
          }
        }, {
          "title": "Additional Patient Notes",
          "text": {
            "status": "generated",
            "div": "<div xmlns=\"http://www.w3.org/1999/xhtml\">Additional Patient Notes\n                                                    &lt;br/&gt;\n                                                    Additional Patient Notes abc 01-Feb-2017, 12:00\n                                                    &lt;br/&gt;</div>"
          },
          "section": [ {
            "text": {
              "status": "generated",
              "div": "<div xmlns=\"http://www.w3.org/1999/xhtml\">These are more notes, nested under the top one.</div>"
            }
          } ]
        }, {
          "title": "Disposition Details",
          "text": {
            "status": "generated",
            "div": "<div xmlns=\"http://www.w3.org/1999/xhtml\">&lt;content&gt;Lie down.&lt;/content&gt;</div>"
          }
        }, {
          "title": "Information and advice given",
          "text": {
            "status": "generated",
            "div": "<div xmlns=\"http://www.w3.org/1999/xhtml\">&lt;content&gt;Do not perform any strenuous activities.&lt;/content&gt;</div>"
          }
        }, {
          "title": "Recorded Allergies",
          "text": {
            "status": "generated",
            "div": "<div xmlns=\"http://www.w3.org/1999/xhtml\">&lt;content&gt;No known allergies or adverse reaction.&lt;/content&gt;</div>"
          }
        }, {
          "title": "Triage Report",
          "text": {
            "status": "generated",
            "div": "<div xmlns=\"http://www.w3.org/1999/xhtml\">&lt;content&gt;An injury or other health problem was described.\n                                                        &lt;br/&gt;The individual was described as breathing and conscious.\n                                                        &lt;br/&gt;Loss of at least a mugful of blood in the last 30 minutes\n                                                        was not described.\n                                                        &lt;br/&gt;An illness or other health problem was described. -\n                                                        Dizziness\n                                                        &lt;br/&gt;Fighting for breath was not described.\n                                                        &lt;br/&gt;A heart attack, chest/upper back pain, recent probable\n                                                        stroke, recent fit/seizure or suicide attempt was not described\n                                                        as the main call reason.\n                                                        &lt;br/&gt;Dizziness and nausea was described.\n                                                        &lt;br/&gt;\n                                                    &lt;/content&gt;</div>"
          }
        }, {
          "title": "Prescribed Items",
          "text": {
            "status": "generated",
            "div": "<div xmlns=\"http://www.w3.org/1999/xhtml\">&lt;content&gt;\n                                                        Medications\n                                                    &lt;/content&gt;</div>"
          }
        }, {
          "title": "Appointment Reference",
          "text": {
            "status": "generated",
            "div": "<div xmlns=\"http://www.w3.org/1999/xhtml\">&lt;content&gt;\n                                                        Date/Time: 01 June 2017 14:00\n                                                        Location: CENTRAL LONDON COMMUNITY HEALTHCARE NHS TRUST\n                                                        Psychiatric Community Care Service\n                                                    &lt;/content&gt;</div>"
          }
        } ]
      }, {
        "title": "CarePlan",
        "entry": [ {
          "reference": "urn:uuid:b3522f87-8d66-413b-94ef-a9fcbc28d113"
        } ]
      }, {
        "title": "ReferralRequest",
        "entry": [ {
          "reference": "urn:uuid:1aa794e1-1c5b-436f-804c-534338a77e34"
        } ]
      }, {
        "title": "QuestionnaireResponse",
        "entry": [ {
          "reference": "urn:uuid:9349155f-9638-4fd9-b529-f7f17fed291e"
        } ]
      }, {
        "title": "QuestionnaireResponse",
        "entry": [ {
          "reference": "urn:uuid:f575391e-ead6-4d64-97ff-717e018d46ac"
        } ]
      }, {
        "title": "QuestionnaireResponse",
        "entry": [ {
          "reference": "urn:uuid:cfe3f729-ebe3-4c55-8b53-fea22facca55"
        } ]
      }, {
        "title": "QuestionnaireResponse",
        "entry": [ {
          "reference": "urn:uuid:5c5e26a0-3e23-4493-9966-d1cb39be2d6d"
        } ]
      }, {
        "title": "QuestionnaireResponse",
        "entry": [ {
          "reference": "urn:uuid:882f12f1-bb92-45f0-96cd-c21b27df9960"
        } ]
      }, {
        "title": "QuestionnaireResponse",
        "entry": [ {
          "reference": "urn:uuid:7f299db5-0e01-4804-97f0-0e6e7c7e54e5"
        } ]
      }, {
        "title": "QuestionnaireResponse",
        "entry": [ {
          "reference": "urn:uuid:44d6f8d1-1755-4214-9ba5-9e30f8e3efd4"
        } ]
      }, {
        "title": "QuestionnaireResponse",
        "entry": [ {
          "reference": "urn:uuid:c01b15c0-004a-405c-9f00-f14641ca95f9"
        } ]
      }, {
        "title": "QuestionnaireResponse",
        "entry": [ {
          "reference": "urn:uuid:4e67e262-96ce-4765-a7c4-a16553040364"
        } ]
      }, {
        "title": "QuestionnaireResponse",
        "entry": [ {
          "reference": "urn:uuid:64af40d3-e16b-4b79-8f24-f032366137dc"
        } ]
      }, {
        "title": "QuestionnaireResponse",
        "entry": [ {
          "reference": "urn:uuid:02b527eb-f7e0-446d-b456-848607755d75"
        } ]
      }, {
        "title": "QuestionnaireResponse",
        "entry": [ {
          "reference": "urn:uuid:47ff8c90-0869-403d-927e-8ef6f44d3ebc"
        } ]
      }, {
        "title": "QuestionnaireResponse",
        "entry": [ {
          "reference": "urn:uuid:028e6203-136c-4337-80bc-71fed6eed467"
        } ]
      }, {
        "title": "QuestionnaireResponse",
        "entry": [ {
          "reference": "urn:uuid:92c9f8b2-d1d4-4c83-b4f6-c775ea401df2"
        } ]
      }, {
        "title": "QuestionnaireResponse",
        "entry": [ {
          "reference": "urn:uuid:adf58afc-9371-4214-911d-5a76abc96f6e"
        } ]
      }, {
        "title": "QuestionnaireResponse",
        "entry": [ {
          "reference": "urn:uuid:f3f3f8b1-9001-42c6-84d9-583a3b01ff5a"
        } ]
      }, {
        "title": "QuestionnaireResponse",
        "entry": [ {
          "reference": "urn:uuid:e6a62f1a-7bab-4ead-a394-4eae0da79f1f"
        } ]
      }, {
        "title": "QuestionnaireResponse",
        "entry": [ {
          "reference": "urn:uuid:8db42138-2deb-40f6-a511-62699029fd01"
        } ]
      }, {
        "title": "QuestionnaireResponse",
        "entry": [ {
          "reference": "urn:uuid:0479ee90-624a-4132-a8c4-889541e03360"
        } ]
      }, {
        "title": "QuestionnaireResponse",
        "entry": [ {
          "reference": "urn:uuid:497521ed-e920-434a-b1d8-ed01e2563d6a"
        } ]
      }, {
        "title": "QuestionnaireResponse",
        "entry": [ {
          "reference": "urn:uuid:fcf58c38-37e8-4133-8fbf-626d79c8a05c"
        } ]
      }, {
        "title": "QuestionnaireResponse",
        "entry": [ {
          "reference": "urn:uuid:b12a3645-c31c-4a7f-9f17-5359cbdf78a5"
        } ]
      }, {
        "title": "QuestionnaireResponse",
        "entry": [ {
          "reference": "urn:uuid:3c1fd117-94e6-4fa4-a5a6-2043cb682468"
        } ]
      }, {
        "title": "QuestionnaireResponse",
        "entry": [ {
          "reference": "urn:uuid:fd9f4207-1be5-479e-aaa6-0819a422434a"
        } ]
      } ]
    }
  }, {
    "fullUrl": "urn:uuid:b3522f87-8d66-413b-94ef-a9fcbc28d113",
    "resource": {
      "resourceType": "CarePlan",
      "id": "b3522f87-8d66-413b-94ef-a9fcbc28d113",
      "status": "completed",
      "intent": "plan",
      "title": "Information and advice given",
      "description": "Do not perform any strenuous activities.",
      "subject": {
        "reference": "urn:uuid:61fd5259-dd89-4a11-b80e-f8ff52d9e024"
      },
      "context": {
        "reference": "urn:uuid:201c0671-b47e-4fae-9727-3990cde4808c"
      },
      "period": {
        "start": "2017-01-01T19:45:00+00:00",
        "end": "2017-01-01T20:15:00+00:00"
      },
      "author": [ {
        "reference": "urn:uuid:9292f07d-94a3-4de6-94a0-94228ed4339c"
      } ],
      "addresses": [ {
        "reference": "urn:uuid:bfd9c6e5-ef43-4b99-bc01-650e34e43f4c"
      } ]
    }
  }, {
    "fullUrl": "urn:uuid:9f1fb199-dc30-4f65-802e-53706e724fc0",
    "resource": {
      "resourceType": "Consent",
      "id": "9f1fb199-dc30-4f65-802e-53706e724fc0",
      "text": {
        "status": "generated",
        "div": "<div xmlns=\"http://www.w3.org/1999/xhtml\">\n                                                    <table>\n                                                        <tbody>\n                                                            <tr>\n                                                                <th>Permission to view outcome</th>\n                                                                <td>Permission to view obtained</td>\n                                                            </tr>\n                                                            <tr>\n                                                                <th>Date obtained</th>\n                                                                <td>01-Jan-2017, 20:00</td>\n                                                            </tr>\n                                                            <tr>\n                                                                <th>Date expires</th>\n                                                                <td>15-Jan-2017, 20:00</td>\n                                                            </tr>\n                                                        </tbody>\n                                                    </table>\n                                                </div>"
      },
      "identifier": {
        "use": "usual",
        "value": "411910CF-1A76-4330-98FE-C345DDEE5553"
      },
      "status": "active",
      "patient": {
        "reference": "urn:uuid:61fd5259-dd89-4a11-b80e-f8ff52d9e024"
      },
      "period": {
        "start": "2017-01-01T19:45:00+00:00",
        "end": "2017-01-01T20:15:00+00:00"
      },
      "consentingParty": [ {
        "reference": "urn:uuid:61fd5259-dd89-4a11-b80e-f8ff52d9e024"
      } ],
      "action": [ {
        "coding": [ {
          "system": "http://snomed.info/sct",
          "code": "425691002",
          "display": "Consent given for electronic record sharing"
        } ],
        "text": "Consent given for electronic record sharing"
      } ],
      "organization": [ {
        "reference": "urn:uuid:0a6fb8d3-c480-4408-bd8d-9725e7d44371"
      } ],
      "sourceIdentifier": {
        "value": "41D9F90F-6DB7-4939-BEF5-F8D75D79ECDD"
      },
      "policyRule": "http://hl7.org/fhir/ConsentPolicy/opt-out",
      "dataPeriod": {
        "start": "2011-05-19T20:00:00+00:00",
        "end": "2011-05-26T20:00:00+00:00"
      },
      "data": [ {
        "meaning": "related",
        "reference": {
          "reference": "urn:uuid:201c0671-b47e-4fae-9727-3990cde4808c"
        }
      } ]
    }
  }, {
    "fullUrl": "urn:uuid:bfd9c6e5-ef43-4b99-bc01-650e34e43f4c",
    "resource": {
      "resourceType": "Condition",
      "id": "bfd9c6e5-ef43-4b99-bc01-650e34e43f4c",
      "clinicalStatus": "active",
      "verificationStatus": "unknown",
      "code": {
        "coding": [ {
          "system": "22298006",
          "code": "2.16.840.1.113883.2.1.3.2.4.15",
          "display": "Myocardial infarction"
        } ]
      },
      "subject": {
        "reference": "urn:uuid:61fd5259-dd89-4a11-b80e-f8ff52d9e024"
      },
      "context": {
        "reference": "urn:uuid:201c0671-b47e-4fae-9727-3990cde4808c"
      },
      "assertedDate": "2017-06-01T14:00:00+00:00",
      "evidence": [ {
        "detail": [ {
          "reference": "urn:uuid:9349155f-9638-4fd9-b529-f7f17fed291e"
        } ]
      }, {
        "detail": [ {
          "reference": "urn:uuid:f575391e-ead6-4d64-97ff-717e018d46ac"
        } ]
      }, {
        "detail": [ {
          "reference": "urn:uuid:cfe3f729-ebe3-4c55-8b53-fea22facca55"
        } ]
      }, {
        "detail": [ {
          "reference": "urn:uuid:5c5e26a0-3e23-4493-9966-d1cb39be2d6d"
        } ]
      }, {
        "detail": [ {
          "reference": "urn:uuid:882f12f1-bb92-45f0-96cd-c21b27df9960"
        } ]
      }, {
        "detail": [ {
          "reference": "urn:uuid:7f299db5-0e01-4804-97f0-0e6e7c7e54e5"
        } ]
      }, {
        "detail": [ {
          "reference": "urn:uuid:44d6f8d1-1755-4214-9ba5-9e30f8e3efd4"
        } ]
      }, {
        "detail": [ {
          "reference": "urn:uuid:c01b15c0-004a-405c-9f00-f14641ca95f9"
        } ]
      }, {
        "detail": [ {
          "reference": "urn:uuid:4e67e262-96ce-4765-a7c4-a16553040364"
        } ]
      }, {
        "detail": [ {
          "reference": "urn:uuid:64af40d3-e16b-4b79-8f24-f032366137dc"
        } ]
      }, {
        "detail": [ {
          "reference": "urn:uuid:02b527eb-f7e0-446d-b456-848607755d75"
        } ]
      }, {
        "detail": [ {
          "reference": "urn:uuid:47ff8c90-0869-403d-927e-8ef6f44d3ebc"
        } ]
      }, {
        "detail": [ {
          "reference": "urn:uuid:028e6203-136c-4337-80bc-71fed6eed467"
        } ]
      }, {
        "detail": [ {
          "reference": "urn:uuid:92c9f8b2-d1d4-4c83-b4f6-c775ea401df2"
        } ]
      }, {
        "detail": [ {
          "reference": "urn:uuid:adf58afc-9371-4214-911d-5a76abc96f6e"
        } ]
      }, {
        "detail": [ {
          "reference": "urn:uuid:f3f3f8b1-9001-42c6-84d9-583a3b01ff5a"
        } ]
      }, {
        "detail": [ {
          "reference": "urn:uuid:e6a62f1a-7bab-4ead-a394-4eae0da79f1f"
        } ]
      }, {
        "detail": [ {
          "reference": "urn:uuid:8db42138-2deb-40f6-a511-62699029fd01"
        } ]
      }, {
        "detail": [ {
          "reference": "urn:uuid:0479ee90-624a-4132-a8c4-889541e03360"
        } ]
      }, {
        "detail": [ {
          "reference": "urn:uuid:497521ed-e920-434a-b1d8-ed01e2563d6a"
        } ]
      }, {
        "detail": [ {
          "reference": "urn:uuid:fcf58c38-37e8-4133-8fbf-626d79c8a05c"
        } ]
      }, {
        "detail": [ {
          "reference": "urn:uuid:b12a3645-c31c-4a7f-9f17-5359cbdf78a5"
        } ]
      }, {
        "detail": [ {
          "reference": "urn:uuid:3c1fd117-94e6-4fa4-a5a6-2043cb682468"
        } ]
      }, {
        "detail": [ {
          "reference": "urn:uuid:fd9f4207-1be5-479e-aaa6-0819a422434a"
        } ]
      } ]
    }
  }, {
    "fullUrl": "urn:uuid:9349155f-9638-4fd9-b529-f7f17fed291e",
    "resource": {
      "resourceType": "QuestionnaireResponse",
      "id": "9349155f-9638-4fd9-b529-f7f17fed291e",
      "identifier": {
        "value": "8067b9b2-e604-4414-b56f-8e3cc4de4b1b"
      },
      "questionnaire": {
        "reference": "urn:uuid:caa8e7cd-4932-469b-b081-4e5b9e4ad0ec"
      },
      "status": "completed",
      "subject": {
        "reference": "urn:uuid:61fd5259-dd89-4a11-b80e-f8ff52d9e024"
      },
      "context": {
        "reference": "urn:uuid:201c0671-b47e-4fae-9727-3990cde4808c"
      },
      "authored": "2011-02-17T17:31:14+00:00",
      "item": [ {
        "linkId": "N/A"
      } ]
    }
  }, {
    "fullUrl": "urn:uuid:caa8e7cd-4932-469b-b081-4e5b9e4ad0ec",
    "resource": {
      "resourceType": "Questionnaire",
      "id": "caa8e7cd-4932-469b-b081-4e5b9e4ad0ec",
      "identifier": [ {
        "value": "8067b9b2-e604-4414-b56f-8e3cc4de4b1b"
      } ],
      "version": "2011-02-17T17:31:14.313Z",
      "status": "active",
      "experimental": false,
      "date": "2011-02-17T17:31:14+00:00",
      "publisher": "User ID: '3137' User name: 'redacted' User skill set: 'T1'",
      "lastReviewDate": "2011-02-17",
      "jurisdiction": [ {
        "text": "England"
      } ],
      "contact": [ {
        "telecom": [ {
          "system": "phone",
          "value": "redacted"
        } ]
      } ],
      "subjectType": [ "Patient" ],
      "item": [ {
        "linkId": "8067b9b2-e604-4414-b56f-8e3cc4de4b1b",
        "prefix": "0",
        "type": "choice",
        "required": true,
        "repeats": false,
        "option": [ {
          "valueString": ", Selected: false"
        } ]
      } ]
    }
  }, {
    "fullUrl": "urn:uuid:f575391e-ead6-4d64-97ff-717e018d46ac",
    "resource": {
      "resourceType": "QuestionnaireResponse",
      "id": "f575391e-ead6-4d64-97ff-717e018d46ac",
      "identifier": {
        "value": "8067b9b2-e604-4414-b56f-8e3cc4de4b1b"
      },
      "questionnaire": {
        "reference": "urn:uuid:d52eea90-f450-4ee0-b477-ed1a549ab686"
      },
      "status": "completed",
      "subject": {
        "reference": "urn:uuid:61fd5259-dd89-4a11-b80e-f8ff52d9e024"
      },
      "context": {
        "reference": "urn:uuid:201c0671-b47e-4fae-9727-3990cde4808c"
      },
      "authored": "2011-02-17T17:31:14+00:00",
      "item": [ {
        "linkId": "N/A"
      } ]
    }
  }, {
    "fullUrl": "urn:uuid:d52eea90-f450-4ee0-b477-ed1a549ab686",
    "resource": {
      "resourceType": "Questionnaire",
      "id": "d52eea90-f450-4ee0-b477-ed1a549ab686",
      "identifier": [ {
        "value": "8067b9b2-e604-4414-b56f-8e3cc4de4b1b"
      } ],
      "version": "2011-02-17T17:31:14.313Z",
      "status": "active",
      "experimental": false,
      "date": "2011-02-17T17:31:14+00:00",
      "publisher": "User ID: '3137' User name: 'redacted' User skill set: 'T1'",
      "lastReviewDate": "2011-02-17",
      "jurisdiction": [ {
        "text": "England"
      } ],
      "contact": [ {
        "telecom": [ {
          "system": "phone",
          "value": "redacted"
        } ]
      } ],
      "subjectType": [ "Patient" ],
      "item": [ {
        "linkId": "8067b9b2-e604-4414-b56f-8e3cc4de4b1b",
        "prefix": "0",
        "type": "choice",
        "required": true,
        "repeats": false,
        "option": [ {
          "valueString": ", Selected: false"
        } ]
      } ]
    }
  }, {
    "fullUrl": "urn:uuid:cfe3f729-ebe3-4c55-8b53-fea22facca55",
    "resource": {
      "resourceType": "QuestionnaireResponse",
      "id": "cfe3f729-ebe3-4c55-8b53-fea22facca55",
      "identifier": {
        "value": "8067b9b2-e604-4414-b56f-8e3cc4de4b1b"
      },
      "questionnaire": {
        "reference": "urn:uuid:8e9f00ad-1871-41b6-b3f6-04caf47b1677"
      },
      "status": "completed",
      "subject": {
        "reference": "urn:uuid:61fd5259-dd89-4a11-b80e-f8ff52d9e024"
      },
      "context": {
        "reference": "urn:uuid:201c0671-b47e-4fae-9727-3990cde4808c"
      },
      "authored": "2011-02-17T17:31:14+00:00",
      "item": [ {
        "linkId": "Tx220109",
        "text": "What is the reason for the call?",
        "answer": [ {
          "valueString": "an injury or other health problem"
        } ]
      } ]
    }
  }, {
    "fullUrl": "urn:uuid:8e9f00ad-1871-41b6-b3f6-04caf47b1677",
    "resource": {
      "resourceType": "Questionnaire",
      "id": "8e9f00ad-1871-41b6-b3f6-04caf47b1677",
      "identifier": [ {
        "value": "8067b9b2-e604-4414-b56f-8e3cc4de4b1b"
      } ],
      "version": "2011-02-17T17:31:14.313Z",
      "status": "active",
      "experimental": false,
      "date": "2011-02-17T17:31:14+00:00",
      "publisher": "User ID: '3137' User name: 'redacted' User skill set: 'T1'",
      "lastReviewDate": "2011-02-17",
      "jurisdiction": [ {
        "text": "England"
      } ],
      "contact": [ {
        "telecom": [ {
          "system": "phone",
          "value": "redacted"
        } ]
      } ],
      "subjectType": [ "Patient" ],
      "item": [ {
        "linkId": "8067b9b2-e604-4414-b56f-8e3cc4de4b1b",
        "prefix": "5",
        "text": "What is the reason for the call?",
        "type": "choice",
        "required": true,
        "repeats": false,
        "option": [ {
          "valueString": "an injury or other health problem, Selected: true"
        }, {
          "valueString": "a need to access another healthcare provider, Selected: false"
        }, {
          "valueString": "a healthcare professional requesting contact with another clinician, Selected: false"
        }, {
          "valueString": "a report of results or tests, Selected: false"
        }, {
          "valueString": "more, Selected: false"
        } ]
      } ]
    }
  }, {
    "fullUrl": "urn:uuid:5c5e26a0-3e23-4493-9966-d1cb39be2d6d",
    "resource": {
      "resourceType": "QuestionnaireResponse",
      "id": "5c5e26a0-3e23-4493-9966-d1cb39be2d6d",
      "identifier": {
        "value": "8067b9b2-e604-4414-b56f-8e3cc4de4b1b"
      },
      "questionnaire": {
        "reference": "urn:uuid:03ec882e-8634-4fbe-9b0a-572f52a2ed43"
      },
      "status": "completed",
      "subject": {
        "reference": "urn:uuid:61fd5259-dd89-4a11-b80e-f8ff52d9e024"
      },
      "context": {
        "reference": "urn:uuid:201c0671-b47e-4fae-9727-3990cde4808c"
      },
      "authored": "2011-02-17T17:31:14+00:00",
      "item": [ {
        "linkId": "Tx140118",
        "text": "Has the baby just been born?",
        "answer": [ {
          "valueString": "no"
        } ]
      } ]
    }
  }, {
    "fullUrl": "urn:uuid:03ec882e-8634-4fbe-9b0a-572f52a2ed43",
    "resource": {
      "resourceType": "Questionnaire",
      "id": "03ec882e-8634-4fbe-9b0a-572f52a2ed43",
      "identifier": [ {
        "value": "8067b9b2-e604-4414-b56f-8e3cc4de4b1b"
      } ],
      "version": "2011-02-17T17:31:14.313Z",
      "status": "active",
      "experimental": false,
      "date": "2011-02-17T17:31:14+00:00",
      "publisher": "User ID: '3137' User name: 'redacted' User skill set: 'T1'",
      "lastReviewDate": "2011-02-17",
      "jurisdiction": [ {
        "text": "England"
      } ],
      "contact": [ {
        "telecom": [ {
          "system": "phone",
          "value": "redacted"
        } ]
      } ],
      "subjectType": [ "Patient" ],
      "item": [ {
        "linkId": "8067b9b2-e604-4414-b56f-8e3cc4de4b1b",
        "prefix": "35",
        "text": "Has the baby just been born?",
        "type": "choice",
        "required": true,
        "repeats": false,
        "option": [ {
          "valueString": "yes, Selected: false"
        }, {
          "valueString": "not sure, Selected: false"
        }, {
          "valueString": "no, Selected: true"
        } ]
      } ]
    }
  }, {
    "fullUrl": "urn:uuid:882f12f1-bb92-45f0-96cd-c21b27df9960",
    "resource": {
      "resourceType": "QuestionnaireResponse",
      "id": "882f12f1-bb92-45f0-96cd-c21b27df9960",
      "identifier": {
        "value": "8067b9b2-e604-4414-b56f-8e3cc4de4b1b"
      },
      "questionnaire": {
        "reference": "urn:uuid:b3c9aa4f-be94-4f8e-ae23-a8c7e9062c4c"
      },
      "status": "completed",
      "subject": {
        "reference": "urn:uuid:61fd5259-dd89-4a11-b80e-f8ff52d9e024"
      },
      "context": {
        "reference": "urn:uuid:201c0671-b47e-4fae-9727-3990cde4808c"
      },
      "authored": "2011-02-17T17:31:14+00:00",
      "item": [ {
        "linkId": "Tx220110",
        "text": "Is he breathing and conscious?",
        "answer": [ {
          "valueString": "breathing AND conscious"
        } ]
      } ]
    }
  }, {
    "fullUrl": "urn:uuid:b3c9aa4f-be94-4f8e-ae23-a8c7e9062c4c",
    "resource": {
      "resourceType": "Questionnaire",
      "id": "b3c9aa4f-be94-4f8e-ae23-a8c7e9062c4c",
      "identifier": [ {
        "value": "8067b9b2-e604-4414-b56f-8e3cc4de4b1b"
      } ],
      "version": "2011-02-17T17:31:14.313Z",
      "status": "active",
      "experimental": false,
      "date": "2011-02-17T17:31:14+00:00",
      "publisher": "User ID: '3137' User name: 'redacted' User skill set: 'T1'",
      "lastReviewDate": "2011-02-17",
      "jurisdiction": [ {
        "text": "England"
      } ],
      "contact": [ {
        "telecom": [ {
          "system": "phone",
          "value": "redacted"
        } ]
      } ],
      "subjectType": [ "Patient" ],
      "item": [ {
        "linkId": "8067b9b2-e604-4414-b56f-8e3cc4de4b1b",
        "prefix": "40",
        "text": "Is he breathing and conscious?",
        "type": "choice",
        "required": true,
        "repeats": false,
        "option": [ {
          "valueString": "breathing AND conscious, Selected: true"
        }, {
          "valueString": "breathing but NOT conscious (includes current fitting), Selected: false"
        }, {
          "valueString": "NOT breathing, Selected: false"
        }, {
          "valueString": "choking now, Selected: false"
        } ]
      } ]
    }
  }, {
    "fullUrl": "urn:uuid:7f299db5-0e01-4804-97f0-0e6e7c7e54e5",
    "resource": {
      "resourceType": "QuestionnaireResponse",
      "id": "7f299db5-0e01-4804-97f0-0e6e7c7e54e5",
      "identifier": {
        "value": "8067b9b2-e604-4414-b56f-8e3cc4de4b1b"
      },
      "questionnaire": {
        "reference": "urn:uuid:1dd59434-a7b3-47d1-a8ff-f6d0cdf7b76c"
      },
      "status": "completed",
      "subject": {
        "reference": "urn:uuid:61fd5259-dd89-4a11-b80e-f8ff52d9e024"
      },
      "context": {
        "reference": "urn:uuid:201c0671-b47e-4fae-9727-3990cde4808c"
      },
      "authored": "2011-02-17T17:31:14+00:00",
      "item": [ {
        "linkId": "Tx220285",
        "text": "Has he been bleeding very heavily IN THE LAST HOUR?",
        "answer": [ {
          "valueString": "no"
        } ]
      } ]
    }
  }, {
    "fullUrl": "urn:uuid:1dd59434-a7b3-47d1-a8ff-f6d0cdf7b76c",
    "resource": {
      "resourceType": "Questionnaire",
      "id": "1dd59434-a7b3-47d1-a8ff-f6d0cdf7b76c",
      "identifier": [ {
        "value": "8067b9b2-e604-4414-b56f-8e3cc4de4b1b"
      } ],
      "version": "2011-02-17T17:31:14.313Z",
      "status": "active",
      "experimental": false,
      "date": "2011-02-17T17:31:14+00:00",
      "publisher": "User ID: '3137' User name: 'redacted' User skill set: 'T1'",
      "lastReviewDate": "2011-02-17",
      "jurisdiction": [ {
        "text": "England"
      } ],
      "contact": [ {
        "telecom": [ {
          "system": "phone",
          "value": "redacted"
        } ]
      } ],
      "subjectType": [ "Patient" ],
      "item": [ {
        "linkId": "8067b9b2-e604-4414-b56f-8e3cc4de4b1b",
        "prefix": "60",
        "text": "Has he been bleeding very heavily IN THE LAST HOUR?",
        "type": "choice",
        "required": true,
        "repeats": false,
        "option": [ {
          "valueString": "blood spurting from a wound, Selected: false"
        }, {
          "valueString": "an egg cupful or more of red blood from a body opening, Selected: false"
        }, {
          "valueString": "an egg cupful or more from a wound, Selected: false"
        }, {
          "valueString": "not sure, Selected: false"
        }, {
          "valueString": "no, Selected: true"
        } ]
      } ]
    }
  }, {
    "fullUrl": "urn:uuid:44d6f8d1-1755-4214-9ba5-9e30f8e3efd4",
    "resource": {
      "resourceType": "QuestionnaireResponse",
      "id": "44d6f8d1-1755-4214-9ba5-9e30f8e3efd4",
      "identifier": {
        "value": "8067b9b2-e604-4414-b56f-8e3cc4de4b1b"
      },
      "questionnaire": {
        "reference": "urn:uuid:93a636f1-0898-4a88-8853-0cd13fd9ba88"
      },
      "status": "completed",
      "subject": {
        "reference": "urn:uuid:61fd5259-dd89-4a11-b80e-f8ff52d9e024"
      },
      "context": {
        "reference": "urn:uuid:201c0671-b47e-4fae-9727-3990cde4808c"
      },
      "authored": "2011-02-17T17:31:14+00:00",
      "item": [ {
        "linkId": "N/A",
        "text": "SocialConcernsExcluded",
        "answer": [ {
          "valueString": "*"
        } ]
      } ]
    }
  }, {
    "fullUrl": "urn:uuid:93a636f1-0898-4a88-8853-0cd13fd9ba88",
    "resource": {
      "resourceType": "Questionnaire",
      "id": "93a636f1-0898-4a88-8853-0cd13fd9ba88",
      "identifier": [ {
        "value": "8067b9b2-e604-4414-b56f-8e3cc4de4b1b"
      } ],
      "version": "2011-02-17T17:31:14.313Z",
      "status": "active",
      "experimental": false,
      "date": "2011-02-17T17:31:14+00:00",
      "publisher": "User ID: '3137' User name: 'redacted' User skill set: 'T1'",
      "lastReviewDate": "2011-02-17",
      "jurisdiction": [ {
        "text": "England"
      } ],
      "contact": [ {
        "telecom": [ {
          "system": "phone",
          "value": "redacted"
        } ]
      } ],
      "subjectType": [ "Patient" ],
      "item": [ {
        "linkId": "8067b9b2-e604-4414-b56f-8e3cc4de4b1b",
        "prefix": "2050",
        "text": "SocialConcernsExcluded",
        "type": "choice",
        "required": true,
        "repeats": false,
        "option": [ {
          "valueString": "==\"present\", Selected: false"
        }, {
          "valueString": "*, Selected: true"
        } ]
      } ]
    }
  }, {
    "fullUrl": "urn:uuid:c01b15c0-004a-405c-9f00-f14641ca95f9",
    "resource": {
      "resourceType": "QuestionnaireResponse",
      "id": "c01b15c0-004a-405c-9f00-f14641ca95f9",
      "identifier": {
        "value": "8067b9b2-e604-4414-b56f-8e3cc4de4b1b"
      },
      "questionnaire": {
        "reference": "urn:uuid:5eca9298-1e28-43d7-9be1-31ab74e52f33"
      },
      "status": "completed",
      "subject": {
        "reference": "urn:uuid:61fd5259-dd89-4a11-b80e-f8ff52d9e024"
      },
      "context": {
        "reference": "urn:uuid:201c0671-b47e-4fae-9727-3990cde4808c"
      },
      "authored": "2011-02-17T17:31:14+00:00",
      "item": [ {
        "linkId": "Tx140159",
        "text": "What is the reason for ending the assessment?",
        "answer": [ {
          "valueString": "transfer to a clinician"
        } ]
      } ]
    }
  }, {
    "fullUrl": "urn:uuid:5eca9298-1e28-43d7-9be1-31ab74e52f33",
    "resource": {
      "resourceType": "Questionnaire",
      "id": "5eca9298-1e28-43d7-9be1-31ab74e52f33",
      "identifier": [ {
        "value": "8067b9b2-e604-4414-b56f-8e3cc4de4b1b"
      } ],
      "version": "2011-02-17T17:31:14.313Z",
      "status": "active",
      "experimental": false,
      "date": "2011-02-17T17:31:14+00:00",
      "publisher": "User ID: '3137' User name: 'redacted' User skill set: 'T1'",
      "lastReviewDate": "2011-02-17",
      "jurisdiction": [ {
        "text": "England"
      } ],
      "contact": [ {
        "telecom": [ {
          "system": "phone",
          "value": "redacted"
        } ]
      } ],
      "subjectType": [ "Patient" ],
      "item": [ {
        "linkId": "8067b9b2-e604-4414-b56f-8e3cc4de4b1b",
        "prefix": "0",
        "text": "What is the reason for ending the assessment?",
        "type": "choice",
        "required": true,
        "repeats": false,
        "option": [ {
          "valueString": "the phone line went dead, Selected: false"
        }, {
          "valueString": "the caller terminated the call (specify), Selected: false"
        }, {
          "valueString": "I terminated the call (specify), Selected: false"
        }, {
          "valueString": "triage not possible, Selected: false"
        }, {
          "valueString": "transfer to a clinician, Selected: true"
        } ]
      } ]
    }
  }, {
    "fullUrl": "urn:uuid:4e67e262-96ce-4765-a7c4-a16553040364",
    "resource": {
      "resourceType": "QuestionnaireResponse",
      "id": "4e67e262-96ce-4765-a7c4-a16553040364",
      "identifier": {
        "value": "8067b9b2-e604-4414-b56f-8e3cc4de4b1b"
      },
      "questionnaire": {
        "reference": "urn:uuid:958fc659-32b5-49f4-9496-c18f319a73ea"
      },
      "status": "completed",
      "subject": {
        "reference": "urn:uuid:61fd5259-dd89-4a11-b80e-f8ff52d9e024"
      },
      "context": {
        "reference": "urn:uuid:201c0671-b47e-4fae-9727-3990cde4808c"
      },
      "authored": "2011-02-17T17:31:14+00:00",
      "item": [ {
        "linkId": "Tx220408",
        "text": "WHAT IS THE REASON FOR TRANSFER TO A CLINICIAN?",
        "answer": [ {
          "valueString": "other complex call (specify)"
        } ]
      } ]
    }
  }, {
    "fullUrl": "urn:uuid:958fc659-32b5-49f4-9496-c18f319a73ea",
    "resource": {
      "resourceType": "Questionnaire",
      "id": "958fc659-32b5-49f4-9496-c18f319a73ea",
      "identifier": [ {
        "value": "8067b9b2-e604-4414-b56f-8e3cc4de4b1b"
      } ],
      "version": "2011-02-17T17:31:14.313Z",
      "status": "active",
      "experimental": false,
      "date": "2011-02-17T17:31:14+00:00",
      "publisher": "User ID: '3137' User name: 'redacted' User skill set: 'T1'",
      "lastReviewDate": "2011-02-17",
      "jurisdiction": [ {
        "text": "England"
      } ],
      "contact": [ {
        "telecom": [ {
          "system": "phone",
          "value": "redacted"
        } ]
      } ],
      "subjectType": [ "Patient" ],
      "item": [ {
        "linkId": "8067b9b2-e604-4414-b56f-8e3cc4de4b1b",
        "prefix": "50",
        "text": "WHAT IS THE REASON FOR TRANSFER TO A CLINICIAN?",
        "type": "choice",
        "required": true,
        "repeats": false,
        "option": [ {
          "valueString": "caller refuses disposition, Selected: false"
        }, {
          "valueString": "multiple unrelated symptoms, Selected: false"
        }, {
          "valueString": "difficulty obtaining adequate information, Selected: false"
        }, {
          "valueString": "medication or medical procedure enquiry, Selected: false"
        }, {
          "valueString": "declared medical history (details not required), Selected: false"
        }, {
          "valueString": "other complex call (specify), Selected: true"
        } ]
      } ]
    }
  }, {
    "fullUrl": "urn:uuid:64af40d3-e16b-4b79-8f24-f032366137dc",
    "resource": {
      "resourceType": "QuestionnaireResponse",
      "id": "64af40d3-e16b-4b79-8f24-f032366137dc",
      "identifier": {
        "value": "8067b9b2-e604-4414-b56f-8e3cc4de4b1b"
      },
      "questionnaire": {
        "reference": "urn:uuid:1d29383c-6996-497f-be56-174c248b2a92"
      },
      "status": "completed",
      "subject": {
        "reference": "urn:uuid:61fd5259-dd89-4a11-b80e-f8ff52d9e024"
      },
      "context": {
        "reference": "urn:uuid:201c0671-b47e-4fae-9727-3990cde4808c"
      },
      "authored": "2011-02-17T17:31:14+00:00",
      "item": [ {
        "linkId": "N/A",
        "text": "Speak to Clinician from our Service immediately"
      } ]
    }
  }, {
    "fullUrl": "urn:uuid:1d29383c-6996-497f-be56-174c248b2a92",
    "resource": {
      "resourceType": "Questionnaire",
      "id": "1d29383c-6996-497f-be56-174c248b2a92",
      "identifier": [ {
        "value": "8067b9b2-e604-4414-b56f-8e3cc4de4b1b"
      } ],
      "version": "2011-02-17T17:31:14.313Z",
      "status": "active",
      "experimental": false,
      "date": "2011-02-17T17:31:14+00:00",
      "publisher": "User ID: '3137' User name: 'redacted' User skill set: 'T1'",
      "lastReviewDate": "2011-02-17",
      "jurisdiction": [ {
        "text": "England"
      } ],
      "contact": [ {
        "telecom": [ {
          "system": "phone",
          "value": "redacted"
        } ]
      } ],
      "subjectType": [ "Patient" ],
      "item": [ {
        "linkId": "8067b9b2-e604-4414-b56f-8e3cc4de4b1b",
        "prefix": "0",
        "text": "Speak to Clinician from our Service immediately",
        "type": "choice",
        "required": true,
        "repeats": false,
        "option": [ {
          "valueString": ", Selected: false"
        } ]
      } ]
    }
  }, {
    "fullUrl": "urn:uuid:02b527eb-f7e0-446d-b456-848607755d75",
    "resource": {
      "resourceType": "QuestionnaireResponse",
      "id": "02b527eb-f7e0-446d-b456-848607755d75",
      "identifier": {
        "value": "8067b9b2-e604-4414-b56f-8e3cc4de4b1b"
      },
      "questionnaire": {
        "reference": "urn:uuid:bb3507d4-cb9c-49c9-b4c6-2ad46014009c"
      },
      "status": "completed",
      "subject": {
        "reference": "urn:uuid:61fd5259-dd89-4a11-b80e-f8ff52d9e024"
      },
      "context": {
        "reference": "urn:uuid:201c0671-b47e-4fae-9727-3990cde4808c"
      },
      "authored": "2011-02-17T17:31:14+00:00",
      "item": [ {
        "linkId": "N/A"
      } ]
    }
  }, {
    "fullUrl": "urn:uuid:bb3507d4-cb9c-49c9-b4c6-2ad46014009c",
    "resource": {
      "resourceType": "Questionnaire",
      "id": "bb3507d4-cb9c-49c9-b4c6-2ad46014009c",
      "identifier": [ {
        "value": "8067b9b2-e604-4414-b56f-8e3cc4de4b1b"
      } ],
      "version": "2011-02-17T17:31:14.313Z",
      "status": "active",
      "experimental": false,
      "date": "2011-02-17T17:31:14+00:00",
      "publisher": "User ID: '3137' User name: 'redacted' User skill set: 'T1'",
      "lastReviewDate": "2011-02-17",
      "jurisdiction": [ {
        "text": "England"
      } ],
      "contact": [ {
        "telecom": [ {
          "system": "phone",
          "value": "redacted"
        } ]
      } ],
      "subjectType": [ "Patient" ],
      "item": [ {
        "linkId": "8067b9b2-e604-4414-b56f-8e3cc4de4b1b",
        "prefix": "0",
        "type": "choice",
        "required": true,
        "repeats": false,
        "option": [ {
          "valueString": ", Selected: false"
        } ]
      } ]
    }
  }, {
    "fullUrl": "urn:uuid:47ff8c90-0869-403d-927e-8ef6f44d3ebc",
    "resource": {
      "resourceType": "QuestionnaireResponse",
      "id": "47ff8c90-0869-403d-927e-8ef6f44d3ebc",
      "identifier": {
        "value": "8067b9b2-e604-4414-b56f-8e3cc4de4b1b"
      },
      "questionnaire": {
        "reference": "urn:uuid:fb3ec9a6-304c-4238-a5ed-5b4092e04451"
      },
      "status": "completed",
      "subject": {
        "reference": "urn:uuid:61fd5259-dd89-4a11-b80e-f8ff52d9e024"
      },
      "context": {
        "reference": "urn:uuid:201c0671-b47e-4fae-9727-3990cde4808c"
      },
      "authored": "2011-02-17T17:31:14+00:00",
      "item": [ {
        "linkId": "N/A"
      } ]
    }
  }, {
    "fullUrl": "urn:uuid:fb3ec9a6-304c-4238-a5ed-5b4092e04451",
    "resource": {
      "resourceType": "Questionnaire",
      "id": "fb3ec9a6-304c-4238-a5ed-5b4092e04451",
      "identifier": [ {
        "value": "8067b9b2-e604-4414-b56f-8e3cc4de4b1b"
      } ],
      "version": "2011-02-17T17:31:14.313Z",
      "status": "active",
      "experimental": false,
      "date": "2011-02-17T17:31:14+00:00",
      "publisher": "User ID: '3137' User name: 'redacted' User skill set: 'T1'",
      "lastReviewDate": "2011-02-17",
      "jurisdiction": [ {
        "text": "England"
      } ],
      "contact": [ {
        "telecom": [ {
          "system": "phone",
          "value": "redacted"
        } ]
      } ],
      "subjectType": [ "Patient" ],
      "item": [ {
        "linkId": "8067b9b2-e604-4414-b56f-8e3cc4de4b1b",
        "prefix": "0",
        "type": "choice",
        "required": true,
        "repeats": false,
        "option": [ {
          "valueString": ", Selected: false"
        } ]
      } ]
    }
  }, {
    "fullUrl": "urn:uuid:028e6203-136c-4337-80bc-71fed6eed467",
    "resource": {
      "resourceType": "QuestionnaireResponse",
      "id": "028e6203-136c-4337-80bc-71fed6eed467",
      "identifier": {
        "value": "8067b9b2-e604-4414-b56f-8e3cc4de4b1b"
      },
      "questionnaire": {
        "reference": "urn:uuid:1631a21d-d911-4416-bec7-633e5505e5d8"
      },
      "status": "completed",
      "subject": {
        "reference": "urn:uuid:61fd5259-dd89-4a11-b80e-f8ff52d9e024"
      },
      "context": {
        "reference": "urn:uuid:201c0671-b47e-4fae-9727-3990cde4808c"
      },
      "authored": "2011-02-17T17:31:14+00:00",
      "item": [ {
        "linkId": "Tx220109",
        "text": "What is the reason for the call?",
        "answer": [ {
          "valueString": "an injury or other health problem"
        } ]
      } ]
    }
  }, {
    "fullUrl": "urn:uuid:1631a21d-d911-4416-bec7-633e5505e5d8",
    "resource": {
      "resourceType": "Questionnaire",
      "id": "1631a21d-d911-4416-bec7-633e5505e5d8",
      "identifier": [ {
        "value": "8067b9b2-e604-4414-b56f-8e3cc4de4b1b"
      } ],
      "version": "2011-02-17T17:31:14.313Z",
      "status": "active",
      "experimental": false,
      "date": "2011-02-17T17:31:14+00:00",
      "publisher": "User ID: '3137' User name: 'redacted' User skill set: 'T1'",
      "lastReviewDate": "2011-02-17",
      "jurisdiction": [ {
        "text": "England"
      } ],
      "contact": [ {
        "telecom": [ {
          "system": "phone",
          "value": "redacted"
        } ]
      } ],
      "subjectType": [ "Patient" ],
      "item": [ {
        "linkId": "8067b9b2-e604-4414-b56f-8e3cc4de4b1b",
        "prefix": "5",
        "text": "What is the reason for the call?",
        "type": "choice",
        "required": true,
        "repeats": false,
        "option": [ {
          "valueString": "an injury or other health problem, Selected: true"
        }, {
          "valueString": "a need to access another healthcare provider, Selected: false"
        }, {
          "valueString": "a healthcare professional requesting contact with another clinician, Selected: false"
        }, {
          "valueString": "a report of results or tests, Selected: false"
        }, {
          "valueString": "more, Selected: false"
        } ]
      } ]
    }
  }, {
    "fullUrl": "urn:uuid:92c9f8b2-d1d4-4c83-b4f6-c775ea401df2",
    "resource": {
      "resourceType": "QuestionnaireResponse",
      "id": "92c9f8b2-d1d4-4c83-b4f6-c775ea401df2",
      "identifier": {
        "value": "8067b9b2-e604-4414-b56f-8e3cc4de4b1b"
      },
      "questionnaire": {
        "reference": "urn:uuid:521a4d62-1701-4a08-8e27-14eb66a6d11f"
      },
      "status": "completed",
      "subject": {
        "reference": "urn:uuid:61fd5259-dd89-4a11-b80e-f8ff52d9e024"
      },
      "context": {
        "reference": "urn:uuid:201c0671-b47e-4fae-9727-3990cde4808c"
      },
      "authored": "2011-02-17T17:31:14+00:00",
      "item": [ {
        "linkId": "Tx140118",
        "text": "Has the baby just been born?",
        "answer": [ {
          "valueString": "no"
        } ]
      } ]
    }
  }, {
    "fullUrl": "urn:uuid:521a4d62-1701-4a08-8e27-14eb66a6d11f",
    "resource": {
      "resourceType": "Questionnaire",
      "id": "521a4d62-1701-4a08-8e27-14eb66a6d11f",
      "identifier": [ {
        "value": "8067b9b2-e604-4414-b56f-8e3cc4de4b1b"
      } ],
      "version": "2011-02-17T17:31:14.313Z",
      "status": "active",
      "experimental": false,
      "date": "2011-02-17T17:31:14+00:00",
      "publisher": "User ID: '3137' User name: 'redacted' User skill set: 'T1'",
      "lastReviewDate": "2011-02-17",
      "jurisdiction": [ {
        "text": "England"
      } ],
      "contact": [ {
        "telecom": [ {
          "system": "phone",
          "value": "redacted"
        } ]
      } ],
      "subjectType": [ "Patient" ],
      "item": [ {
        "linkId": "8067b9b2-e604-4414-b56f-8e3cc4de4b1b",
        "prefix": "35",
        "text": "Has the baby just been born?",
        "type": "choice",
        "required": true,
        "repeats": false,
        "option": [ {
          "valueString": "yes, Selected: false"
        }, {
          "valueString": "not sure, Selected: false"
        }, {
          "valueString": "no, Selected: true"
        } ]
      } ]
    }
  }, {
    "fullUrl": "urn:uuid:adf58afc-9371-4214-911d-5a76abc96f6e",
    "resource": {
      "resourceType": "QuestionnaireResponse",
      "id": "adf58afc-9371-4214-911d-5a76abc96f6e",
      "identifier": {
        "value": "8067b9b2-e604-4414-b56f-8e3cc4de4b1b"
      },
      "questionnaire": {
        "reference": "urn:uuid:5bb4b16a-a053-45a2-9df2-8227dd1e088d"
      },
      "status": "completed",
      "subject": {
        "reference": "urn:uuid:61fd5259-dd89-4a11-b80e-f8ff52d9e024"
      },
      "context": {
        "reference": "urn:uuid:201c0671-b47e-4fae-9727-3990cde4808c"
      },
      "authored": "2011-02-17T17:31:14+00:00",
      "item": [ {
        "linkId": "Tx220110",
        "text": "Is he breathing and conscious?",
        "answer": [ {
          "valueString": "breathing AND conscious"
        } ]
      } ]
    }
  }, {
    "fullUrl": "urn:uuid:5bb4b16a-a053-45a2-9df2-8227dd1e088d",
    "resource": {
      "resourceType": "Questionnaire",
      "id": "5bb4b16a-a053-45a2-9df2-8227dd1e088d",
      "identifier": [ {
        "value": "8067b9b2-e604-4414-b56f-8e3cc4de4b1b"
      } ],
      "version": "2011-02-17T17:31:14.313Z",
      "status": "active",
      "experimental": false,
      "date": "2011-02-17T17:31:14+00:00",
      "publisher": "User ID: '3137' User name: 'redacted' User skill set: 'T1'",
      "lastReviewDate": "2011-02-17",
      "jurisdiction": [ {
        "text": "England"
      } ],
      "contact": [ {
        "telecom": [ {
          "system": "phone",
          "value": "redacted"
        } ]
      } ],
      "subjectType": [ "Patient" ],
      "item": [ {
        "linkId": "8067b9b2-e604-4414-b56f-8e3cc4de4b1b",
        "prefix": "40",
        "text": "Is he breathing and conscious?",
        "type": "choice",
        "required": true,
        "repeats": false,
        "option": [ {
          "valueString": "breathing AND conscious, Selected: true"
        }, {
          "valueString": "breathing but NOT conscious (includes current fitting), Selected: false"
        }, {
          "valueString": "NOT breathing, Selected: false"
        }, {
          "valueString": "choking now, Selected: false"
        } ]
      } ]
    }
  }, {
    "fullUrl": "urn:uuid:f3f3f8b1-9001-42c6-84d9-583a3b01ff5a",
    "resource": {
      "resourceType": "QuestionnaireResponse",
      "id": "f3f3f8b1-9001-42c6-84d9-583a3b01ff5a",
      "identifier": {
        "value": "8067b9b2-e604-4414-b56f-8e3cc4de4b1b"
      },
      "questionnaire": {
        "reference": "urn:uuid:53d7942c-ef63-4a39-96b2-4238948ecc8c"
      },
      "status": "completed",
      "subject": {
        "reference": "urn:uuid:61fd5259-dd89-4a11-b80e-f8ff52d9e024"
      },
      "context": {
        "reference": "urn:uuid:201c0671-b47e-4fae-9727-3990cde4808c"
      },
      "authored": "2011-02-17T17:31:14+00:00",
      "item": [ {
        "linkId": "Tx220285",
        "text": "Has he been bleeding very heavily IN THE LAST HOUR?",
        "answer": [ {
          "valueString": "an egg cupful or more from a wound"
        } ]
      } ]
    }
  }, {
    "fullUrl": "urn:uuid:53d7942c-ef63-4a39-96b2-4238948ecc8c",
    "resource": {
      "resourceType": "Questionnaire",
      "id": "53d7942c-ef63-4a39-96b2-4238948ecc8c",
      "identifier": [ {
        "value": "8067b9b2-e604-4414-b56f-8e3cc4de4b1b"
      } ],
      "version": "2011-02-17T17:31:14.313Z",
      "status": "active",
      "experimental": false,
      "date": "2011-02-17T17:31:14+00:00",
      "publisher": "User ID: '3137' User name: 'redacted' User skill set: 'T1'",
      "lastReviewDate": "2011-02-17",
      "jurisdiction": [ {
        "text": "England"
      } ],
      "contact": [ {
        "telecom": [ {
          "system": "phone",
          "value": "redacted"
        } ]
      } ],
      "subjectType": [ "Patient" ],
      "item": [ {
        "linkId": "8067b9b2-e604-4414-b56f-8e3cc4de4b1b",
        "prefix": "60",
        "text": "Has he been bleeding very heavily IN THE LAST HOUR?",
        "type": "choice",
        "required": true,
        "repeats": false,
        "option": [ {
          "valueString": "blood spurting from a wound, Selected: false"
        }, {
          "valueString": "an egg cupful or more of red blood from a body opening, Selected: false"
        }, {
          "valueString": "an egg cupful or more from a wound, Selected: true"
        }, {
          "valueString": "not sure, Selected: false"
        }, {
          "valueString": "no, Selected: false"
        } ]
      } ]
    }
  }, {
    "fullUrl": "urn:uuid:e6a62f1a-7bab-4ead-a394-4eae0da79f1f",
    "resource": {
      "resourceType": "QuestionnaireResponse",
      "id": "e6a62f1a-7bab-4ead-a394-4eae0da79f1f",
      "identifier": {
        "value": "8067b9b2-e604-4414-b56f-8e3cc4de4b1b"
      },
      "questionnaire": {
        "reference": "urn:uuid:b6a1528e-8484-48e0-bbb4-8dd7ede3a2e6"
      },
      "status": "completed",
      "subject": {
        "reference": "urn:uuid:61fd5259-dd89-4a11-b80e-f8ff52d9e024"
      },
      "context": {
        "reference": "urn:uuid:201c0671-b47e-4fae-9727-3990cde4808c"
      },
      "authored": "2011-02-17T17:31:14+00:00",
      "item": [ {
        "linkId": "Tx140109",
        "text": "Is he fighting desperately for every breath?",
        "answer": [ {
          "valueString": "no"
        } ]
      } ]
    }
  }, {
    "fullUrl": "urn:uuid:b6a1528e-8484-48e0-bbb4-8dd7ede3a2e6",
    "resource": {
      "resourceType": "Questionnaire",
      "id": "b6a1528e-8484-48e0-bbb4-8dd7ede3a2e6",
      "identifier": [ {
        "value": "8067b9b2-e604-4414-b56f-8e3cc4de4b1b"
      } ],
      "version": "2011-02-17T17:31:14.313Z",
      "status": "active",
      "experimental": false,
      "date": "2011-02-17T17:31:14+00:00",
      "publisher": "User ID: '3137' User name: 'redacted' User skill set: 'T1'",
      "lastReviewDate": "2011-02-17",
      "jurisdiction": [ {
        "text": "England"
      } ],
      "contact": [ {
        "telecom": [ {
          "system": "phone",
          "value": "redacted"
        } ]
      } ],
      "subjectType": [ "Patient" ],
      "item": [ {
        "linkId": "8067b9b2-e604-4414-b56f-8e3cc4de4b1b",
        "prefix": "20000",
        "text": "Is he fighting desperately for every breath?",
        "type": "choice",
        "required": true,
        "repeats": false,
        "option": [ {
          "valueString": "yes, Selected: false"
        }, {
          "valueString": "not sure, Selected: false"
        }, {
          "valueString": "no, Selected: true"
        } ]
      } ]
    }
  }, {
    "fullUrl": "urn:uuid:8db42138-2deb-40f6-a511-62699029fd01",
    "resource": {
      "resourceType": "QuestionnaireResponse",
      "id": "8db42138-2deb-40f6-a511-62699029fd01",
      "identifier": {
        "value": "8067b9b2-e604-4414-b56f-8e3cc4de4b1b"
      },
      "questionnaire": {
        "reference": "urn:uuid:f1527c6b-34a9-4113-a51e-2dc00af661cf"
      },
      "status": "completed",
      "subject": {
        "reference": "urn:uuid:61fd5259-dd89-4a11-b80e-f8ff52d9e024"
      },
      "context": {
        "reference": "urn:uuid:201c0671-b47e-4fae-9727-3990cde4808c"
      },
      "authored": "2011-02-17T17:31:14+00:00",
      "item": [ {
        "linkId": "Tx220563",
        "text": "Is he limp, floppy and/or unresponsive?",
        "answer": [ {
          "valueString": "no"
        } ]
      } ]
    }
  }, {
    "fullUrl": "urn:uuid:f1527c6b-34a9-4113-a51e-2dc00af661cf",
    "resource": {
      "resourceType": "Questionnaire",
      "id": "f1527c6b-34a9-4113-a51e-2dc00af661cf",
      "identifier": [ {
        "value": "8067b9b2-e604-4414-b56f-8e3cc4de4b1b"
      } ],
      "version": "2011-02-17T17:31:14.313Z",
      "status": "active",
      "experimental": false,
      "date": "2011-02-17T17:31:14+00:00",
      "publisher": "User ID: '3137' User name: 'redacted' User skill set: 'T1'",
      "lastReviewDate": "2011-02-17",
      "jurisdiction": [ {
        "text": "England"
      } ],
      "contact": [ {
        "telecom": [ {
          "system": "phone",
          "value": "redacted"
        } ]
      } ],
      "subjectType": [ "Patient" ],
      "item": [ {
        "linkId": "8067b9b2-e604-4414-b56f-8e3cc4de4b1b",
        "prefix": "20400",
        "text": "Is he limp, floppy and/or unresponsive?",
        "type": "choice",
        "required": true,
        "repeats": false,
        "option": [ {
          "valueString": "yes, Selected: false"
        }, {
          "valueString": "not sure, Selected: false"
        }, {
          "valueString": "no, Selected: true"
        } ]
      } ]
    }
  }, {
    "fullUrl": "urn:uuid:0479ee90-624a-4132-a8c4-889541e03360",
    "resource": {
      "resourceType": "QuestionnaireResponse",
      "id": "0479ee90-624a-4132-a8c4-889541e03360",
      "identifier": {
        "value": "8067b9b2-e604-4414-b56f-8e3cc4de4b1b"
      },
      "questionnaire": {
        "reference": "urn:uuid:00ae9d66-56b1-4dd5-8187-34c4ff992b92"
      },
      "status": "completed",
      "subject": {
        "reference": "urn:uuid:61fd5259-dd89-4a11-b80e-f8ff52d9e024"
      },
      "context": {
        "reference": "urn:uuid:201c0671-b47e-4fae-9727-3990cde4808c"
      },
      "authored": "2011-02-17T17:31:14+00:00",
      "item": [ {
        "linkId": "Tx220561",
        "text": "Is he warm to touch?",
        "answer": [ {
          "valueString": "yes"
        } ]
      } ]
    }
  }, {
    "fullUrl": "urn:uuid:00ae9d66-56b1-4dd5-8187-34c4ff992b92",
    "resource": {
      "resourceType": "Questionnaire",
      "id": "00ae9d66-56b1-4dd5-8187-34c4ff992b92",
      "identifier": [ {
        "value": "8067b9b2-e604-4414-b56f-8e3cc4de4b1b"
      } ],
      "version": "2011-02-17T17:31:14.313Z",
      "status": "active",
      "experimental": false,
      "date": "2011-02-17T17:31:14+00:00",
      "publisher": "User ID: '3137' User name: 'redacted' User skill set: 'T1'",
      "lastReviewDate": "2011-02-17",
      "jurisdiction": [ {
        "text": "England"
      } ],
      "contact": [ {
        "telecom": [ {
          "system": "phone",
          "value": "redacted"
        } ]
      } ],
      "subjectType": [ "Patient" ],
      "item": [ {
        "linkId": "8067b9b2-e604-4414-b56f-8e3cc4de4b1b",
        "prefix": "20450",
        "text": "Is he warm to touch?",
        "type": "choice",
        "required": true,
        "repeats": false,
        "option": [ {
          "valueString": "yes, Selected: true"
        }, {
          "valueString": "not sure, Selected: false"
        }, {
          "valueString": "no, Selected: false"
        }, {
          "valueString": "not safe to touch, Selected: false"
        } ]
      } ]
    }
  }, {
    "fullUrl": "urn:uuid:497521ed-e920-434a-b1d8-ed01e2563d6a",
    "resource": {
      "resourceType": "QuestionnaireResponse",
      "id": "497521ed-e920-434a-b1d8-ed01e2563d6a",
      "identifier": {
        "value": "8067b9b2-e604-4414-b56f-8e3cc4de4b1b"
      },
      "questionnaire": {
        "reference": "urn:uuid:553326f0-819e-433e-a51d-55c5b0476df2"
      },
      "status": "completed",
      "subject": {
        "reference": "urn:uuid:61fd5259-dd89-4a11-b80e-f8ff52d9e024"
      },
      "context": {
        "reference": "urn:uuid:201c0671-b47e-4fae-9727-3990cde4808c"
      },
      "authored": "2011-02-17T17:31:14+00:00",
      "item": [ {
        "linkId": "Tx120019",
        "text": "Was the injury caused by any of the following?",
        "answer": [ {
          "valueString": "no"
        } ]
      } ]
    }
  }, {
    "fullUrl": "urn:uuid:553326f0-819e-433e-a51d-55c5b0476df2",
    "resource": {
      "resourceType": "Questionnaire",
      "id": "553326f0-819e-433e-a51d-55c5b0476df2",
      "identifier": [ {
        "value": "8067b9b2-e604-4414-b56f-8e3cc4de4b1b"
      } ],
      "version": "2011-02-17T17:31:14.313Z",
      "status": "active",
      "experimental": false,
      "date": "2011-02-17T17:31:14+00:00",
      "publisher": "User ID: '3137' User name: 'redacted' User skill set: 'T1'",
      "lastReviewDate": "2011-02-17",
      "jurisdiction": [ {
        "text": "England"
      } ],
      "contact": [ {
        "telecom": [ {
          "system": "phone",
          "value": "redacted"
        } ]
      } ],
      "subjectType": [ "Patient" ],
      "item": [ {
        "linkId": "8067b9b2-e604-4414-b56f-8e3cc4de4b1b",
        "prefix": "20800",
        "text": "Was the injury caused by any of the following?",
        "type": "choice",
        "required": true,
        "repeats": false,
        "option": [ {
          "valueString": "a gunshot, Selected: false"
        }, {
          "valueString": "a stabbing, Selected: false"
        }, {
          "valueString": "being ejected from a vehicle, Selected: false"
        }, {
          "valueString": "not sure, Selected: false"
        }, {
          "valueString": "no, Selected: true"
        } ]
      } ]
    }
  }, {
    "fullUrl": "urn:uuid:fcf58c38-37e8-4133-8fbf-626d79c8a05c",
    "resource": {
      "resourceType": "QuestionnaireResponse",
      "id": "fcf58c38-37e8-4133-8fbf-626d79c8a05c",
      "identifier": {
        "value": "8067b9b2-e604-4414-b56f-8e3cc4de4b1b"
      },
      "questionnaire": {
        "reference": "urn:uuid:9539f2dc-2a88-4d87-8235-3dbb5620ac65"
      },
      "status": "completed",
      "subject": {
        "reference": "urn:uuid:61fd5259-dd89-4a11-b80e-f8ff52d9e024"
      },
      "context": {
        "reference": "urn:uuid:201c0671-b47e-4fae-9727-3990cde4808c"
      },
      "authored": "2011-02-17T17:31:14+00:00",
      "item": [ {
        "linkId": "Tx220286",
        "text": "DID THE INJURY INVOLVE ANY OF THE FOLLOWING?",
        "answer": [ {
          "valueString": "no"
        } ]
      } ]
    }
  }, {
    "fullUrl": "urn:uuid:9539f2dc-2a88-4d87-8235-3dbb5620ac65",
    "resource": {
      "resourceType": "Questionnaire",
      "id": "9539f2dc-2a88-4d87-8235-3dbb5620ac65",
      "identifier": [ {
        "value": "8067b9b2-e604-4414-b56f-8e3cc4de4b1b"
      } ],
      "version": "2011-02-17T17:31:14.313Z",
      "status": "active",
      "experimental": false,
      "date": "2011-02-17T17:31:14+00:00",
      "publisher": "User ID: '3137' User name: 'redacted' User skill set: 'T1'",
      "lastReviewDate": "2011-02-17",
      "jurisdiction": [ {
        "text": "England"
      } ],
      "contact": [ {
        "telecom": [ {
          "system": "phone",
          "value": "redacted"
        } ]
      } ],
      "subjectType": [ "Patient" ],
      "item": [ {
        "linkId": "8067b9b2-e604-4414-b56f-8e3cc4de4b1b",
        "prefix": "23100",
        "text": "DID THE INJURY INVOLVE ANY OF THE FOLLOWING?",
        "type": "choice",
        "required": true,
        "repeats": false,
        "option": [ {
          "valueString": "a fall of 5 metres or more (specify), Selected: false"
        }, {
          "valueString": "multiple major injuries (specify), Selected: false"
        }, {
          "valueString": "major wound or amputation - not just involving a single finger or toe (specify), Selected: false"
        }, {
          "valueString": "being knocked over by a blast (specify), Selected: false"
        }, {
          "valueString": "not sure, Selected: false"
        }, {
          "valueString": "no, Selected: true"
        } ]
      } ]
    }
  }, {
    "fullUrl": "urn:uuid:b12a3645-c31c-4a7f-9f17-5359cbdf78a5",
    "resource": {
      "resourceType": "QuestionnaireResponse",
      "id": "b12a3645-c31c-4a7f-9f17-5359cbdf78a5",
      "identifier": {
        "value": "8067b9b2-e604-4414-b56f-8e3cc4de4b1b"
      },
      "questionnaire": {
        "reference": "urn:uuid:77c564f1-ecf0-4396-af6d-6bdc7583f2a0"
      },
      "status": "completed",
      "subject": {
        "reference": "urn:uuid:61fd5259-dd89-4a11-b80e-f8ff52d9e024"
      },
      "context": {
        "reference": "urn:uuid:201c0671-b47e-4fae-9727-3990cde4808c"
      },
      "authored": "2011-02-17T17:31:14+00:00",
      "item": [ {
        "linkId": "Tx140159",
        "text": "What is the reason for ending the assessment?",
        "answer": [ {
          "valueString": "transfer to a clinician"
        } ]
      } ]
    }
  }, {
    "fullUrl": "urn:uuid:77c564f1-ecf0-4396-af6d-6bdc7583f2a0",
    "resource": {
      "resourceType": "Questionnaire",
      "id": "77c564f1-ecf0-4396-af6d-6bdc7583f2a0",
      "identifier": [ {
        "value": "8067b9b2-e604-4414-b56f-8e3cc4de4b1b"
      } ],
      "version": "2011-02-17T17:31:14.313Z",
      "status": "active",
      "experimental": false,
      "date": "2011-02-17T17:31:14+00:00",
      "publisher": "User ID: '3137' User name: 'redacted' User skill set: 'T1'",
      "lastReviewDate": "2011-02-17",
      "jurisdiction": [ {
        "text": "England"
      } ],
      "contact": [ {
        "telecom": [ {
          "system": "phone",
          "value": "redacted"
        } ]
      } ],
      "subjectType": [ "Patient" ],
      "item": [ {
        "linkId": "8067b9b2-e604-4414-b56f-8e3cc4de4b1b",
        "prefix": "0",
        "text": "What is the reason for ending the assessment?",
        "type": "choice",
        "required": true,
        "repeats": false,
        "option": [ {
          "valueString": "the phone line went dead, Selected: false"
        }, {
          "valueString": "the caller terminated the call (specify), Selected: false"
        }, {
          "valueString": "I terminated the call (specify), Selected: false"
        }, {
          "valueString": "triage not possible, Selected: false"
        }, {
          "valueString": "transfer to a clinician, Selected: true"
        } ]
      } ]
    }
  }, {
    "fullUrl": "urn:uuid:3c1fd117-94e6-4fa4-a5a6-2043cb682468",
    "resource": {
      "resourceType": "QuestionnaireResponse",
      "id": "3c1fd117-94e6-4fa4-a5a6-2043cb682468",
      "identifier": {
        "value": "8067b9b2-e604-4414-b56f-8e3cc4de4b1b"
      },
      "questionnaire": {
        "reference": "urn:uuid:4c708736-89b3-44ed-be47-31db96221318"
      },
      "status": "completed",
      "subject": {
        "reference": "urn:uuid:61fd5259-dd89-4a11-b80e-f8ff52d9e024"
      },
      "context": {
        "reference": "urn:uuid:201c0671-b47e-4fae-9727-3990cde4808c"
      },
      "authored": "2011-02-17T17:31:14+00:00",
      "item": [ {
        "linkId": "Tx220286",
        "text": "DID THE INJURY INVOLVE ANY OF THE FOLLOWING?",
        "answer": [ {
          "valueString": "no"
        } ]
      } ]
    }
  }, {
    "fullUrl": "urn:uuid:4c708736-89b3-44ed-be47-31db96221318",
    "resource": {
      "resourceType": "Questionnaire",
      "id": "4c708736-89b3-44ed-be47-31db96221318",
      "identifier": [ {
        "value": "8067b9b2-e604-4414-b56f-8e3cc4de4b1b"
      } ],
      "version": "2011-02-17T17:31:14.313Z",
      "status": "active",
      "experimental": false,
      "date": "2011-02-17T17:31:14+00:00",
      "publisher": "User ID: '3137' User name: 'redacted' User skill set: 'T1'",
      "lastReviewDate": "2011-02-17",
      "jurisdiction": [ {
        "text": "England"
      } ],
      "contact": [ {
        "telecom": [ {
          "system": "phone",
          "value": "redacted"
        } ]
      } ],
      "subjectType": [ "Patient" ],
      "item": [ {
        "linkId": "8067b9b2-e604-4414-b56f-8e3cc4de4b1b",
        "prefix": "23100",
        "text": "DID THE INJURY INVOLVE ANY OF THE FOLLOWING?",
        "type": "choice",
        "required": true,
        "repeats": false,
        "option": [ {
          "valueString": "a fall of 5 metres or more (specify), Selected: false"
        }, {
          "valueString": "multiple major injuries (specify), Selected: false"
        }, {
          "valueString": "major wound or amputation - not just involving a single finger or toe (specify), Selected: false"
        }, {
          "valueString": "being knocked over by a blast (specify), Selected: false"
        }, {
          "valueString": "not sure, Selected: false"
        }, {
          "valueString": "no, Selected: true"
        } ]
      } ]
    }
  }, {
    "fullUrl": "urn:uuid:fd9f4207-1be5-479e-aaa6-0819a422434a",
    "resource": {
      "resourceType": "QuestionnaireResponse",
      "id": "fd9f4207-1be5-479e-aaa6-0819a422434a",
      "identifier": {
        "value": "8067b9b2-e604-4414-b56f-8e3cc4de4b1b"
      },
      "questionnaire": {
        "reference": "urn:uuid:d2658e26-a08a-4177-b21f-38709d4c724c"
      },
      "status": "completed",
      "subject": {
        "reference": "urn:uuid:61fd5259-dd89-4a11-b80e-f8ff52d9e024"
      },
      "context": {
        "reference": "urn:uuid:201c0671-b47e-4fae-9727-3990cde4808c"
      },
      "authored": "2011-02-17T17:31:14+00:00",
      "item": [ {
        "linkId": "N/A",
        "text": "Dispatch 19 minute ambulance"
      } ]
    }
  }, {
    "fullUrl": "urn:uuid:d2658e26-a08a-4177-b21f-38709d4c724c",
    "resource": {
      "resourceType": "Questionnaire",
      "id": "d2658e26-a08a-4177-b21f-38709d4c724c",
      "identifier": [ {
        "value": "8067b9b2-e604-4414-b56f-8e3cc4de4b1b"
      } ],
      "version": "2011-02-17T17:31:14.313Z",
      "status": "active",
      "experimental": false,
      "date": "2011-02-17T17:31:14+00:00",
      "publisher": "User ID: '3137' User name: 'redacted' User skill set: 'T1'",
      "lastReviewDate": "2011-02-17",
      "jurisdiction": [ {
        "text": "England"
      } ],
      "contact": [ {
        "telecom": [ {
          "system": "phone",
          "value": "redacted"
        } ]
      } ],
      "subjectType": [ "Patient" ],
      "item": [ {
        "linkId": "8067b9b2-e604-4414-b56f-8e3cc4de4b1b",
        "prefix": "24100",
        "text": "Dispatch 19 minute ambulance",
        "type": "choice",
        "required": true,
        "repeats": false,
        "option": [ {
          "valueString": ", Selected: false"
        } ]
      } ]
    }
  }, {
    "fullUrl": "urn:uuid:f005eb78-1214-4183-a31a-e41dc4f1872f",
    "resource": {
      "resourceType": "PractitionerRole",
      "id": "f005eb78-1214-4183-a31a-e41dc4f1872f",
      "practitioner": {
        "reference": "urn:uuid:b85238a5-defd-42a8-9235-c41a5ed42498"
      },
      "organization": {
        "reference": "urn:uuid:1ea26be1-1394-4f67-8529-bac5351bd97e"
      },
      "code": [ {
        "coding": [ {
          "system": "2.16.840.1.113883.2.1.3.2.4.17.196",
          "code": "T1",
          "display": "Nurse Triage Practitioner"
        } ]
      } ]
    }
  }, {
    "fullUrl": "urn:uuid:1ea26be1-1394-4f67-8529-bac5351bd97e",
    "resource": {
      "resourceType": "Organization",
      "id": "1ea26be1-1394-4f67-8529-bac5351bd97e",
      "identifier": [ {
        "value": "5L399"
      } ],
      "name": "Medway NHS Foundation Trust"
    }
  }, {
    "fullUrl": "urn:uuid:d730e265-b583-4884-9302-582271516d0c",
    "resource": {
      "resourceType": "PractitionerRole",
      "id": "d730e265-b583-4884-9302-582271516d0c",
      "practitioner": {
        "reference": "urn:uuid:df35adc2-c609-4222-8061-9cb1b5dd67d0"
      },
      "organization": {
        "reference": "urn:uuid:50c9923a-0e5c-425d-b3b1-d9063b78b08f"
      },
      "code": [ {
        "coding": [ {
          "system": "2.16.840.1.113883.2.1.3.2.4.17.196",
          "code": "R0010",
          "display": "Medical Director"
        } ]
      } ]
    }
  }, {
    "fullUrl": "urn:uuid:50c9923a-0e5c-425d-b3b1-d9063b78b08f",
    "resource": {
      "resourceType": "Organization",
      "id": "50c9923a-0e5c-425d-b3b1-d9063b78b08f",
      "identifier": [ {
        "value": "VDE232323"
      } ],
      "name": "Medway South Out of Hours Centre"
    }
  }, {
    "fullUrl": "urn:uuid:321d43bb-9a34-49a5-b02d-c4840a262f64",
    "resource": {
      "resourceType": "Device",
      "id": "321d43bb-9a34-49a5-b02d-c4840a262f64",
      "model": "111 Adaptor",
      "version": "1.0.1"
    }
  }, {
    "fullUrl": "urn:uuid:4699f3f5-a6c7-4a4c-a875-099016edd4c4",
    "resource": {
      "resourceType": "List",
      "id": "4699f3f5-a6c7-4a4c-a875-099016edd4c4",
      "status": "current",
      "mode": "working",
      "title": "111 Report List",
      "code": {
        "coding": [ {
          "system": "http://snomed.info/sct",
          "code": "225390008",
          "display": "Triage"
        } ]
      },
      "subject": {
        "reference": "urn:uuid:61fd5259-dd89-4a11-b80e-f8ff52d9e024"
      },
      "encounter": {
        "reference": "urn:uuid:201c0671-b47e-4fae-9727-3990cde4808c"
      },
      "date": "2017-01-01T20:00:00+00:00",
      "source": {
        "reference": "urn:uuid:321d43bb-9a34-49a5-b02d-c4840a262f64"
      },
      "orderedBy": {
        "coding": [ {
          "system": "http://hl7.org/fhir/list-order",
          "code": "event-date",
          "display": "Sorted by Event Date"
        } ]
      },
      "entry": [ {
        "item": {
          "reference": "urn:uuid:1ea26be1-1394-4f67-8529-bac5351bd97e"
        }
      }, {
        "item": {
          "reference": "urn:uuid:0a6fb8d3-c480-4408-bd8d-9725e7d44371"
        }
      }, {
        "item": {
          "reference": "urn:uuid:8e297e4b-8bfe-4967-a51e-8d66db644264"
        }
      }, {
        "item": {
          "reference": "urn:uuid:bccc6bf8-72b5-4ac3-b8d3-7582b81571d6"
        }
      }, {
        "item": {
          "reference": "urn:uuid:93eaf5d3-224f-4877-9794-ba36b258e250"
        }
      }, {
        "item": {
          "reference": "urn:uuid:df35adc2-c609-4222-8061-9cb1b5dd67d0"
        }
      }, {
        "item": {
          "reference": "urn:uuid:b85238a5-defd-42a8-9235-c41a5ed42498"
        }
      }, {
        "item": {
          "reference": "urn:uuid:9292f07d-94a3-4de6-94a0-94228ed4339c"
        }
      }, {
        "item": {
          "reference": "urn:uuid:abe7b949-23b5-44ef-a279-e90e39bcdb78"
        }
      }, {
        "item": {
          "reference": "urn:uuid:c5fca922-54f8-46b5-9c6e-6c8f5a7d3fd8"
        }
      }, {
        "item": {
          "reference": "urn:uuid:50c9923a-0e5c-425d-b3b1-d9063b78b08f"
        }
      }, {
        "item": {
          "reference": "urn:uuid:cbd572d8-3ca6-47a7-83cb-372f3e06cb67"
        }
      }, {
        "item": {
          "reference": "urn:uuid:1aa794e1-1c5b-436f-804c-534338a77e34"
        }
      }, {
        "item": {
          "reference": "urn:uuid:bfd9c6e5-ef43-4b99-bc01-650e34e43f4c"
        }
      }, {
        "item": {
          "reference": "urn:uuid:c01b15c0-004a-405c-9f00-f14641ca95f9"
        }
      }, {
        "item": {
          "reference": "urn:uuid:f3f3f8b1-9001-42c6-84d9-583a3b01ff5a"
        }
      }, {
        "item": {
          "reference": "urn:uuid:03ec882e-8634-4fbe-9b0a-572f52a2ed43"
        }
      }, {
        "item": {
          "reference": "urn:uuid:d2658e26-a08a-4177-b21f-38709d4c724c"
        }
      }, {
        "item": {
          "reference": "urn:uuid:553326f0-819e-433e-a51d-55c5b0476df2"
        }
      }, {
        "item": {
          "reference": "urn:uuid:64af40d3-e16b-4b79-8f24-f032366137dc"
        }
      }, {
        "item": {
          "reference": "urn:uuid:47ff8c90-0869-403d-927e-8ef6f44d3ebc"
        }
      }, {
        "item": {
          "reference": "urn:uuid:1dd59434-a7b3-47d1-a8ff-f6d0cdf7b76c"
        }
      }, {
        "item": {
          "reference": "urn:uuid:b6a1528e-8484-48e0-bbb4-8dd7ede3a2e6"
        }
      }, {
        "item": {
          "reference": "urn:uuid:53d7942c-ef63-4a39-96b2-4238948ecc8c"
        }
      }, {
        "item": {
          "reference": "urn:uuid:5c5e26a0-3e23-4493-9966-d1cb39be2d6d"
        }
      }, {
        "item": {
          "reference": "urn:uuid:5bb4b16a-a053-45a2-9df2-8227dd1e088d"
        }
      }, {
        "item": {
          "reference": "urn:uuid:8db42138-2deb-40f6-a511-62699029fd01"
        }
      }, {
        "item": {
          "reference": "urn:uuid:bb3507d4-cb9c-49c9-b4c6-2ad46014009c"
        }
      }, {
        "item": {
          "reference": "urn:uuid:4e67e262-96ce-4765-a7c4-a16553040364"
        }
      }, {
        "item": {
          "reference": "urn:uuid:5eca9298-1e28-43d7-9be1-31ab74e52f33"
        }
      }, {
        "item": {
          "reference": "urn:uuid:028e6203-136c-4337-80bc-71fed6eed467"
        }
      }, {
        "item": {
          "reference": "urn:uuid:882f12f1-bb92-45f0-96cd-c21b27df9960"
        }
      }, {
        "item": {
          "reference": "urn:uuid:497521ed-e920-434a-b1d8-ed01e2563d6a"
        }
      }, {
        "item": {
          "reference": "urn:uuid:fb3ec9a6-304c-4238-a5ed-5b4092e04451"
        }
      }, {
        "item": {
          "reference": "urn:uuid:0479ee90-624a-4132-a8c4-889541e03360"
        }
      }, {
        "item": {
          "reference": "urn:uuid:00ae9d66-56b1-4dd5-8187-34c4ff992b92"
        }
      }, {
        "item": {
          "reference": "urn:uuid:e6a62f1a-7bab-4ead-a394-4eae0da79f1f"
        }
      }, {
        "item": {
          "reference": "urn:uuid:958fc659-32b5-49f4-9496-c18f319a73ea"
        }
      }, {
        "item": {
          "reference": "urn:uuid:02b527eb-f7e0-446d-b456-848607755d75"
        }
      }, {
        "item": {
          "reference": "urn:uuid:44d6f8d1-1755-4214-9ba5-9e30f8e3efd4"
        }
      }, {
        "item": {
          "reference": "urn:uuid:77c564f1-ecf0-4396-af6d-6bdc7583f2a0"
        }
      }, {
        "item": {
          "reference": "urn:uuid:3c1fd117-94e6-4fa4-a5a6-2043cb682468"
        }
      }, {
        "item": {
          "reference": "urn:uuid:1631a21d-d911-4416-bec7-633e5505e5d8"
        }
      }, {
        "item": {
          "reference": "urn:uuid:b3c9aa4f-be94-4f8e-ae23-a8c7e9062c4c"
        }
      }, {
        "item": {
          "reference": "urn:uuid:4c708736-89b3-44ed-be47-31db96221318"
        }
      }, {
        "item": {
          "reference": "urn:uuid:92c9f8b2-d1d4-4c83-b4f6-c775ea401df2"
        }
      }, {
        "item": {
          "reference": "urn:uuid:d52eea90-f450-4ee0-b477-ed1a549ab686"
        }
      }, {
        "item": {
          "reference": "urn:uuid:8e9f00ad-1871-41b6-b3f6-04caf47b1677"
        }
      }, {
        "item": {
          "reference": "urn:uuid:93a636f1-0898-4a88-8853-0cd13fd9ba88"
        }
      }, {
        "item": {
          "reference": "urn:uuid:521a4d62-1701-4a08-8e27-14eb66a6d11f"
        }
      }, {
        "item": {
          "reference": "urn:uuid:9539f2dc-2a88-4d87-8235-3dbb5620ac65"
        }
      }, {
        "item": {
          "reference": "urn:uuid:9349155f-9638-4fd9-b529-f7f17fed291e"
        }
      }, {
        "item": {
          "reference": "urn:uuid:1d29383c-6996-497f-be56-174c248b2a92"
        }
      }, {
        "item": {
          "reference": "urn:uuid:adf58afc-9371-4214-911d-5a76abc96f6e"
        }
      }, {
        "item": {
          "reference": "urn:uuid:caa8e7cd-4932-469b-b081-4e5b9e4ad0ec"
        }
      }, {
        "item": {
          "reference": "urn:uuid:7f299db5-0e01-4804-97f0-0e6e7c7e54e5"
        }
      }, {
        "item": {
          "reference": "urn:uuid:fcf58c38-37e8-4133-8fbf-626d79c8a05c"
        }
      }, {
        "item": {
          "reference": "urn:uuid:f1527c6b-34a9-4113-a51e-2dc00af661cf"
        }
      }, {
        "item": {
          "reference": "urn:uuid:cfe3f729-ebe3-4c55-8b53-fea22facca55"
        }
      }, {
        "item": {
          "reference": "urn:uuid:fd9f4207-1be5-479e-aaa6-0819a422434a"
        }
      }, {
        "item": {
          "reference": "urn:uuid:f575391e-ead6-4d64-97ff-717e018d46ac"
        }
      }, {
        "item": {
          "reference": "urn:uuid:b12a3645-c31c-4a7f-9f17-5359cbdf78a5"
        }
      } ]
    }
  } ]
}