{
  "resourceType": "Bundle",
  "identifier": {
    "type": {
      "text": "ClinicalDocument VersionNumber"
    },
    "value": "2"
  },
  "type": "message",
  "entry": [ {
    "fullUrl": "urn:uuid:2B77B3F5-3016-4A6D-821F-152CE420E58D",
    "resource": {
      "resourceType": "MessageHeader",
      "id": "2B77B3F5-3016-4A6D-821F-152CE420E58D",
      "event": {
        "system": "https://fhir.nhs.uk/STU3/CodeSystem/EventType-1",
        "code": "referral-1",
        "display": "Referral"
      },
      "destination": [ {
        "endpoint": "urn:nhs-uk:addressing:ods:EM396"
      } ],
      "timestamp": "2017-01-01T20:00:00.000+00:00",
      "source": {
        "name": "NHS 111 Adaptor",
        "endpoint": "http://localhost:8080/report"
      },
      "reason": {
        "coding": [ {
          "system": "urn:nhs-itk:ns:201005:interaction",
          "code": "urn:nhs-itk:interaction:primaryEmergencyDepartmentRecipientNHS111CDADocument-v2-0"
        } ]
      }
    }
  }, {
    "fullUrl": "urn:uuid:d4eca483-e0b4-40f1-80c4-14e30c310c1b",
    "resource": {
      "resourceType": "Encounter",
      "id": "d4eca483-e0b4-40f1-80c4-14e30c310c1b",
      "identifier": [ {
        "system": "2.16.840.1.113883.2.1.3.2.4.18.49",
        "value": "LOC665"
      }, {
        "system": "2.16.840.1.113883.2.1.3.2.4.18.34",
        "value": "CASEREF1234"
      }, {
        "system": "2.16.840.1.113883.2.1.3.2.4.18.35",
        "value": "CASEID123"
      } ],
      "status": "finished",
      "type": [ {
        "text": "111 Encounter Referral"
      } ],
      "subject": {
        "reference": "urn:uuid:2b92416d-1292-4bd9-ba78-cbe02fcd1978"
      },
      "participant": [ {
        "type": [ {
          "text": "CALLBCK"
        } ],
        "individual": {
          "reference": "urn:uuid:cc3658a9-145b-49a5-a83f-7764f2124e3a"
        }
      }, {
        "type": [ {
          "coding": [ {
            "system": "http://hl7.org/fhir/ValueSet/encounter-participant-type",
            "code": "PPRF",
            "display": "Author"
          } ]
        } ],
        "individual": {
          "reference": "urn:uuid:73f7dacf-58fe-47a4-b956-634b55954ad7"
        }
      }, {
        "type": [ {
          "text": "Informant"
        } ],
        "individual": {
          "reference": "urn:uuid:acc99849-f298-42a7-933d-3be0a72fe663"
        }
      }, {
        "type": [ {
          "coding": [ {
            "system": "http://hl7.org/fhir/ValueSet/encounter-participant-type",
            "code": "ATND",
            "display": "Responsible Party"
          } ]
        } ],
        "individual": {
          "reference": "urn:uuid:501ecc35-a04a-48af-aedd-d722b9c9b4ae"
        }
      } ],
      "appointment": {
        "reference": "urn:uuid:b732b46b-17e5-4baf-958e-35c0d60b2c1d"
      },
      "period": {
        "start": "2017-01-01T20:00:00+00:00"
      },
      "location": [ {
        "location": {
          "reference": "urn:uuid:7b4ecd6d-4fbc-4fa1-a442-84bb92126a81"
        },
        "status": "active"
      }, {
        "location": {
          "reference": "urn:uuid:30607a60-e435-4105-b337-b31b5ff6b2c4"
        },
        "status": "completed"
      } ],
      "serviceProvider": {
        "reference": "urn:uuid:d86ce095-72e8-43ca-88b8-ae9f2835d52d"
      }
    }
  }, {
    "fullUrl": "urn:uuid:d86ce095-72e8-43ca-88b8-ae9f2835d52d",
    "resource": {
      "resourceType": "Organization",
      "id": "d86ce095-72e8-43ca-88b8-ae9f2835d52d",
      "active": true,
      "type": [ {
        "text": "CST"
      } ],
      "name": "Medway NHS Foundation Trust"
    }
  }, {
    "fullUrl": "urn:uuid:cc3658a9-145b-49a5-a83f-7764f2124e3a",
    "resource": {
      "resourceType": "Practitioner",
      "id": "cc3658a9-145b-49a5-a83f-7764f2124e3a",
      "active": true,
      "name": [ {
        "text": "Call Centre Manager"
      } ],
      "telecom": [ {
        "system": "phone",
        "value": "tel:08001111111"
      } ]
    }
  }, {
    "fullUrl": "urn:uuid:73f7dacf-58fe-47a4-b956-634b55954ad7",
    "resource": {
      "resourceType": "Practitioner",
      "id": "73f7dacf-58fe-47a4-b956-634b55954ad7",
      "active": true,
      "name": [ {
        "use": "official",
        "family": "Jones",
        "given": [ "Mary" ]
      } ]
    }
  }, {
    "fullUrl": "urn:uuid:acc99849-f298-42a7-933d-3be0a72fe663",
    "resource": {
      "resourceType": "RelatedPerson",
      "id": "acc99849-f298-42a7-933d-3be0a72fe663",
      "active": true,
      "patient": {
        "reference": "urn:uuid:2b92416d-1292-4bd9-ba78-cbe02fcd1978"
      },
      "relationship": {
        "coding": [ {
          "system": "2.16.840.1.113883.2.1.3.2.4.16.45",
          "code": "01",
          "display": "Spouse"
        } ]
      },
      "name": [ {
        "use": "official",
        "family": "Bloggs",
        "given": [ "Helga" ]
      } ],
      "telecom": [ {
        "system": "phone",
        "value": "tel:07886554123",
        "use": "mobile"
      }, {
        "system": "phone",
        "value": "tel:01783678321"
      } ],
      "gender": "unknown",
      "address": [ {
        "use": "home",
        "line": [ "43 Summers Avenue", "Somerset Street" ],
        "city": "Medway",
        "postalCode": "ME5 7TY"
      } ]
    }
  }, {
    "fullUrl": "urn:uuid:501ecc35-a04a-48af-aedd-d722b9c9b4ae",
    "resource": {
      "resourceType": "Practitioner",
      "id": "501ecc35-a04a-48af-aedd-d722b9c9b4ae",
      "active": true,
      "name": [ {
        "use": "official",
        "family": "Cornwell",
        "given": [ "Dave" ]
      } ]
    }
  }, {
    "fullUrl": "urn:uuid:7b4ecd6d-4fbc-4fa1-a442-84bb92126a81",
    "resource": {
      "resourceType": "Location",
      "id": "7b4ecd6d-4fbc-4fa1-a442-84bb92126a81",
      "managingOrganization": {
        "reference": "urn:uuid:82ff3b64-9b4b-480a-8647-818e45fb3815"
      }
    }
  }, {
    "fullUrl": "urn:uuid:82ff3b64-9b4b-480a-8647-818e45fb3815",
    "resource": {
      "resourceType": "Organization",
      "id": "82ff3b64-9b4b-480a-8647-818e45fb3815",
      "identifier": [ {
        "value": "V396F"
      } ],
      "type": [ {
        "text": "GP Practice"
      } ],
      "name": "Medway Medical Practice",
      "telecom": [ {
        "system": "phone",
        "value": "tel:01634111222",
        "use": "work"
      } ],
      "address": [ {
        "use": "work",
        "line": [ "Springer Street" ],
        "city": "Medway",
        "postalCode": "ME5 5TY"
      } ]
    }
  }, {
    "fullUrl": "urn:uuid:30607a60-e435-4105-b337-b31b5ff6b2c4",
    "resource": {
      "resourceType": "Location",
      "id": "30607a60-e435-4105-b337-b31b5ff6b2c4",
      "name": "Incident Location",
      "address": {
        "type": "physical",
        "text": "Follow the high street and turn left by Boots",
        "line": [ "2, Brancaster Road" ],
        "city": "Medway",
        "postalCode": "ME5 4LS",
        "country": "GB"
      }
    }
  }, {
    "fullUrl": "urn:uuid:2b92416d-1292-4bd9-ba78-cbe02fcd1978",
    "resource": {
      "resourceType": "Patient",
      "id": "2b92416d-1292-4bd9-ba78-cbe02fcd1978",
      "language": "en",
      "identifier": [ {
        "extension": [ {
          "url": "https://fhir.hl7.org.uk/STU3/StructureDefinition/Extension-CareConnect-NHSNumberVerificationStatus-1",
          "valueCodeableConcept": {
            "coding": [ {
              "system": "https://fhir.hl7.org.uk/STU3/StructureDefinition/Extension-CareConnect-NHSNumberVerificationStatus-1",
              "code": "02"
            } ]
          }
        } ],
        "system": "https://fhir.nhs.uk/Id/nhs-number",
        "value": "993254128"
      } ],
      "active": true,
      "name": [ {
        "use": "official",
        "family": "Joe",
        "given": [ "Blogg" ],
        "prefix": [ "Mr" ]
      } ],
      "telecom": [ {
        "system": "phone",
        "value": "tel:01634775667",
        "use": "home"
      }, {
        "system": "phone",
        "value": "tel:01634451628",
        "use": "home"
      }, {
        "system": "email",
        "value": "mailto:Joe.Blogg@emailfree.co.uk",
        "use": "home"
      } ],
      "gender": "male",
      "birthDate": "1989-01-01",
      "address": [ {
        "use": "home",
        "line": [ "17, County Avenue", "Woodtown" ],
        "city": "Medway",
        "postalCode": "ME5 FS3"
      } ],
      "generalPractitioner": [ {
        "reference": "urn:uuid:bae7740a-bcf5-45b7-93b7-db2aedc1141b"
      } ]
    }
  }, {
    "fullUrl": "urn:uuid:bae7740a-bcf5-45b7-93b7-db2aedc1141b",
    "resource": {
      "resourceType": "Organization",
      "id": "bae7740a-bcf5-45b7-93b7-db2aedc1141b",
      "identifier": [ {
        "value": "V396F"
      } ],
      "type": [ {
        "text": "GP Practice"
      } ],
      "name": "Medway Medical Practice",
      "telecom": [ {
        "system": "phone",
        "value": "tel:01634111222",
        "use": "work"
      } ],
      "address": [ {
        "use": "work",
        "line": [ "Springer Street" ],
        "city": "Medway",
        "postalCode": "ME5 5TY"
      } ]
    }
  }, {
    "fullUrl": "urn:uuid:6d107aa5-980a-471e-abc7-8c3b085aaa2f",
    "resource": {
      "resourceType": "HealthcareService",
      "id": "6d107aa5-980a-471e-abc7-8c3b085aaa2f",
      "active": true,
      "providedBy": {
        "reference": "urn:uuid:7195f23f-99f7-45bf-8971-7452f9d6706d"
      },
      "location": [ {
        "reference": "urn:uuid:741ced53-6c6f-4785-a511-7fa1a9559b75"
      } ],
      "name": "Thames Medical Practice",
      "telecom": [ {
        "system": "phone",
        "value": "tel:0123476895",
        "use": "work"
      } ]
    }
  }, {
    "fullUrl": "urn:uuid:741ced53-6c6f-4785-a511-7fa1a9559b75",
    "resource": {
      "resourceType": "Location",
      "id": "741ced53-6c6f-4785-a511-7fa1a9559b75",
      "telecom": [ {
        "system": "phone",
        "value": "tel:0123476895",
        "use": "work"
      } ],
      "address": {
        "use": "work",
        "line": [ "Thames Medical Practice", "Hill Street Branch Surgery", "Medway", "Essex" ],
        "postalCode": "ME4 5TT"
      },
      "managingOrganization": {
        "reference": "urn:uuid:7195f23f-99f7-45bf-8971-7452f9d6706d"
      }
    }
  }, {
    "fullUrl": "urn:uuid:7195f23f-99f7-45bf-8971-7452f9d6706d",
    "resource": {
      "resourceType": "Organization",
      "id": "7195f23f-99f7-45bf-8971-7452f9d6706d",
      "identifier": [ {
        "value": "PRA123"
      } ],
      "type": [ {
        "coding": [ {
          "code": "PRCP",
          "display": "Thames Medical Practice"
        } ]
      } ],
      "name": "Thames Medical Practice"
    }
  }, {
    "fullUrl": "urn:uuid:3ca50f44-45eb-415d-bfa6-7789802dcdd0",
    "resource": {
      "resourceType": "HealthcareService",
      "id": "3ca50f44-45eb-415d-bfa6-7789802dcdd0",
      "active": true,
      "providedBy": {
        "reference": "urn:uuid:298a81ab-0826-4af1-9a12-f8181e8bac46"
      },
      "location": [ {
        "reference": "urn:uuid:fa11f7d0-6970-4b2b-939c-09ed77ed80e9"
      } ],
      "name": "Medway Kent Out of Hours Clinic"
    }
  }, {
    "fullUrl": "urn:uuid:fa11f7d0-6970-4b2b-939c-09ed77ed80e9",
    "resource": {
      "resourceType": "Location",
      "id": "fa11f7d0-6970-4b2b-939c-09ed77ed80e9",
      "managingOrganization": {
        "reference": "urn:uuid:298a81ab-0826-4af1-9a12-f8181e8bac46"
      }
    }
  }, {
    "fullUrl": "urn:uuid:298a81ab-0826-4af1-9a12-f8181e8bac46",
    "resource": {
      "resourceType": "Organization",
      "id": "298a81ab-0826-4af1-9a12-f8181e8bac46",
      "identifier": [ {
        "value": "EM396"
      } ],
      "type": [ {
        "coding": [ {
          "code": "PRCP",
          "display": "Medway Kent Out of Hours Clinic"
        } ]
      } ],
      "name": "Medway Kent Out of Hours Clinic"
    }
  }, {
    "fullUrl": "urn:uuid:f6c20a4b-6d5a-408a-8324-efc6c39bafec",
    "resource": {
      "resourceType": "ReferralRequest",
      "id": "f6c20a4b-6d5a-408a-8324-efc6c39bafec",
      "status": "active",
      "intent": "plan",
      "priority": "routine",
      "subject": {
        "reference": "urn:uuid:2b92416d-1292-4bd9-ba78-cbe02fcd1978"
      },
      "context": {
        "reference": "urn:uuid:d4eca483-e0b4-40f1-80c4-14e30c310c1b"
      },
      "occurrencePeriod": {
        "start": "2021-09-29T10:02:59+00:00",
        "end": "2021-09-29T11:02:59+00:00"
      },
      "authoredOn": "2019-01-01T20:00:00+00:00",
      "requester": {
        "agent": {
          "reference": "urn:uuid:c11da552-1d85-471d-a56f-97cd8b74a945"
        },
        "onBehalfOf": {
          "reference": "urn:uuid:d86ce095-72e8-43ca-88b8-ae9f2835d52d"
        }
      },
      "recipient": [ {
        "reference": "urn:uuid:80ad7422-3663-4881-8c3f-382a44115b6e"
      }, {
        "reference": "urn:uuid:6d107aa5-980a-471e-abc7-8c3b085aaa2f"
      }, {
        "reference": "urn:uuid:3ca50f44-45eb-415d-bfa6-7789802dcdd0"
      } ],
      "reasonReference": [ {
        "reference": "urn:uuid:6a2e36ea-b6ba-4222-8d23-0d2876d8ab03"
      } ],
      "supportingInfo": [ {
        "reference": "urn:uuid:363aab46-4660-450f-a931-dcf9980176f5"
      } ]
    }
  }, {
    "fullUrl": "urn:uuid:363aab46-4660-450f-a931-dcf9980176f5",
    "resource": {
      "resourceType": "ProcedureRequest",
      "id": "363aab46-4660-450f-a931-dcf9980176f5",
      "status": "active",
      "intent": "plan",
      "priority": "routine",
      "doNotPerform": false,
      "code": {
        "coding": [ {
          "system": "2.16.840.1.113883.2.1.3.2.4.17.325",
          "code": "Dx001",
          "display": "Passed onto clinical hub"
        } ]
      },
      "subject": {
        "reference": "urn:uuid:2b92416d-1292-4bd9-ba78-cbe02fcd1978"
      },
      "occurrencePeriod": {
        "start": "2021-09-29T10:02:59+00:00",
        "end": "2021-09-29T11:02:59+00:00"
      },
      "reasonReference": [ {
        "reference": "urn:uuid:6a2e36ea-b6ba-4222-8d23-0d2876d8ab03"
      } ]
    }
  }, {
    "fullUrl": "urn:uuid:80ad7422-3663-4881-8c3f-382a44115b6e",
    "resource": {
      "resourceType": "Practitioner",
      "id": "80ad7422-3663-4881-8c3f-382a44115b6e",
      "active": true,
      "telecom": [ {
        "system": "phone",
        "value": "tel:0123456789"
      } ],
      "address": [ {
        "type": "physical",
        "line": [ "Church Street Walk in Centre", "4 Church Street", "Medway" ],
        "postalCode": "ME8 7TT"
      } ]
    }
  }, {
    "fullUrl": "urn:uuid:914ec11a-a337-4d27-81b7-2029aa68bf42",
    "resource": {
      "resourceType": "Composition",
      "id": "914ec11a-a337-4d27-81b7-2029aa68bf42",
      "identifier": {
        "use": "usual",
        "value": "411910CF-1A76-4330-98FE-C345DDEE5553"
      },
      "status": "final",
      "type": {
        "coding": [ {
          "system": "http://snomed.info/sct",
          "code": "371531000",
          "display": "Report of clinical encounter (record artifact)"
        } ]
      },
      "subject": {
        "reference": "urn:uuid:2b92416d-1292-4bd9-ba78-cbe02fcd1978"
      },
      "encounter": {
        "reference": "urn:uuid:d4eca483-e0b4-40f1-80c4-14e30c310c1b"
      },
      "date": "2021-09-29T10:02:59+00:00",
      "author": [ {
        "reference": "urn:uuid:73f7dacf-58fe-47a4-b956-634b55954ad7"
      } ],
      "title": "111 Report",
      "confidentiality": "V",
      "section": [ {
        "section": [ {
          "title": "Permission to View",
          "text": {
            "status": "generated",
            "div": "<div xmlns=\"http://www.w3.org/1999/xhtml\">&lt;table&gt;\n                                                        &lt;tbody&gt;\n                                                            &lt;tr&gt;\n                                                                &lt;th&gt;Permission to view outcome&lt;/th&gt;\n                                                                &lt;td&gt;Permission to view obtained&lt;/td&gt;\n                                                            &lt;/tr&gt;\n                                                            &lt;tr&gt;\n                                                                &lt;th&gt;Date obtained&lt;/th&gt;\n                                                                &lt;td&gt;01-Jan-2017, 20:00&lt;/td&gt;\n                                                            &lt;/tr&gt;\n                                                            &lt;tr&gt;\n                                                                &lt;th&gt;Date expires&lt;/th&gt;\n                                                                &lt;td&gt;15-Jan-2017, 20:00&lt;/td&gt;\n                                                            &lt;/tr&gt;\n                                                        &lt;/tbody&gt;\n                                                    &lt;/table&gt;</div>"
          }
        }, {
          "title": "Primary Reason for Call",
          "text": {
            "status": "generated",
            "div": "<div xmlns=\"http://www.w3.org/1999/xhtml\">&lt;content&gt;Patient feels dizzy.&lt;/content&gt;</div>"
          },
          "section": [ {
            "title": "SUBSUB2",
            "text": {
              "status": "generated",
              "div": "<div xmlns=\"http://www.w3.org/1999/xhtml\">&lt;content&gt;SUBSUB2&lt;/content&gt;</div>"
            },
            "section": [ {
              "title": "SUBSUB3",
              "text": {
                "status": "generated",
                "div": "<div xmlns=\"http://www.w3.org/1999/xhtml\">&lt;content&gt;SUBSUB3&lt;/content&gt;</div>"
              }
            } ]
          } ]
        }, {
          "title": "Clinical Summary",
          "text": {
            "status": "generated",
            "div": "<div xmlns=\"http://www.w3.org/1999/xhtml\">&lt;content&gt;\n                                                        Patient fels nausea and dizzy after waking up. Lasted 30\n                                                        minutes.\n                                                    &lt;/content&gt;</div>"
          }
        }, {
          "title": "Additional Patient Notes",
          "text": {
            "status": "generated",
            "div": "<div xmlns=\"http://www.w3.org/1999/xhtml\">Additional Patient Notes\n                                                    &lt;br/&gt;\n                                                    Additional Patient Notes abc 01-Feb-2017, 12:00\n                                                    &lt;br/&gt;</div>"
          },
          "section": [ {
            "text": {
              "status": "generated",
              "div": "<div xmlns=\"http://www.w3.org/1999/xhtml\">These are more notes, nested under the top one.</div>"
            }
          } ]
        }, {
          "title": "Disposition Details",
          "text": {
            "status": "generated",
            "div": "<div xmlns=\"http://www.w3.org/1999/xhtml\">&lt;content&gt;Lie down.&lt;/content&gt;</div>"
          }
        }, {
          "title": "Information and advice given",
          "text": {
            "status": "generated",
            "div": "<div xmlns=\"http://www.w3.org/1999/xhtml\">&lt;content&gt;Do not perform any strenuous activities.&lt;/content&gt;</div>"
          }
        }, {
          "title": "Recorded Allergies",
          "text": {
            "status": "generated",
            "div": "<div xmlns=\"http://www.w3.org/1999/xhtml\">&lt;content&gt;No known allergies or adverse reaction.&lt;/content&gt;</div>"
          }
        }, {
          "title": "Triage Report",
          "text": {
            "status": "generated",
            "div": "<div xmlns=\"http://www.w3.org/1999/xhtml\">&lt;content&gt;An injury or other health problem was described.\n                                                        &lt;br/&gt;The individual was described as breathing and conscious.\n                                                        &lt;br/&gt;Loss of at least a mugful of blood in the last 30 minutes\n                                                        was not described.\n                                                        &lt;br/&gt;An illness or other health problem was described. -\n                                                        Dizziness\n                                                        &lt;br/&gt;Fighting for breath was not described.\n                                                        &lt;br/&gt;A heart attack, chest/upper back pain, recent probable\n                                                        stroke, recent fit/seizure or suicide attempt was not described\n                                                        as the main call reason.\n                                                        &lt;br/&gt;Dizziness and nausea was described.\n                                                        &lt;br/&gt;\n                                                    &lt;/content&gt;</div>"
          }
        }, {
          "title": "Prescribed Items",
          "text": {
            "status": "generated",
            "div": "<div xmlns=\"http://www.w3.org/1999/xhtml\">&lt;content&gt;\n                                                        Medications\n                                                    &lt;/content&gt;</div>"
          }
        }, {
          "title": "Appointment Reference",
          "text": {
            "status": "generated",
            "div": "<div xmlns=\"http://www.w3.org/1999/xhtml\">&lt;content&gt;\n                                                        Date/Time: 01 June 2017 14:00\n                                                        Location: CENTRAL LONDON COMMUNITY HEALTHCARE NHS TRUST\n                                                        Psychiatric Community Care Service\n                                                    &lt;/content&gt;</div>"
          }
        } ]
      }, {
        "title": "CarePlan",
        "entry": [ {
          "reference": "urn:uuid:2adc796d-871d-4b40-9ca8-55203d84bbe0"
        } ]
      }, {
        "title": "ReferralRequest",
        "entry": [ {
          "reference": "urn:uuid:f6c20a4b-6d5a-408a-8324-efc6c39bafec"
        } ]
      }, {
        "title": "QuestionnaireResponse",
        "entry": [ {
          "reference": "urn:uuid:48b6a5e0-e64a-4532-bb74-9935252b6c10"
        } ]
      }, {
        "title": "QuestionnaireResponse",
        "entry": [ {
          "reference": "urn:uuid:d6371d4b-e439-4384-bdc8-7d164435e292"
        } ]
      }, {
        "title": "QuestionnaireResponse",
        "entry": [ {
          "reference": "urn:uuid:8ddbf1f8-ef5e-426c-aa6e-620d1d877d3d"
        } ]
      }, {
        "title": "QuestionnaireResponse",
        "entry": [ {
          "reference": "urn:uuid:9263ab98-c4ec-4049-99b0-0c9d0120739d"
        } ]
      }, {
        "title": "QuestionnaireResponse",
        "entry": [ {
          "reference": "urn:uuid:98af3b11-53a1-4934-aecb-20f3be809eed"
        } ]
      }, {
        "title": "QuestionnaireResponse",
        "entry": [ {
          "reference": "urn:uuid:16b4f55c-2b7b-4f16-8063-0738a709705c"
        } ]
      }, {
        "title": "QuestionnaireResponse",
        "entry": [ {
          "reference": "urn:uuid:986df249-b0de-4d45-aee0-5f4254269550"
        } ]
      }, {
        "title": "QuestionnaireResponse",
        "entry": [ {
          "reference": "urn:uuid:9b175f1c-1a4d-4602-9f1d-ed31238af966"
        } ]
      }, {
        "title": "QuestionnaireResponse",
        "entry": [ {
          "reference": "urn:uuid:f961a6e2-97cd-479f-adc2-fe1a333cc6be"
        } ]
      }, {
        "title": "QuestionnaireResponse",
        "entry": [ {
          "reference": "urn:uuid:d49cc910-1346-40b1-a38f-87e74c15d0ba"
        } ]
      }, {
        "title": "QuestionnaireResponse",
        "entry": [ {
          "reference": "urn:uuid:af23cfd5-b98d-4825-83f0-d43bdcc5b857"
        } ]
      }, {
        "title": "QuestionnaireResponse",
        "entry": [ {
          "reference": "urn:uuid:0a4537d4-c117-4b3d-9e0f-739aefd49bc3"
        } ]
      }, {
        "title": "QuestionnaireResponse",
        "entry": [ {
          "reference": "urn:uuid:8bffc668-a57d-4f85-8ac5-9d743c6db7b7"
        } ]
      }, {
        "title": "QuestionnaireResponse",
        "entry": [ {
          "reference": "urn:uuid:ba084c1f-8fac-4b7b-b764-832ba936b9eb"
        } ]
      }, {
        "title": "QuestionnaireResponse",
        "entry": [ {
          "reference": "urn:uuid:24e8fc25-5d3a-4ada-9545-af0d0ca99424"
        } ]
      }, {
        "title": "QuestionnaireResponse",
        "entry": [ {
          "reference": "urn:uuid:ace086a8-45e0-482f-ba44-e5156c5cb3de"
        } ]
      }, {
        "title": "QuestionnaireResponse",
        "entry": [ {
          "reference": "urn:uuid:4e2e4139-3450-4472-93a5-0902d9abb8ad"
        } ]
      }, {
        "title": "QuestionnaireResponse",
        "entry": [ {
          "reference": "urn:uuid:20ca30bc-58b6-4914-8176-69f38132e4aa"
        } ]
      }, {
        "title": "QuestionnaireResponse",
        "entry": [ {
          "reference": "urn:uuid:06eb62f1-8c5b-44ee-9310-274b70de7445"
        } ]
      }, {
        "title": "QuestionnaireResponse",
        "entry": [ {
          "reference": "urn:uuid:89c79e7f-7dfc-4008-ac49-98d2c905ef58"
        } ]
      }, {
        "title": "QuestionnaireResponse",
        "entry": [ {
          "reference": "urn:uuid:1c0712db-9919-44b7-ae12-3983b86b7845"
        } ]
      }, {
        "title": "QuestionnaireResponse",
        "entry": [ {
          "reference": "urn:uuid:96d271d9-da60-47cc-a0ae-9c7cea838a02"
        } ]
      }, {
        "title": "QuestionnaireResponse",
        "entry": [ {
          "reference": "urn:uuid:c5b8a53e-142d-4be0-9b90-50243e7b7759"
        } ]
      }, {
        "title": "QuestionnaireResponse",
        "entry": [ {
          "reference": "urn:uuid:70312abc-dd3c-4ad6-b909-499f7cc1c92d"
        } ]
      } ]
    }
  }, {
    "fullUrl": "urn:uuid:2adc796d-871d-4b40-9ca8-55203d84bbe0",
    "resource": {
      "resourceType": "CarePlan",
      "id": "2adc796d-871d-4b40-9ca8-55203d84bbe0",
      "status": "completed",
      "intent": "plan",
      "title": "Information and advice given",
      "description": "Do not perform any strenuous activities.",
      "subject": {
        "reference": "urn:uuid:2b92416d-1292-4bd9-ba78-cbe02fcd1978"
      },
      "context": {
        "reference": "urn:uuid:d4eca483-e0b4-40f1-80c4-14e30c310c1b"
      },
      "period": {
        "start": "2017-01-01T20:00:00+00:00"
      },
      "author": [ {
        "reference": "urn:uuid:82ff3b64-9b4b-480a-8647-818e45fb3815"
      } ],
      "addresses": [ {
        "reference": "urn:uuid:6a2e36ea-b6ba-4222-8d23-0d2876d8ab03"
      } ]
    }
  }, {
    "fullUrl": "urn:uuid:fb0d9359-183d-41cd-9a36-4fa2723835f8",
    "resource": {
      "resourceType": "Consent",
      "id": "fb0d9359-183d-41cd-9a36-4fa2723835f8",
      "text": {
        "status": "generated",
        "div": "<div xmlns=\"http://www.w3.org/1999/xhtml\">\n                                                    <table>\n                                                        <tbody>\n                                                            <tr>\n                                                                <th>Permission to view outcome</th>\n                                                                <td>Permission to view obtained</td>\n                                                            </tr>\n                                                            <tr>\n                                                                <th>Date obtained</th>\n                                                                <td>01-Jan-2017, 20:00</td>\n                                                            </tr>\n                                                            <tr>\n                                                                <th>Date expires</th>\n                                                                <td>15-Jan-2017, 20:00</td>\n                                                            </tr>\n                                                        </tbody>\n                                                    </table>\n                                                </div>"
      },
      "identifier": {
        "use": "usual",
        "value": "411910CF-1A76-4330-98FE-C345DDEE5553"
      },
      "status": "active",
      "patient": {
        "reference": "urn:uuid:2b92416d-1292-4bd9-ba78-cbe02fcd1978"
      },
      "period": {
        "start": "2017-01-01T20:00:00+00:00"
      },
      "consentingParty": [ {
        "reference": "urn:uuid:2b92416d-1292-4bd9-ba78-cbe02fcd1978"
      } ],
      "action": [ {
        "coding": [ {
          "system": "http://snomed.info/sct",
          "code": "425691002",
          "display": "Consent given for electronic record sharing"
        } ],
        "text": "Consent given for electronic record sharing"
      } ],
      "organization": [ {
        "reference": "urn:uuid:d86ce095-72e8-43ca-88b8-ae9f2835d52d"
      } ],
      "sourceIdentifier": {
        "value": "41D9F90F-6DB7-4939-BEF5-F8D75D79ECDD"
      },
      "policyRule": "http://hl7.org/fhir/ConsentPolicy/opt-out",
      "dataPeriod": {
        "start": "2011-05-19T20:00:00+00:00",
        "end": "2011-05-26T20:00:00+00:00"
      },
      "data": [ {
        "meaning": "related",
        "reference": {
          "reference": "urn:uuid:d4eca483-e0b4-40f1-80c4-14e30c310c1b"
        }
      } ]
    }
  }, {
    "fullUrl": "urn:uuid:6a2e36ea-b6ba-4222-8d23-0d2876d8ab03",
    "resource": {
      "resourceType": "Condition",
      "id": "6a2e36ea-b6ba-4222-8d23-0d2876d8ab03",
      "clinicalStatus": "active",
      "verificationStatus": "unknown",
      "code": {
        "coding": [ {
          "system": "22298006",
          "code": "2.16.840.1.113883.2.1.3.2.4.15",
          "display": "Myocardial infarction"
        } ]
      },
      "subject": {
        "reference": "urn:uuid:2b92416d-1292-4bd9-ba78-cbe02fcd1978"
      },
      "context": {
        "reference": "urn:uuid:d4eca483-e0b4-40f1-80c4-14e30c310c1b"
      },
      "assertedDate": "2017-06-01T14:00:00+00:00",
      "evidence": [ {
        "detail": [ {
          "reference": "urn:uuid:48b6a5e0-e64a-4532-bb74-9935252b6c10"
        } ]
      }, {
        "detail": [ {
          "reference": "urn:uuid:d6371d4b-e439-4384-bdc8-7d164435e292"
        } ]
      }, {
        "detail": [ {
          "reference": "urn:uuid:8ddbf1f8-ef5e-426c-aa6e-620d1d877d3d"
        } ]
      }, {
        "detail": [ {
          "reference": "urn:uuid:9263ab98-c4ec-4049-99b0-0c9d0120739d"
        } ]
      }, {
        "detail": [ {
          "reference": "urn:uuid:98af3b11-53a1-4934-aecb-20f3be809eed"
        } ]
      }, {
        "detail": [ {
          "reference": "urn:uuid:16b4f55c-2b7b-4f16-8063-0738a709705c"
        } ]
      }, {
        "detail": [ {
          "reference": "urn:uuid:986df249-b0de-4d45-aee0-5f4254269550"
        } ]
      }, {
        "detail": [ {
          "reference": "urn:uuid:9b175f1c-1a4d-4602-9f1d-ed31238af966"
        } ]
      }, {
        "detail": [ {
          "reference": "urn:uuid:f961a6e2-97cd-479f-adc2-fe1a333cc6be"
        } ]
      }, {
        "detail": [ {
          "reference": "urn:uuid:d49cc910-1346-40b1-a38f-87e74c15d0ba"
        } ]
      }, {
        "detail": [ {
          "reference": "urn:uuid:af23cfd5-b98d-4825-83f0-d43bdcc5b857"
        } ]
      }, {
        "detail": [ {
          "reference": "urn:uuid:0a4537d4-c117-4b3d-9e0f-739aefd49bc3"
        } ]
      }, {
        "detail": [ {
          "reference": "urn:uuid:8bffc668-a57d-4f85-8ac5-9d743c6db7b7"
        } ]
      }, {
        "detail": [ {
          "reference": "urn:uuid:ba084c1f-8fac-4b7b-b764-832ba936b9eb"
        } ]
      }, {
        "detail": [ {
          "reference": "urn:uuid:24e8fc25-5d3a-4ada-9545-af0d0ca99424"
        } ]
      }, {
        "detail": [ {
          "reference": "urn:uuid:ace086a8-45e0-482f-ba44-e5156c5cb3de"
        } ]
      }, {
        "detail": [ {
          "reference": "urn:uuid:4e2e4139-3450-4472-93a5-0902d9abb8ad"
        } ]
      }, {
        "detail": [ {
          "reference": "urn:uuid:20ca30bc-58b6-4914-8176-69f38132e4aa"
        } ]
      }, {
        "detail": [ {
          "reference": "urn:uuid:06eb62f1-8c5b-44ee-9310-274b70de7445"
        } ]
      }, {
        "detail": [ {
          "reference": "urn:uuid:89c79e7f-7dfc-4008-ac49-98d2c905ef58"
        } ]
      }, {
        "detail": [ {
          "reference": "urn:uuid:1c0712db-9919-44b7-ae12-3983b86b7845"
        } ]
      }, {
        "detail": [ {
          "reference": "urn:uuid:96d271d9-da60-47cc-a0ae-9c7cea838a02"
        } ]
      }, {
        "detail": [ {
          "reference": "urn:uuid:c5b8a53e-142d-4be0-9b90-50243e7b7759"
        } ]
      }, {
        "detail": [ {
          "reference": "urn:uuid:70312abc-dd3c-4ad6-b909-499f7cc1c92d"
        } ]
      } ]
    }
  }, {
    "fullUrl": "urn:uuid:48b6a5e0-e64a-4532-bb74-9935252b6c10",
    "resource": {
      "resourceType": "QuestionnaireResponse",
      "id": "48b6a5e0-e64a-4532-bb74-9935252b6c10",
      "identifier": {
        "value": "8067b9b2-e604-4414-b56f-8e3cc4de4b1b"
      },
      "questionnaire": {
        "reference": "urn:uuid:7d86bf8c-feed-48a9-9409-7ad64da0a2a1"
      },
      "status": "completed",
      "subject": {
        "reference": "urn:uuid:2b92416d-1292-4bd9-ba78-cbe02fcd1978"
      },
      "context": {
        "reference": "urn:uuid:d4eca483-e0b4-40f1-80c4-14e30c310c1b"
      },
      "authored": "2011-02-17T17:31:14+00:00",
      "item": [ {
        "linkId": "N/A"
      } ]
    }
  }, {
    "fullUrl": "urn:uuid:7d86bf8c-feed-48a9-9409-7ad64da0a2a1",
    "resource": {
      "resourceType": "Questionnaire",
      "id": "7d86bf8c-feed-48a9-9409-7ad64da0a2a1",
      "identifier": [ {
        "value": "8067b9b2-e604-4414-b56f-8e3cc4de4b1b"
      } ],
      "version": "2011-02-17T17:31:14.313Z",
      "status": "active",
      "experimental": false,
      "date": "2011-02-17T17:31:14+00:00",
      "publisher": "User ID: '3137' User name: 'redacted' User skill set: 'T1'",
      "lastReviewDate": "2011-02-17",
      "jurisdiction": [ {
        "text": "England"
      } ],
      "contact": [ {
        "telecom": [ {
          "system": "phone",
          "value": "redacted"
        } ]
      } ],
      "subjectType": [ "Patient" ],
      "item": [ {
        "linkId": "8067b9b2-e604-4414-b56f-8e3cc4de4b1b",
        "prefix": "0",
        "type": "choice",
        "required": true,
        "repeats": false,
        "option": [ {
          "valueString": ", Selected: false"
        } ]
      } ]
    }
  }, {
    "fullUrl": "urn:uuid:d6371d4b-e439-4384-bdc8-7d164435e292",
    "resource": {
      "resourceType": "QuestionnaireResponse",
      "id": "d6371d4b-e439-4384-bdc8-7d164435e292",
      "identifier": {
        "value": "8067b9b2-e604-4414-b56f-8e3cc4de4b1b"
      },
      "questionnaire": {
        "reference": "urn:uuid:884c11fd-1c36-453a-958c-26afe927b0da"
      },
      "status": "completed",
      "subject": {
        "reference": "urn:uuid:2b92416d-1292-4bd9-ba78-cbe02fcd1978"
      },
      "context": {
        "reference": "urn:uuid:d4eca483-e0b4-40f1-80c4-14e30c310c1b"
      },
      "authored": "2011-02-17T17:31:14+00:00",
      "item": [ {
        "linkId": "N/A"
      } ]
    }
  }, {
    "fullUrl": "urn:uuid:884c11fd-1c36-453a-958c-26afe927b0da",
    "resource": {
      "resourceType": "Questionnaire",
      "id": "884c11fd-1c36-453a-958c-26afe927b0da",
      "identifier": [ {
        "value": "8067b9b2-e604-4414-b56f-8e3cc4de4b1b"
      } ],
      "version": "2011-02-17T17:31:14.313Z",
      "status": "active",
      "experimental": false,
      "date": "2011-02-17T17:31:14+00:00",
      "publisher": "User ID: '3137' User name: 'redacted' User skill set: 'T1'",
      "lastReviewDate": "2011-02-17",
      "jurisdiction": [ {
        "text": "England"
      } ],
      "contact": [ {
        "telecom": [ {
          "system": "phone",
          "value": "redacted"
        } ]
      } ],
      "subjectType": [ "Patient" ],
      "item": [ {
        "linkId": "8067b9b2-e604-4414-b56f-8e3cc4de4b1b",
        "prefix": "0",
        "type": "choice",
        "required": true,
        "repeats": false,
        "option": [ {
          "valueString": ", Selected: false"
        } ]
      } ]
    }
  }, {
    "fullUrl": "urn:uuid:8ddbf1f8-ef5e-426c-aa6e-620d1d877d3d",
    "resource": {
      "resourceType": "QuestionnaireResponse",
      "id": "8ddbf1f8-ef5e-426c-aa6e-620d1d877d3d",
      "identifier": {
        "value": "8067b9b2-e604-4414-b56f-8e3cc4de4b1b"
      },
      "questionnaire": {
        "reference": "urn:uuid:a83584d6-32c0-4cd0-96e8-c31fa224dc25"
      },
      "status": "completed",
      "subject": {
        "reference": "urn:uuid:2b92416d-1292-4bd9-ba78-cbe02fcd1978"
      },
      "context": {
        "reference": "urn:uuid:d4eca483-e0b4-40f1-80c4-14e30c310c1b"
      },
      "authored": "2011-02-17T17:31:14+00:00",
      "item": [ {
        "linkId": "Tx220109",
        "text": "What is the reason for the call?",
        "answer": [ {
          "valueString": "an injury or other health problem"
        } ]
      } ]
    }
  }, {
    "fullUrl": "urn:uuid:a83584d6-32c0-4cd0-96e8-c31fa224dc25",
    "resource": {
      "resourceType": "Questionnaire",
      "id": "a83584d6-32c0-4cd0-96e8-c31fa224dc25",
      "identifier": [ {
        "value": "8067b9b2-e604-4414-b56f-8e3cc4de4b1b"
      } ],
      "version": "2011-02-17T17:31:14.313Z",
      "status": "active",
      "experimental": false,
      "date": "2011-02-17T17:31:14+00:00",
      "publisher": "User ID: '3137' User name: 'redacted' User skill set: 'T1'",
      "lastReviewDate": "2011-02-17",
      "jurisdiction": [ {
        "text": "England"
      } ],
      "contact": [ {
        "telecom": [ {
          "system": "phone",
          "value": "redacted"
        } ]
      } ],
      "subjectType": [ "Patient" ],
      "item": [ {
        "linkId": "8067b9b2-e604-4414-b56f-8e3cc4de4b1b",
        "prefix": "5",
        "text": "What is the reason for the call?",
        "type": "choice",
        "required": true,
        "repeats": false,
        "option": [ {
          "valueString": "an injury or other health problem, Selected: true"
        }, {
          "valueString": "a need to access another healthcare provider, Selected: false"
        }, {
          "valueString": "a healthcare professional requesting contact with another clinician, Selected: false"
        }, {
          "valueString": "a report of results or tests, Selected: false"
        }, {
          "valueString": "more, Selected: false"
        } ]
      } ]
    }
  }, {
    "fullUrl": "urn:uuid:9263ab98-c4ec-4049-99b0-0c9d0120739d",
    "resource": {
      "resourceType": "QuestionnaireResponse",
      "id": "9263ab98-c4ec-4049-99b0-0c9d0120739d",
      "identifier": {
        "value": "8067b9b2-e604-4414-b56f-8e3cc4de4b1b"
      },
      "questionnaire": {
        "reference": "urn:uuid:4da57a51-6283-4c9f-92f1-ee678a68fba7"
      },
      "status": "completed",
      "subject": {
        "reference": "urn:uuid:2b92416d-1292-4bd9-ba78-cbe02fcd1978"
      },
      "context": {
        "reference": "urn:uuid:d4eca483-e0b4-40f1-80c4-14e30c310c1b"
      },
      "authored": "2011-02-17T17:31:14+00:00",
      "item": [ {
        "linkId": "Tx140118",
        "text": "Has the baby just been born?",
        "answer": [ {
          "valueString": "no"
        } ]
      } ]
    }
  }, {
    "fullUrl": "urn:uuid:4da57a51-6283-4c9f-92f1-ee678a68fba7",
    "resource": {
      "resourceType": "Questionnaire",
      "id": "4da57a51-6283-4c9f-92f1-ee678a68fba7",
      "identifier": [ {
        "value": "8067b9b2-e604-4414-b56f-8e3cc4de4b1b"
      } ],
      "version": "2011-02-17T17:31:14.313Z",
      "status": "active",
      "experimental": false,
      "date": "2011-02-17T17:31:14+00:00",
      "publisher": "User ID: '3137' User name: 'redacted' User skill set: 'T1'",
      "lastReviewDate": "2011-02-17",
      "jurisdiction": [ {
        "text": "England"
      } ],
      "contact": [ {
        "telecom": [ {
          "system": "phone",
          "value": "redacted"
        } ]
      } ],
      "subjectType": [ "Patient" ],
      "item": [ {
        "linkId": "8067b9b2-e604-4414-b56f-8e3cc4de4b1b",
        "prefix": "35",
        "text": "Has the baby just been born?",
        "type": "choice",
        "required": true,
        "repeats": false,
        "option": [ {
          "valueString": "yes, Selected: false"
        }, {
          "valueString": "not sure, Selected: false"
        }, {
          "valueString": "no, Selected: true"
        } ]
      } ]
    }
  }, {
    "fullUrl": "urn:uuid:98af3b11-53a1-4934-aecb-20f3be809eed",
    "resource": {
      "resourceType": "QuestionnaireResponse",
      "id": "98af3b11-53a1-4934-aecb-20f3be809eed",
      "identifier": {
        "value": "8067b9b2-e604-4414-b56f-8e3cc4de4b1b"
      },
      "questionnaire": {
        "reference": "urn:uuid:a25dd0ef-6301-44a7-a650-10dd7d655ae0"
      },
      "status": "completed",
      "subject": {
        "reference": "urn:uuid:2b92416d-1292-4bd9-ba78-cbe02fcd1978"
      },
      "context": {
        "reference": "urn:uuid:d4eca483-e0b4-40f1-80c4-14e30c310c1b"
      },
      "authored": "2011-02-17T17:31:14+00:00",
      "item": [ {
        "linkId": "Tx220110",
        "text": "Is he breathing and conscious?",
        "answer": [ {
          "valueString": "breathing AND conscious"
        } ]
      } ]
    }
  }, {
    "fullUrl": "urn:uuid:a25dd0ef-6301-44a7-a650-10dd7d655ae0",
    "resource": {
      "resourceType": "Questionnaire",
      "id": "a25dd0ef-6301-44a7-a650-10dd7d655ae0",
      "identifier": [ {
        "value": "8067b9b2-e604-4414-b56f-8e3cc4de4b1b"
      } ],
      "version": "2011-02-17T17:31:14.313Z",
      "status": "active",
      "experimental": false,
      "date": "2011-02-17T17:31:14+00:00",
      "publisher": "User ID: '3137' User name: 'redacted' User skill set: 'T1'",
      "lastReviewDate": "2011-02-17",
      "jurisdiction": [ {
        "text": "England"
      } ],
      "contact": [ {
        "telecom": [ {
          "system": "phone",
          "value": "redacted"
        } ]
      } ],
      "subjectType": [ "Patient" ],
      "item": [ {
        "linkId": "8067b9b2-e604-4414-b56f-8e3cc4de4b1b",
        "prefix": "40",
        "text": "Is he breathing and conscious?",
        "type": "choice",
        "required": true,
        "repeats": false,
        "option": [ {
          "valueString": "breathing AND conscious, Selected: true"
        }, {
          "valueString": "breathing but NOT conscious (includes current fitting), Selected: false"
        }, {
          "valueString": "NOT breathing, Selected: false"
        }, {
          "valueString": "choking now, Selected: false"
        } ]
      } ]
    }
  }, {
    "fullUrl": "urn:uuid:16b4f55c-2b7b-4f16-8063-0738a709705c",
    "resource": {
      "resourceType": "QuestionnaireResponse",
      "id": "16b4f55c-2b7b-4f16-8063-0738a709705c",
      "identifier": {
        "value": "8067b9b2-e604-4414-b56f-8e3cc4de4b1b"
      },
      "questionnaire": {
        "reference": "urn:uuid:7cad7017-c5b8-47fa-ac06-1bd8f164442b"
      },
      "status": "completed",
      "subject": {
        "reference": "urn:uuid:2b92416d-1292-4bd9-ba78-cbe02fcd1978"
      },
      "context": {
        "reference": "urn:uuid:d4eca483-e0b4-40f1-80c4-14e30c310c1b"
      },
      "authored": "2011-02-17T17:31:14+00:00",
      "item": [ {
        "linkId": "Tx220285",
        "text": "Has he been bleeding very heavily IN THE LAST HOUR?",
        "answer": [ {
          "valueString": "no"
        } ]
      } ]
    }
  }, {
    "fullUrl": "urn:uuid:7cad7017-c5b8-47fa-ac06-1bd8f164442b",
    "resource": {
      "resourceType": "Questionnaire",
      "id": "7cad7017-c5b8-47fa-ac06-1bd8f164442b",
      "identifier": [ {
        "value": "8067b9b2-e604-4414-b56f-8e3cc4de4b1b"
      } ],
      "version": "2011-02-17T17:31:14.313Z",
      "status": "active",
      "experimental": false,
      "date": "2011-02-17T17:31:14+00:00",
      "publisher": "User ID: '3137' User name: 'redacted' User skill set: 'T1'",
      "lastReviewDate": "2011-02-17",
      "jurisdiction": [ {
        "text": "England"
      } ],
      "contact": [ {
        "telecom": [ {
          "system": "phone",
          "value": "redacted"
        } ]
      } ],
      "subjectType": [ "Patient" ],
      "item": [ {
        "linkId": "8067b9b2-e604-4414-b56f-8e3cc4de4b1b",
        "prefix": "60",
        "text": "Has he been bleeding very heavily IN THE LAST HOUR?",
        "type": "choice",
        "required": true,
        "repeats": false,
        "option": [ {
          "valueString": "blood spurting from a wound, Selected: false"
        }, {
          "valueString": "an egg cupful or more of red blood from a body opening, Selected: false"
        }, {
          "valueString": "an egg cupful or more from a wound, Selected: false"
        }, {
          "valueString": "not sure, Selected: false"
        }, {
          "valueString": "no, Selected: true"
        } ]
      } ]
    }
  }, {
    "fullUrl": "urn:uuid:986df249-b0de-4d45-aee0-5f4254269550",
    "resource": {
      "resourceType": "QuestionnaireResponse",
      "id": "986df249-b0de-4d45-aee0-5f4254269550",
      "identifier": {
        "value": "8067b9b2-e604-4414-b56f-8e3cc4de4b1b"
      },
      "questionnaire": {
        "reference": "urn:uuid:905597f3-2e8f-475d-8418-4c34ad7dbc25"
      },
      "status": "completed",
      "subject": {
        "reference": "urn:uuid:2b92416d-1292-4bd9-ba78-cbe02fcd1978"
      },
      "context": {
        "reference": "urn:uuid:d4eca483-e0b4-40f1-80c4-14e30c310c1b"
      },
      "authored": "2011-02-17T17:31:14+00:00",
      "item": [ {
        "linkId": "N/A",
        "text": "SocialConcernsExcluded",
        "answer": [ {
          "valueString": "*"
        } ]
      } ]
    }
  }, {
    "fullUrl": "urn:uuid:905597f3-2e8f-475d-8418-4c34ad7dbc25",
    "resource": {
      "resourceType": "Questionnaire",
      "id": "905597f3-2e8f-475d-8418-4c34ad7dbc25",
      "identifier": [ {
        "value": "8067b9b2-e604-4414-b56f-8e3cc4de4b1b"
      } ],
      "version": "2011-02-17T17:31:14.313Z",
      "status": "active",
      "experimental": false,
      "date": "2011-02-17T17:31:14+00:00",
      "publisher": "User ID: '3137' User name: 'redacted' User skill set: 'T1'",
      "lastReviewDate": "2011-02-17",
      "jurisdiction": [ {
        "text": "England"
      } ],
      "contact": [ {
        "telecom": [ {
          "system": "phone",
          "value": "redacted"
        } ]
      } ],
      "subjectType": [ "Patient" ],
      "item": [ {
        "linkId": "8067b9b2-e604-4414-b56f-8e3cc4de4b1b",
        "prefix": "2050",
        "text": "SocialConcernsExcluded",
        "type": "choice",
        "required": true,
        "repeats": false,
        "option": [ {
          "valueString": "==\"present\", Selected: false"
        }, {
          "valueString": "*, Selected: true"
        } ]
      } ]
    }
  }, {
    "fullUrl": "urn:uuid:9b175f1c-1a4d-4602-9f1d-ed31238af966",
    "resource": {
      "resourceType": "QuestionnaireResponse",
      "id": "9b175f1c-1a4d-4602-9f1d-ed31238af966",
      "identifier": {
        "value": "8067b9b2-e604-4414-b56f-8e3cc4de4b1b"
      },
      "questionnaire": {
        "reference": "urn:uuid:2c200bff-62c3-452e-a8ce-cd064bcce573"
      },
      "status": "completed",
      "subject": {
        "reference": "urn:uuid:2b92416d-1292-4bd9-ba78-cbe02fcd1978"
      },
      "context": {
        "reference": "urn:uuid:d4eca483-e0b4-40f1-80c4-14e30c310c1b"
      },
      "authored": "2011-02-17T17:31:14+00:00",
      "item": [ {
        "linkId": "Tx140159",
        "text": "What is the reason for ending the assessment?",
        "answer": [ {
          "valueString": "transfer to a clinician"
        } ]
      } ]
    }
  }, {
    "fullUrl": "urn:uuid:2c200bff-62c3-452e-a8ce-cd064bcce573",
    "resource": {
      "resourceType": "Questionnaire",
      "id": "2c200bff-62c3-452e-a8ce-cd064bcce573",
      "identifier": [ {
        "value": "8067b9b2-e604-4414-b56f-8e3cc4de4b1b"
      } ],
      "version": "2011-02-17T17:31:14.313Z",
      "status": "active",
      "experimental": false,
      "date": "2011-02-17T17:31:14+00:00",
      "publisher": "User ID: '3137' User name: 'redacted' User skill set: 'T1'",
      "lastReviewDate": "2011-02-17",
      "jurisdiction": [ {
        "text": "England"
      } ],
      "contact": [ {
        "telecom": [ {
          "system": "phone",
          "value": "redacted"
        } ]
      } ],
      "subjectType": [ "Patient" ],
      "item": [ {
        "linkId": "8067b9b2-e604-4414-b56f-8e3cc4de4b1b",
        "prefix": "0",
        "text": "What is the reason for ending the assessment?",
        "type": "choice",
        "required": true,
        "repeats": false,
        "option": [ {
          "valueString": "the phone line went dead, Selected: false"
        }, {
          "valueString": "the caller terminated the call (specify), Selected: false"
        }, {
          "valueString": "I terminated the call (specify), Selected: false"
        }, {
          "valueString": "triage not possible, Selected: false"
        }, {
          "valueString": "transfer to a clinician, Selected: true"
        } ]
      } ]
    }
  }, {
    "fullUrl": "urn:uuid:f961a6e2-97cd-479f-adc2-fe1a333cc6be",
    "resource": {
      "resourceType": "QuestionnaireResponse",
      "id": "f961a6e2-97cd-479f-adc2-fe1a333cc6be",
      "identifier": {
        "value": "8067b9b2-e604-4414-b56f-8e3cc4de4b1b"
      },
      "questionnaire": {
        "reference": "urn:uuid:2594c75d-d1d1-4faf-875a-80789edd647a"
      },
      "status": "completed",
      "subject": {
        "reference": "urn:uuid:2b92416d-1292-4bd9-ba78-cbe02fcd1978"
      },
      "context": {
        "reference": "urn:uuid:d4eca483-e0b4-40f1-80c4-14e30c310c1b"
      },
      "authored": "2011-02-17T17:31:14+00:00",
      "item": [ {
        "linkId": "Tx220408",
        "text": "WHAT IS THE REASON FOR TRANSFER TO A CLINICIAN?",
        "answer": [ {
          "valueString": "other complex call (specify)"
        } ]
      } ]
    }
  }, {
    "fullUrl": "urn:uuid:2594c75d-d1d1-4faf-875a-80789edd647a",
    "resource": {
      "resourceType": "Questionnaire",
      "id": "2594c75d-d1d1-4faf-875a-80789edd647a",
      "identifier": [ {
        "value": "8067b9b2-e604-4414-b56f-8e3cc4de4b1b"
      } ],
      "version": "2011-02-17T17:31:14.313Z",
      "status": "active",
      "experimental": false,
      "date": "2011-02-17T17:31:14+00:00",
      "publisher": "User ID: '3137' User name: 'redacted' User skill set: 'T1'",
      "lastReviewDate": "2011-02-17",
      "jurisdiction": [ {
        "text": "England"
      } ],
      "contact": [ {
        "telecom": [ {
          "system": "phone",
          "value": "redacted"
        } ]
      } ],
      "subjectType": [ "Patient" ],
      "item": [ {
        "linkId": "8067b9b2-e604-4414-b56f-8e3cc4de4b1b",
        "prefix": "50",
        "text": "WHAT IS THE REASON FOR TRANSFER TO A CLINICIAN?",
        "type": "choice",
        "required": true,
        "repeats": false,
        "option": [ {
          "valueString": "caller refuses disposition, Selected: false"
        }, {
          "valueString": "multiple unrelated symptoms, Selected: false"
        }, {
          "valueString": "difficulty obtaining adequate information, Selected: false"
        }, {
          "valueString": "medication or medical procedure enquiry, Selected: false"
        }, {
          "valueString": "declared medical history (details not required), Selected: false"
        }, {
          "valueString": "other complex call (specify), Selected: true"
        } ]
      } ]
    }
  }, {
    "fullUrl": "urn:uuid:d49cc910-1346-40b1-a38f-87e74c15d0ba",
    "resource": {
      "resourceType": "QuestionnaireResponse",
      "id": "d49cc910-1346-40b1-a38f-87e74c15d0ba",
      "identifier": {
        "value": "8067b9b2-e604-4414-b56f-8e3cc4de4b1b"
      },
      "questionnaire": {
        "reference": "urn:uuid:bb582bed-2001-4a99-b9ad-963d0561a6c5"
      },
      "status": "completed",
      "subject": {
        "reference": "urn:uuid:2b92416d-1292-4bd9-ba78-cbe02fcd1978"
      },
      "context": {
        "reference": "urn:uuid:d4eca483-e0b4-40f1-80c4-14e30c310c1b"
      },
      "authored": "2011-02-17T17:31:14+00:00",
      "item": [ {
        "linkId": "N/A",
        "text": "Speak to Clinician from our Service immediately"
      } ]
    }
  }, {
    "fullUrl": "urn:uuid:bb582bed-2001-4a99-b9ad-963d0561a6c5",
    "resource": {
      "resourceType": "Questionnaire",
      "id": "bb582bed-2001-4a99-b9ad-963d0561a6c5",
      "identifier": [ {
        "value": "8067b9b2-e604-4414-b56f-8e3cc4de4b1b"
      } ],
      "version": "2011-02-17T17:31:14.313Z",
      "status": "active",
      "experimental": false,
      "date": "2011-02-17T17:31:14+00:00",
      "publisher": "User ID: '3137' User name: 'redacted' User skill set: 'T1'",
      "lastReviewDate": "2011-02-17",
      "jurisdiction": [ {
        "text": "England"
      } ],
      "contact": [ {
        "telecom": [ {
          "system": "phone",
          "value": "redacted"
        } ]
      } ],
      "subjectType": [ "Patient" ],
      "item": [ {
        "linkId": "8067b9b2-e604-4414-b56f-8e3cc4de4b1b",
        "prefix": "0",
        "text": "Speak to Clinician from our Service immediately",
        "type": "choice",
        "required": true,
        "repeats": false,
        "option": [ {
          "valueString": ", Selected: false"
        } ]
      } ]
    }
  }, {
    "fullUrl": "urn:uuid:af23cfd5-b98d-4825-83f0-d43bdcc5b857",
    "resource": {
      "resourceType": "QuestionnaireResponse",
      "id": "af23cfd5-b98d-4825-83f0-d43bdcc5b857",
      "identifier": {
        "value": "8067b9b2-e604-4414-b56f-8e3cc4de4b1b"
      },
      "questionnaire": {
        "reference": "urn:uuid:32d560a1-8e1a-4818-bd6e-d61170470ee5"
      },
      "status": "completed",
      "subject": {
        "reference": "urn:uuid:2b92416d-1292-4bd9-ba78-cbe02fcd1978"
      },
      "context": {
        "reference": "urn:uuid:d4eca483-e0b4-40f1-80c4-14e30c310c1b"
      },
      "authored": "2011-02-17T17:31:14+00:00",
      "item": [ {
        "linkId": "N/A"
      } ]
    }
  }, {
    "fullUrl": "urn:uuid:32d560a1-8e1a-4818-bd6e-d61170470ee5",
    "resource": {
      "resourceType": "Questionnaire",
      "id": "32d560a1-8e1a-4818-bd6e-d61170470ee5",
      "identifier": [ {
        "value": "8067b9b2-e604-4414-b56f-8e3cc4de4b1b"
      } ],
      "version": "2011-02-17T17:31:14.313Z",
      "status": "active",
      "experimental": false,
      "date": "2011-02-17T17:31:14+00:00",
      "publisher": "User ID: '3137' User name: 'redacted' User skill set: 'T1'",
      "lastReviewDate": "2011-02-17",
      "jurisdiction": [ {
        "text": "England"
      } ],
      "contact": [ {
        "telecom": [ {
          "system": "phone",
          "value": "redacted"
        } ]
      } ],
      "subjectType": [ "Patient" ],
      "item": [ {
        "linkId": "8067b9b2-e604-4414-b56f-8e3cc4de4b1b",
        "prefix": "0",
        "type": "choice",
        "required": true,
        "repeats": false,
        "option": [ {
          "valueString": ", Selected: false"
        } ]
      } ]
    }
  }, {
    "fullUrl": "urn:uuid:0a4537d4-c117-4b3d-9e0f-739aefd49bc3",
    "resource": {
      "resourceType": "QuestionnaireResponse",
      "id": "0a4537d4-c117-4b3d-9e0f-739aefd49bc3",
      "identifier": {
        "value": "8067b9b2-e604-4414-b56f-8e3cc4de4b1b"
      },
      "questionnaire": {
        "reference": "urn:uuid:e6b703eb-4433-487d-93fa-9a24a607bd44"
      },
      "status": "completed",
      "subject": {
        "reference": "urn:uuid:2b92416d-1292-4bd9-ba78-cbe02fcd1978"
      },
      "context": {
        "reference": "urn:uuid:d4eca483-e0b4-40f1-80c4-14e30c310c1b"
      },
      "authored": "2011-02-17T17:31:14+00:00",
      "item": [ {
        "linkId": "N/A"
      } ]
    }
  }, {
    "fullUrl": "urn:uuid:e6b703eb-4433-487d-93fa-9a24a607bd44",
    "resource": {
      "resourceType": "Questionnaire",
      "id": "e6b703eb-4433-487d-93fa-9a24a607bd44",
      "identifier": [ {
        "value": "8067b9b2-e604-4414-b56f-8e3cc4de4b1b"
      } ],
      "version": "2011-02-17T17:31:14.313Z",
      "status": "active",
      "experimental": false,
      "date": "2011-02-17T17:31:14+00:00",
      "publisher": "User ID: '3137' User name: 'redacted' User skill set: 'T1'",
      "lastReviewDate": "2011-02-17",
      "jurisdiction": [ {
        "text": "England"
      } ],
      "contact": [ {
        "telecom": [ {
          "system": "phone",
          "value": "redacted"
        } ]
      } ],
      "subjectType": [ "Patient" ],
      "item": [ {
        "linkId": "8067b9b2-e604-4414-b56f-8e3cc4de4b1b",
        "prefix": "0",
        "type": "choice",
        "required": true,
        "repeats": false,
        "option": [ {
          "valueString": ", Selected: false"
        } ]
      } ]
    }
  }, {
    "fullUrl": "urn:uuid:8bffc668-a57d-4f85-8ac5-9d743c6db7b7",
    "resource": {
      "resourceType": "QuestionnaireResponse",
      "id": "8bffc668-a57d-4f85-8ac5-9d743c6db7b7",
      "identifier": {
        "value": "8067b9b2-e604-4414-b56f-8e3cc4de4b1b"
      },
      "questionnaire": {
        "reference": "urn:uuid:353d9740-a305-40f1-93f9-4f6570da683e"
      },
      "status": "completed",
      "subject": {
        "reference": "urn:uuid:2b92416d-1292-4bd9-ba78-cbe02fcd1978"
      },
      "context": {
        "reference": "urn:uuid:d4eca483-e0b4-40f1-80c4-14e30c310c1b"
      },
      "authored": "2011-02-17T17:31:14+00:00",
      "item": [ {
        "linkId": "Tx220109",
        "text": "What is the reason for the call?",
        "answer": [ {
          "valueString": "an injury or other health problem"
        } ]
      } ]
    }
  }, {
    "fullUrl": "urn:uuid:353d9740-a305-40f1-93f9-4f6570da683e",
    "resource": {
      "resourceType": "Questionnaire",
      "id": "353d9740-a305-40f1-93f9-4f6570da683e",
      "identifier": [ {
        "value": "8067b9b2-e604-4414-b56f-8e3cc4de4b1b"
      } ],
      "version": "2011-02-17T17:31:14.313Z",
      "status": "active",
      "experimental": false,
      "date": "2011-02-17T17:31:14+00:00",
      "publisher": "User ID: '3137' User name: 'redacted' User skill set: 'T1'",
      "lastReviewDate": "2011-02-17",
      "jurisdiction": [ {
        "text": "England"
      } ],
      "contact": [ {
        "telecom": [ {
          "system": "phone",
          "value": "redacted"
        } ]
      } ],
      "subjectType": [ "Patient" ],
      "item": [ {
        "linkId": "8067b9b2-e604-4414-b56f-8e3cc4de4b1b",
        "prefix": "5",
        "text": "What is the reason for the call?",
        "type": "choice",
        "required": true,
        "repeats": false,
        "option": [ {
          "valueString": "an injury or other health problem, Selected: true"
        }, {
          "valueString": "a need to access another healthcare provider, Selected: false"
        }, {
          "valueString": "a healthcare professional requesting contact with another clinician, Selected: false"
        }, {
          "valueString": "a report of results or tests, Selected: false"
        }, {
          "valueString": "more, Selected: false"
        } ]
      } ]
    }
  }, {
    "fullUrl": "urn:uuid:ba084c1f-8fac-4b7b-b764-832ba936b9eb",
    "resource": {
      "resourceType": "QuestionnaireResponse",
      "id": "ba084c1f-8fac-4b7b-b764-832ba936b9eb",
      "identifier": {
        "value": "8067b9b2-e604-4414-b56f-8e3cc4de4b1b"
      },
      "questionnaire": {
        "reference": "urn:uuid:987404f6-9d05-4e14-8b46-f1f3103e1571"
      },
      "status": "completed",
      "subject": {
        "reference": "urn:uuid:2b92416d-1292-4bd9-ba78-cbe02fcd1978"
      },
      "context": {
        "reference": "urn:uuid:d4eca483-e0b4-40f1-80c4-14e30c310c1b"
      },
      "authored": "2011-02-17T17:31:14+00:00",
      "item": [ {
        "linkId": "Tx140118",
        "text": "Has the baby just been born?",
        "answer": [ {
          "valueString": "no"
        } ]
      } ]
    }
  }, {
    "fullUrl": "urn:uuid:987404f6-9d05-4e14-8b46-f1f3103e1571",
    "resource": {
      "resourceType": "Questionnaire",
      "id": "987404f6-9d05-4e14-8b46-f1f3103e1571",
      "identifier": [ {
        "value": "8067b9b2-e604-4414-b56f-8e3cc4de4b1b"
      } ],
      "version": "2011-02-17T17:31:14.313Z",
      "status": "active",
      "experimental": false,
      "date": "2011-02-17T17:31:14+00:00",
      "publisher": "User ID: '3137' User name: 'redacted' User skill set: 'T1'",
      "lastReviewDate": "2011-02-17",
      "jurisdiction": [ {
        "text": "England"
      } ],
      "contact": [ {
        "telecom": [ {
          "system": "phone",
          "value": "redacted"
        } ]
      } ],
      "subjectType": [ "Patient" ],
      "item": [ {
        "linkId": "8067b9b2-e604-4414-b56f-8e3cc4de4b1b",
        "prefix": "35",
        "text": "Has the baby just been born?",
        "type": "choice",
        "required": true,
        "repeats": false,
        "option": [ {
          "valueString": "yes, Selected: false"
        }, {
          "valueString": "not sure, Selected: false"
        }, {
          "valueString": "no, Selected: true"
        } ]
      } ]
    }
  }, {
    "fullUrl": "urn:uuid:24e8fc25-5d3a-4ada-9545-af0d0ca99424",
    "resource": {
      "resourceType": "QuestionnaireResponse",
      "id": "24e8fc25-5d3a-4ada-9545-af0d0ca99424",
      "identifier": {
        "value": "8067b9b2-e604-4414-b56f-8e3cc4de4b1b"
      },
      "questionnaire": {
        "reference": "urn:uuid:c5c19629-913b-4f5a-9523-bb1ba2ff211a"
      },
      "status": "completed",
      "subject": {
        "reference": "urn:uuid:2b92416d-1292-4bd9-ba78-cbe02fcd1978"
      },
      "context": {
        "reference": "urn:uuid:d4eca483-e0b4-40f1-80c4-14e30c310c1b"
      },
      "authored": "2011-02-17T17:31:14+00:00",
      "item": [ {
        "linkId": "Tx220110",
        "text": "Is he breathing and conscious?",
        "answer": [ {
          "valueString": "breathing AND conscious"
        } ]
      } ]
    }
  }, {
    "fullUrl": "urn:uuid:c5c19629-913b-4f5a-9523-bb1ba2ff211a",
    "resource": {
      "resourceType": "Questionnaire",
      "id": "c5c19629-913b-4f5a-9523-bb1ba2ff211a",
      "identifier": [ {
        "value": "8067b9b2-e604-4414-b56f-8e3cc4de4b1b"
      } ],
      "version": "2011-02-17T17:31:14.313Z",
      "status": "active",
      "experimental": false,
      "date": "2011-02-17T17:31:14+00:00",
      "publisher": "User ID: '3137' User name: 'redacted' User skill set: 'T1'",
      "lastReviewDate": "2011-02-17",
      "jurisdiction": [ {
        "text": "England"
      } ],
      "contact": [ {
        "telecom": [ {
          "system": "phone",
          "value": "redacted"
        } ]
      } ],
      "subjectType": [ "Patient" ],
      "item": [ {
        "linkId": "8067b9b2-e604-4414-b56f-8e3cc4de4b1b",
        "prefix": "40",
        "text": "Is he breathing and conscious?",
        "type": "choice",
        "required": true,
        "repeats": false,
        "option": [ {
          "valueString": "breathing AND conscious, Selected: true"
        }, {
          "valueString": "breathing but NOT conscious (includes current fitting), Selected: false"
        }, {
          "valueString": "NOT breathing, Selected: false"
        }, {
          "valueString": "choking now, Selected: false"
        } ]
      } ]
    }
  }, {
    "fullUrl": "urn:uuid:ace086a8-45e0-482f-ba44-e5156c5cb3de",
    "resource": {
      "resourceType": "QuestionnaireResponse",
      "id": "ace086a8-45e0-482f-ba44-e5156c5cb3de",
      "identifier": {
        "value": "8067b9b2-e604-4414-b56f-8e3cc4de4b1b"
      },
      "questionnaire": {
        "reference": "urn:uuid:5a9e4351-562a-4a49-9225-297ed6f5e062"
      },
      "status": "completed",
      "subject": {
        "reference": "urn:uuid:2b92416d-1292-4bd9-ba78-cbe02fcd1978"
      },
      "context": {
        "reference": "urn:uuid:d4eca483-e0b4-40f1-80c4-14e30c310c1b"
      },
      "authored": "2011-02-17T17:31:14+00:00",
      "item": [ {
        "linkId": "Tx220285",
        "text": "Has he been bleeding very heavily IN THE LAST HOUR?",
        "answer": [ {
          "valueString": "an egg cupful or more from a wound"
        } ]
      } ]
    }
  }, {
    "fullUrl": "urn:uuid:5a9e4351-562a-4a49-9225-297ed6f5e062",
    "resource": {
      "resourceType": "Questionnaire",
      "id": "5a9e4351-562a-4a49-9225-297ed6f5e062",
      "identifier": [ {
        "value": "8067b9b2-e604-4414-b56f-8e3cc4de4b1b"
      } ],
      "version": "2011-02-17T17:31:14.313Z",
      "status": "active",
      "experimental": false,
      "date": "2011-02-17T17:31:14+00:00",
      "publisher": "User ID: '3137' User name: 'redacted' User skill set: 'T1'",
      "lastReviewDate": "2011-02-17",
      "jurisdiction": [ {
        "text": "England"
      } ],
      "contact": [ {
        "telecom": [ {
          "system": "phone",
          "value": "redacted"
        } ]
      } ],
      "subjectType": [ "Patient" ],
      "item": [ {
        "linkId": "8067b9b2-e604-4414-b56f-8e3cc4de4b1b",
        "prefix": "60",
        "text": "Has he been bleeding very heavily IN THE LAST HOUR?",
        "type": "choice",
        "required": true,
        "repeats": false,
        "option": [ {
          "valueString": "blood spurting from a wound, Selected: false"
        }, {
          "valueString": "an egg cupful or more of red blood from a body opening, Selected: false"
        }, {
          "valueString": "an egg cupful or more from a wound, Selected: true"
        }, {
          "valueString": "not sure, Selected: false"
        }, {
          "valueString": "no, Selected: false"
        } ]
      } ]
    }
  }, {
    "fullUrl": "urn:uuid:4e2e4139-3450-4472-93a5-0902d9abb8ad",
    "resource": {
      "resourceType": "QuestionnaireResponse",
      "id": "4e2e4139-3450-4472-93a5-0902d9abb8ad",
      "identifier": {
        "value": "8067b9b2-e604-4414-b56f-8e3cc4de4b1b"
      },
      "questionnaire": {
        "reference": "urn:uuid:3912904f-88cb-43e4-b422-0e687291baea"
      },
      "status": "completed",
      "subject": {
        "reference": "urn:uuid:2b92416d-1292-4bd9-ba78-cbe02fcd1978"
      },
      "context": {
        "reference": "urn:uuid:d4eca483-e0b4-40f1-80c4-14e30c310c1b"
      },
      "authored": "2011-02-17T17:31:14+00:00",
      "item": [ {
        "linkId": "Tx140109",
        "text": "Is he fighting desperately for every breath?",
        "answer": [ {
          "valueString": "no"
        } ]
      } ]
    }
  }, {
    "fullUrl": "urn:uuid:3912904f-88cb-43e4-b422-0e687291baea",
    "resource": {
      "resourceType": "Questionnaire",
      "id": "3912904f-88cb-43e4-b422-0e687291baea",
      "identifier": [ {
        "value": "8067b9b2-e604-4414-b56f-8e3cc4de4b1b"
      } ],
      "version": "2011-02-17T17:31:14.313Z",
      "status": "active",
      "experimental": false,
      "date": "2011-02-17T17:31:14+00:00",
      "publisher": "User ID: '3137' User name: 'redacted' User skill set: 'T1'",
      "lastReviewDate": "2011-02-17",
      "jurisdiction": [ {
        "text": "England"
      } ],
      "contact": [ {
        "telecom": [ {
          "system": "phone",
          "value": "redacted"
        } ]
      } ],
      "subjectType": [ "Patient" ],
      "item": [ {
        "linkId": "8067b9b2-e604-4414-b56f-8e3cc4de4b1b",
        "prefix": "20000",
        "text": "Is he fighting desperately for every breath?",
        "type": "choice",
        "required": true,
        "repeats": false,
        "option": [ {
          "valueString": "yes, Selected: false"
        }, {
          "valueString": "not sure, Selected: false"
        }, {
          "valueString": "no, Selected: true"
        } ]
      } ]
    }
  }, {
    "fullUrl": "urn:uuid:20ca30bc-58b6-4914-8176-69f38132e4aa",
    "resource": {
      "resourceType": "QuestionnaireResponse",
      "id": "20ca30bc-58b6-4914-8176-69f38132e4aa",
      "identifier": {
        "value": "8067b9b2-e604-4414-b56f-8e3cc4de4b1b"
      },
      "questionnaire": {
        "reference": "urn:uuid:a5c6bc69-a608-429b-b24c-1266a6b3db52"
      },
      "status": "completed",
      "subject": {
        "reference": "urn:uuid:2b92416d-1292-4bd9-ba78-cbe02fcd1978"
      },
      "context": {
        "reference": "urn:uuid:d4eca483-e0b4-40f1-80c4-14e30c310c1b"
      },
      "authored": "2011-02-17T17:31:14+00:00",
      "item": [ {
        "linkId": "Tx220563",
        "text": "Is he limp, floppy and/or unresponsive?",
        "answer": [ {
          "valueString": "no"
        } ]
      } ]
    }
  }, {
    "fullUrl": "urn:uuid:a5c6bc69-a608-429b-b24c-1266a6b3db52",
    "resource": {
      "resourceType": "Questionnaire",
      "id": "a5c6bc69-a608-429b-b24c-1266a6b3db52",
      "identifier": [ {
        "value": "8067b9b2-e604-4414-b56f-8e3cc4de4b1b"
      } ],
      "version": "2011-02-17T17:31:14.313Z",
      "status": "active",
      "experimental": false,
      "date": "2011-02-17T17:31:14+00:00",
      "publisher": "User ID: '3137' User name: 'redacted' User skill set: 'T1'",
      "lastReviewDate": "2011-02-17",
      "jurisdiction": [ {
        "text": "England"
      } ],
      "contact": [ {
        "telecom": [ {
          "system": "phone",
          "value": "redacted"
        } ]
      } ],
      "subjectType": [ "Patient" ],
      "item": [ {
        "linkId": "8067b9b2-e604-4414-b56f-8e3cc4de4b1b",
        "prefix": "20400",
        "text": "Is he limp, floppy and/or unresponsive?",
        "type": "choice",
        "required": true,
        "repeats": false,
        "option": [ {
          "valueString": "yes, Selected: false"
        }, {
          "valueString": "not sure, Selected: false"
        }, {
          "valueString": "no, Selected: true"
        } ]
      } ]
    }
  }, {
    "fullUrl": "urn:uuid:06eb62f1-8c5b-44ee-9310-274b70de7445",
    "resource": {
      "resourceType": "QuestionnaireResponse",
      "id": "06eb62f1-8c5b-44ee-9310-274b70de7445",
      "identifier": {
        "value": "8067b9b2-e604-4414-b56f-8e3cc4de4b1b"
      },
      "questionnaire": {
        "reference": "urn:uuid:a6a5a70a-4bff-46bf-8d7d-6ccfbf301b08"
      },
      "status": "completed",
      "subject": {
        "reference": "urn:uuid:2b92416d-1292-4bd9-ba78-cbe02fcd1978"
      },
      "context": {
        "reference": "urn:uuid:d4eca483-e0b4-40f1-80c4-14e30c310c1b"
      },
      "authored": "2011-02-17T17:31:14+00:00",
      "item": [ {
        "linkId": "Tx220561",
        "text": "Is he warm to touch?",
        "answer": [ {
          "valueString": "yes"
        } ]
      } ]
    }
  }, {
    "fullUrl": "urn:uuid:a6a5a70a-4bff-46bf-8d7d-6ccfbf301b08",
    "resource": {
      "resourceType": "Questionnaire",
      "id": "a6a5a70a-4bff-46bf-8d7d-6ccfbf301b08",
      "identifier": [ {
        "value": "8067b9b2-e604-4414-b56f-8e3cc4de4b1b"
      } ],
      "version": "2011-02-17T17:31:14.313Z",
      "status": "active",
      "experimental": false,
      "date": "2011-02-17T17:31:14+00:00",
      "publisher": "User ID: '3137' User name: 'redacted' User skill set: 'T1'",
      "lastReviewDate": "2011-02-17",
      "jurisdiction": [ {
        "text": "England"
      } ],
      "contact": [ {
        "telecom": [ {
          "system": "phone",
          "value": "redacted"
        } ]
      } ],
      "subjectType": [ "Patient" ],
      "item": [ {
        "linkId": "8067b9b2-e604-4414-b56f-8e3cc4de4b1b",
        "prefix": "20450",
        "text": "Is he warm to touch?",
        "type": "choice",
        "required": true,
        "repeats": false,
        "option": [ {
          "valueString": "yes, Selected: true"
        }, {
          "valueString": "not sure, Selected: false"
        }, {
          "valueString": "no, Selected: false"
        }, {
          "valueString": "not safe to touch, Selected: false"
        } ]
      } ]
    }
  }, {
    "fullUrl": "urn:uuid:89c79e7f-7dfc-4008-ac49-98d2c905ef58",
    "resource": {
      "resourceType": "QuestionnaireResponse",
      "id": "89c79e7f-7dfc-4008-ac49-98d2c905ef58",
      "identifier": {
        "value": "8067b9b2-e604-4414-b56f-8e3cc4de4b1b"
      },
      "questionnaire": {
        "reference": "urn:uuid:19db1b37-9420-42c7-8ed6-4b6f7420a51a"
      },
      "status": "completed",
      "subject": {
        "reference": "urn:uuid:2b92416d-1292-4bd9-ba78-cbe02fcd1978"
      },
      "context": {
        "reference": "urn:uuid:d4eca483-e0b4-40f1-80c4-14e30c310c1b"
      },
      "authored": "2011-02-17T17:31:14+00:00",
      "item": [ {
        "linkId": "Tx120019",
        "text": "Was the injury caused by any of the following?",
        "answer": [ {
          "valueString": "no"
        } ]
      } ]
    }
  }, {
    "fullUrl": "urn:uuid:19db1b37-9420-42c7-8ed6-4b6f7420a51a",
    "resource": {
      "resourceType": "Questionnaire",
      "id": "19db1b37-9420-42c7-8ed6-4b6f7420a51a",
      "identifier": [ {
        "value": "8067b9b2-e604-4414-b56f-8e3cc4de4b1b"
      } ],
      "version": "2011-02-17T17:31:14.313Z",
      "status": "active",
      "experimental": false,
      "date": "2011-02-17T17:31:14+00:00",
      "publisher": "User ID: '3137' User name: 'redacted' User skill set: 'T1'",
      "lastReviewDate": "2011-02-17",
      "jurisdiction": [ {
        "text": "England"
      } ],
      "contact": [ {
        "telecom": [ {
          "system": "phone",
          "value": "redacted"
        } ]
      } ],
      "subjectType": [ "Patient" ],
      "item": [ {
        "linkId": "8067b9b2-e604-4414-b56f-8e3cc4de4b1b",
        "prefix": "20800",
        "text": "Was the injury caused by any of the following?",
        "type": "choice",
        "required": true,
        "repeats": false,
        "option": [ {
          "valueString": "a gunshot, Selected: false"
        }, {
          "valueString": "a stabbing, Selected: false"
        }, {
          "valueString": "being ejected from a vehicle, Selected: false"
        }, {
          "valueString": "not sure, Selected: false"
        }, {
          "valueString": "no, Selected: true"
        } ]
      } ]
    }
  }, {
    "fullUrl": "urn:uuid:1c0712db-9919-44b7-ae12-3983b86b7845",
    "resource": {
      "resourceType": "QuestionnaireResponse",
      "id": "1c0712db-9919-44b7-ae12-3983b86b7845",
      "identifier": {
        "value": "8067b9b2-e604-4414-b56f-8e3cc4de4b1b"
      },
      "questionnaire": {
        "reference": "urn:uuid:b7452fa7-69c2-4ec9-a60b-64eaa2c32593"
      },
      "status": "completed",
      "subject": {
        "reference": "urn:uuid:2b92416d-1292-4bd9-ba78-cbe02fcd1978"
      },
      "context": {
        "reference": "urn:uuid:d4eca483-e0b4-40f1-80c4-14e30c310c1b"
      },
      "authored": "2011-02-17T17:31:14+00:00",
      "item": [ {
        "linkId": "Tx220286",
        "text": "DID THE INJURY INVOLVE ANY OF THE FOLLOWING?",
        "answer": [ {
          "valueString": "no"
        } ]
      } ]
    }
  }, {
    "fullUrl": "urn:uuid:b7452fa7-69c2-4ec9-a60b-64eaa2c32593",
    "resource": {
      "resourceType": "Questionnaire",
      "id": "b7452fa7-69c2-4ec9-a60b-64eaa2c32593",
      "identifier": [ {
        "value": "8067b9b2-e604-4414-b56f-8e3cc4de4b1b"
      } ],
      "version": "2011-02-17T17:31:14.313Z",
      "status": "active",
      "experimental": false,
      "date": "2011-02-17T17:31:14+00:00",
      "publisher": "User ID: '3137' User name: 'redacted' User skill set: 'T1'",
      "lastReviewDate": "2011-02-17",
      "jurisdiction": [ {
        "text": "England"
      } ],
      "contact": [ {
        "telecom": [ {
          "system": "phone",
          "value": "redacted"
        } ]
      } ],
      "subjectType": [ "Patient" ],
      "item": [ {
        "linkId": "8067b9b2-e604-4414-b56f-8e3cc4de4b1b",
        "prefix": "23100",
        "text": "DID THE INJURY INVOLVE ANY OF THE FOLLOWING?",
        "type": "choice",
        "required": true,
        "repeats": false,
        "option": [ {
          "valueString": "a fall of 5 metres or more (specify), Selected: false"
        }, {
          "valueString": "multiple major injuries (specify), Selected: false"
        }, {
          "valueString": "major wound or amputation - not just involving a single finger or toe (specify), Selected: false"
        }, {
          "valueString": "being knocked over by a blast (specify), Selected: false"
        }, {
          "valueString": "not sure, Selected: false"
        }, {
          "valueString": "no, Selected: true"
        } ]
      } ]
    }
  }, {
    "fullUrl": "urn:uuid:96d271d9-da60-47cc-a0ae-9c7cea838a02",
    "resource": {
      "resourceType": "QuestionnaireResponse",
      "id": "96d271d9-da60-47cc-a0ae-9c7cea838a02",
      "identifier": {
        "value": "8067b9b2-e604-4414-b56f-8e3cc4de4b1b"
      },
      "questionnaire": {
        "reference": "urn:uuid:7f23acd2-111b-4095-8bdd-fdba188e8819"
      },
      "status": "completed",
      "subject": {
        "reference": "urn:uuid:2b92416d-1292-4bd9-ba78-cbe02fcd1978"
      },
      "context": {
        "reference": "urn:uuid:d4eca483-e0b4-40f1-80c4-14e30c310c1b"
      },
      "authored": "2011-02-17T17:31:14+00:00",
      "item": [ {
        "linkId": "Tx140159",
        "text": "What is the reason for ending the assessment?",
        "answer": [ {
          "valueString": "transfer to a clinician"
        } ]
      } ]
    }
  }, {
    "fullUrl": "urn:uuid:7f23acd2-111b-4095-8bdd-fdba188e8819",
    "resource": {
      "resourceType": "Questionnaire",
      "id": "7f23acd2-111b-4095-8bdd-fdba188e8819",
      "identifier": [ {
        "value": "8067b9b2-e604-4414-b56f-8e3cc4de4b1b"
      } ],
      "version": "2011-02-17T17:31:14.313Z",
      "status": "active",
      "experimental": false,
      "date": "2011-02-17T17:31:14+00:00",
      "publisher": "User ID: '3137' User name: 'redacted' User skill set: 'T1'",
      "lastReviewDate": "2011-02-17",
      "jurisdiction": [ {
        "text": "England"
      } ],
      "contact": [ {
        "telecom": [ {
          "system": "phone",
          "value": "redacted"
        } ]
      } ],
      "subjectType": [ "Patient" ],
      "item": [ {
        "linkId": "8067b9b2-e604-4414-b56f-8e3cc4de4b1b",
        "prefix": "0",
        "text": "What is the reason for ending the assessment?",
        "type": "choice",
        "required": true,
        "repeats": false,
        "option": [ {
          "valueString": "the phone line went dead, Selected: false"
        }, {
          "valueString": "the caller terminated the call (specify), Selected: false"
        }, {
          "valueString": "I terminated the call (specify), Selected: false"
        }, {
          "valueString": "triage not possible, Selected: false"
        }, {
          "valueString": "transfer to a clinician, Selected: true"
        } ]
      } ]
    }
  }, {
    "fullUrl": "urn:uuid:c5b8a53e-142d-4be0-9b90-50243e7b7759",
    "resource": {
      "resourceType": "QuestionnaireResponse",
      "id": "c5b8a53e-142d-4be0-9b90-50243e7b7759",
      "identifier": {
        "value": "8067b9b2-e604-4414-b56f-8e3cc4de4b1b"
      },
      "questionnaire": {
        "reference": "urn:uuid:da80095f-5800-4ad1-b23b-f201e5cdc3b9"
      },
      "status": "completed",
      "subject": {
        "reference": "urn:uuid:2b92416d-1292-4bd9-ba78-cbe02fcd1978"
      },
      "context": {
        "reference": "urn:uuid:d4eca483-e0b4-40f1-80c4-14e30c310c1b"
      },
      "authored": "2011-02-17T17:31:14+00:00",
      "item": [ {
        "linkId": "Tx220286",
        "text": "DID THE INJURY INVOLVE ANY OF THE FOLLOWING?",
        "answer": [ {
          "valueString": "no"
        } ]
      } ]
    }
  }, {
    "fullUrl": "urn:uuid:da80095f-5800-4ad1-b23b-f201e5cdc3b9",
    "resource": {
      "resourceType": "Questionnaire",
      "id": "da80095f-5800-4ad1-b23b-f201e5cdc3b9",
      "identifier": [ {
        "value": "8067b9b2-e604-4414-b56f-8e3cc4de4b1b"
      } ],
      "version": "2011-02-17T17:31:14.313Z",
      "status": "active",
      "experimental": false,
      "date": "2011-02-17T17:31:14+00:00",
      "publisher": "User ID: '3137' User name: 'redacted' User skill set: 'T1'",
      "lastReviewDate": "2011-02-17",
      "jurisdiction": [ {
        "text": "England"
      } ],
      "contact": [ {
        "telecom": [ {
          "system": "phone",
          "value": "redacted"
        } ]
      } ],
      "subjectType": [ "Patient" ],
      "item": [ {
        "linkId": "8067b9b2-e604-4414-b56f-8e3cc4de4b1b",
        "prefix": "23100",
        "text": "DID THE INJURY INVOLVE ANY OF THE FOLLOWING?",
        "type": "choice",
        "required": true,
        "repeats": false,
        "option": [ {
          "valueString": "a fall of 5 metres or more (specify), Selected: false"
        }, {
          "valueString": "multiple major injuries (specify), Selected: false"
        }, {
          "valueString": "major wound or amputation - not just involving a single finger or toe (specify), Selected: false"
        }, {
          "valueString": "being knocked over by a blast (specify), Selected: false"
        }, {
          "valueString": "not sure, Selected: false"
        }, {
          "valueString": "no, Selected: true"
        } ]
      } ]
    }
  }, {
    "fullUrl": "urn:uuid:70312abc-dd3c-4ad6-b909-499f7cc1c92d",
    "resource": {
      "resourceType": "QuestionnaireResponse",
      "id": "70312abc-dd3c-4ad6-b909-499f7cc1c92d",
      "identifier": {
        "value": "8067b9b2-e604-4414-b56f-8e3cc4de4b1b"
      },
      "questionnaire": {
        "reference": "urn:uuid:16f8d4d5-4b49-46c0-817a-ccd669637269"
      },
      "status": "completed",
      "subject": {
        "reference": "urn:uuid:2b92416d-1292-4bd9-ba78-cbe02fcd1978"
      },
      "context": {
        "reference": "urn:uuid:d4eca483-e0b4-40f1-80c4-14e30c310c1b"
      },
      "authored": "2011-02-17T17:31:14+00:00",
      "item": [ {
        "linkId": "N/A",
        "text": "Dispatch 19 minute ambulance"
      } ]
    }
  }, {
    "fullUrl": "urn:uuid:16f8d4d5-4b49-46c0-817a-ccd669637269",
    "resource": {
      "resourceType": "Questionnaire",
      "id": "16f8d4d5-4b49-46c0-817a-ccd669637269",
      "identifier": [ {
        "value": "8067b9b2-e604-4414-b56f-8e3cc4de4b1b"
      } ],
      "version": "2011-02-17T17:31:14.313Z",
      "status": "active",
      "experimental": false,
      "date": "2011-02-17T17:31:14+00:00",
      "publisher": "User ID: '3137' User name: 'redacted' User skill set: 'T1'",
      "lastReviewDate": "2011-02-17",
      "jurisdiction": [ {
        "text": "England"
      } ],
      "contact": [ {
        "telecom": [ {
          "system": "phone",
          "value": "redacted"
        } ]
      } ],
      "subjectType": [ "Patient" ],
      "item": [ {
        "linkId": "8067b9b2-e604-4414-b56f-8e3cc4de4b1b",
        "prefix": "24100",
        "text": "Dispatch 19 minute ambulance",
        "type": "choice",
        "required": true,
        "repeats": false,
        "option": [ {
          "valueString": ", Selected: false"
        } ]
      } ]
    }
  }, {
    "fullUrl": "urn:uuid:6bc42278-1d2a-4418-b78e-4b5fd18cf60f",
    "resource": {
      "resourceType": "PractitionerRole",
      "id": "6bc42278-1d2a-4418-b78e-4b5fd18cf60f",
      "practitioner": {
        "reference": "urn:uuid:73f7dacf-58fe-47a4-b956-634b55954ad7"
      },
      "organization": {
        "reference": "urn:uuid:3fa7eacb-1899-45a9-9960-2ad95094d6e5"
      },
      "code": [ {
        "coding": [ {
          "system": "2.16.840.1.113883.2.1.3.2.4.17.196",
          "code": "T1",
          "display": "Nurse Triage Practitioner"
        } ]
      } ]
    }
  }, {
    "fullUrl": "urn:uuid:3fa7eacb-1899-45a9-9960-2ad95094d6e5",
    "resource": {
      "resourceType": "Organization",
      "id": "3fa7eacb-1899-45a9-9960-2ad95094d6e5",
      "identifier": [ {
        "value": "5L399"
      } ],
      "name": "Medway NHS Foundation Trust"
    }
  }, {
    "fullUrl": "urn:uuid:ea7f9413-4e1f-4167-89f4-133d3eefc936",
    "resource": {
      "resourceType": "PractitionerRole",
      "id": "ea7f9413-4e1f-4167-89f4-133d3eefc936",
      "practitioner": {
        "reference": "urn:uuid:501ecc35-a04a-48af-aedd-d722b9c9b4ae"
      },
      "organization": {
        "reference": "urn:uuid:3c6b41de-259d-4009-b8bc-d827fbfd2bc8"
      },
      "code": [ {
        "coding": [ {
          "system": "2.16.840.1.113883.2.1.3.2.4.17.196",
          "code": "R0010",
          "display": "Medical Director"
        } ]
      } ]
    }
  }, {
    "fullUrl": "urn:uuid:3c6b41de-259d-4009-b8bc-d827fbfd2bc8",
    "resource": {
      "resourceType": "Organization",
      "id": "3c6b41de-259d-4009-b8bc-d827fbfd2bc8",
      "identifier": [ {
        "value": "VDE232323"
      } ],
      "name": "Medway South Out of Hours Centre"
    }
  }, {
    "fullUrl": "urn:uuid:c11da552-1d85-471d-a56f-97cd8b74a945",
    "resource": {
      "resourceType": "Device",
      "id": "c11da552-1d85-471d-a56f-97cd8b74a945",
      "model": "111 Adaptor",
      "version": "0.9.0"
    }
  }, {
    "fullUrl": "urn:uuid:0b7edcdd-9242-42e5-96f7-6c3cb73cf295",
    "resource": {
      "resourceType": "List",
      "id": "0b7edcdd-9242-42e5-96f7-6c3cb73cf295",
      "status": "current",
      "mode": "working",
      "title": "111 Report List",
      "code": {
        "coding": [ {
          "system": "http://snomed.info/sct",
          "code": "225390008",
          "display": "Triage"
        } ]
      },
      "subject": {
        "reference": "urn:uuid:2b92416d-1292-4bd9-ba78-cbe02fcd1978"
      },
      "encounter": {
        "reference": "urn:uuid:d4eca483-e0b4-40f1-80c4-14e30c310c1b"
      },
      "date": "2021-09-29T10:03:00+00:00",
      "source": {
        "reference": "urn:uuid:c11da552-1d85-471d-a56f-97cd8b74a945"
      },
      "orderedBy": {
        "coding": [ {
          "system": "http://hl7.org/fhir/list-order",
          "code": "event-date",
          "display": "Sorted by Event Date"
        } ]
      },
      "entry": [ {
        "item": {
          "reference": "urn:uuid:298a81ab-0826-4af1-9a12-f8181e8bac46"
        }
      }, {
        "item": {
          "reference": "urn:uuid:3fa7eacb-1899-45a9-9960-2ad95094d6e5"
        }
      }, {
        "item": {
          "reference": "urn:uuid:501ecc35-a04a-48af-aedd-d722b9c9b4ae"
        }
      }, {
        "item": {
          "reference": "urn:uuid:7195f23f-99f7-45bf-8971-7452f9d6706d"
        }
      }, {
        "item": {
          "reference": "urn:uuid:bae7740a-bcf5-45b7-93b7-db2aedc1141b"
        }
      }, {
        "item": {
          "reference": "urn:uuid:d86ce095-72e8-43ca-88b8-ae9f2835d52d"
        }
      }, {
        "item": {
          "reference": "urn:uuid:acc99849-f298-42a7-933d-3be0a72fe663"
        }
      }, {
        "item": {
          "reference": "urn:uuid:3c6b41de-259d-4009-b8bc-d827fbfd2bc8"
        }
      }, {
        "item": {
          "reference": "urn:uuid:80ad7422-3663-4881-8c3f-382a44115b6e"
        }
      }, {
        "item": {
          "reference": "urn:uuid:73f7dacf-58fe-47a4-b956-634b55954ad7"
        }
      }, {
        "item": {
          "reference": "urn:uuid:cc3658a9-145b-49a5-a83f-7764f2124e3a"
        }
      }, {
        "item": {
          "reference": "urn:uuid:82ff3b64-9b4b-480a-8647-818e45fb3815"
        }
      }, {
        "item": {
          "reference": "urn:uuid:f6c20a4b-6d5a-408a-8324-efc6c39bafec"
        }
      }, {
        "item": {
          "reference": "urn:uuid:6a2e36ea-b6ba-4222-8d23-0d2876d8ab03"
        }
      }, {
        "item": {
          "reference": "urn:uuid:c5b8a53e-142d-4be0-9b90-50243e7b7759"
        }
      }, {
        "item": {
          "reference": "urn:uuid:70312abc-dd3c-4ad6-b909-499f7cc1c92d"
        }
      }, {
        "item": {
          "reference": "urn:uuid:2594c75d-d1d1-4faf-875a-80789edd647a"
        }
      }, {
        "item": {
          "reference": "urn:uuid:48b6a5e0-e64a-4532-bb74-9935252b6c10"
        }
      }, {
        "item": {
          "reference": "urn:uuid:f961a6e2-97cd-479f-adc2-fe1a333cc6be"
        }
      }, {
        "item": {
          "reference": "urn:uuid:c5c19629-913b-4f5a-9523-bb1ba2ff211a"
        }
      }, {
        "item": {
          "reference": "urn:uuid:3912904f-88cb-43e4-b422-0e687291baea"
        }
      }, {
        "item": {
          "reference": "urn:uuid:0a4537d4-c117-4b3d-9e0f-739aefd49bc3"
        }
      }, {
        "item": {
          "reference": "urn:uuid:8ddbf1f8-ef5e-426c-aa6e-620d1d877d3d"
        }
      }, {
        "item": {
          "reference": "urn:uuid:32d560a1-8e1a-4818-bd6e-d61170470ee5"
        }
      }, {
        "item": {
          "reference": "urn:uuid:9263ab98-c4ec-4049-99b0-0c9d0120739d"
        }
      }, {
        "item": {
          "reference": "urn:uuid:884c11fd-1c36-453a-958c-26afe927b0da"
        }
      }, {
        "item": {
          "reference": "urn:uuid:98af3b11-53a1-4934-aecb-20f3be809eed"
        }
      }, {
        "item": {
          "reference": "urn:uuid:2c200bff-62c3-452e-a8ce-cd064bcce573"
        }
      }, {
        "item": {
          "reference": "urn:uuid:7f23acd2-111b-4095-8bdd-fdba188e8819"
        }
      }, {
        "item": {
          "reference": "urn:uuid:353d9740-a305-40f1-93f9-4f6570da683e"
        }
      }, {
        "item": {
          "reference": "urn:uuid:1c0712db-9919-44b7-ae12-3983b86b7845"
        }
      }, {
        "item": {
          "reference": "urn:uuid:16f8d4d5-4b49-46c0-817a-ccd669637269"
        }
      }, {
        "item": {
          "reference": "urn:uuid:ace086a8-45e0-482f-ba44-e5156c5cb3de"
        }
      }, {
        "item": {
          "reference": "urn:uuid:a5c6bc69-a608-429b-b24c-1266a6b3db52"
        }
      }, {
        "item": {
          "reference": "urn:uuid:7cad7017-c5b8-47fa-ac06-1bd8f164442b"
        }
      }, {
        "item": {
          "reference": "urn:uuid:4e2e4139-3450-4472-93a5-0902d9abb8ad"
        }
      }, {
        "item": {
          "reference": "urn:uuid:5a9e4351-562a-4a49-9225-297ed6f5e062"
        }
      }, {
        "item": {
          "reference": "urn:uuid:a6a5a70a-4bff-46bf-8d7d-6ccfbf301b08"
        }
      }, {
        "item": {
          "reference": "urn:uuid:af23cfd5-b98d-4825-83f0-d43bdcc5b857"
        }
      }, {
        "item": {
          "reference": "urn:uuid:19db1b37-9420-42c7-8ed6-4b6f7420a51a"
        }
      }, {
        "item": {
          "reference": "urn:uuid:bb582bed-2001-4a99-b9ad-963d0561a6c5"
        }
      }, {
        "item": {
          "reference": "urn:uuid:24e8fc25-5d3a-4ada-9545-af0d0ca99424"
        }
      }, {
        "item": {
          "reference": "urn:uuid:8bffc668-a57d-4f85-8ac5-9d743c6db7b7"
        }
      }, {
        "item": {
          "reference": "urn:uuid:a25dd0ef-6301-44a7-a650-10dd7d655ae0"
        }
      }, {
        "item": {
          "reference": "urn:uuid:96d271d9-da60-47cc-a0ae-9c7cea838a02"
        }
      }, {
        "item": {
          "reference": "urn:uuid:b7452fa7-69c2-4ec9-a60b-64eaa2c32593"
        }
      }, {
        "item": {
          "reference": "urn:uuid:9b175f1c-1a4d-4602-9f1d-ed31238af966"
        }
      }, {
        "item": {
          "reference": "urn:uuid:16b4f55c-2b7b-4f16-8063-0738a709705c"
        }
      }, {
        "item": {
          "reference": "urn:uuid:06eb62f1-8c5b-44ee-9310-274b70de7445"
        }
      }, {
        "item": {
          "reference": "urn:uuid:4da57a51-6283-4c9f-92f1-ee678a68fba7"
        }
      }, {
        "item": {
          "reference": "urn:uuid:986df249-b0de-4d45-aee0-5f4254269550"
        }
      }, {
        "item": {
          "reference": "urn:uuid:e6b703eb-4433-487d-93fa-9a24a607bd44"
        }
      }, {
        "item": {
          "reference": "urn:uuid:7d86bf8c-feed-48a9-9409-7ad64da0a2a1"
        }
      }, {
        "item": {
          "reference": "urn:uuid:987404f6-9d05-4e14-8b46-f1f3103e1571"
        }
      }, {
        "item": {
          "reference": "urn:uuid:20ca30bc-58b6-4914-8176-69f38132e4aa"
        }
      }, {
        "item": {
          "reference": "urn:uuid:d6371d4b-e439-4384-bdc8-7d164435e292"
        }
      }, {
        "item": {
          "reference": "urn:uuid:a83584d6-32c0-4cd0-96e8-c31fa224dc25"
        }
      }, {
        "item": {
          "reference": "urn:uuid:905597f3-2e8f-475d-8418-4c34ad7dbc25"
        }
      }, {
        "item": {
          "reference": "urn:uuid:ba084c1f-8fac-4b7b-b764-832ba936b9eb"
        }
      }, {
        "item": {
          "reference": "urn:uuid:da80095f-5800-4ad1-b23b-f201e5cdc3b9"
        }
      }, {
        "item": {
          "reference": "urn:uuid:d49cc910-1346-40b1-a38f-87e74c15d0ba"
        }
      }, {
        "item": {
          "reference": "urn:uuid:89c79e7f-7dfc-4008-ac49-98d2c905ef58"
        }
      } ]
    }
  } ]
}