{
  "resourceType": "Bundle",
  "identifier": {
    "type": {
      "text": "ClinicalDocument VersionNumber"
    },
    "value": "2"
  },
  "type": "message",
  "entry": [ {
    "fullUrl": "urn:uuid:2B77B3F5-3016-4A6D-821F-152CE420E58D",
    "resource": {
      "resourceType": "MessageHeader",
      "id": "2B77B3F5-3016-4A6D-821F-152CE420E58D",
      "event": {
        "system": "https://fhir.nhs.uk/STU3/CodeSystem/EventType-1",
        "code": "referral-1",
        "display": "Referral"
      },
      "destination": [ {
        "endpoint": "urn:nhs-uk:addressing:ods:EM396"
      } ],
      "timestamp": "2017-01-01T20:00:00.000+00:00",
      "source": {
        "name": "NHS 111 Adaptor",
        "endpoint": "http://localhost:8080/report"
      },
      "reason": {
        "coding": [ {
          "system": "urn:nhs-itk:ns:201005:interaction",
          "code": "urn:nhs-itk:interaction:primaryEmergencyDepartmentRecipientNHS111CDADocument-v2-0"
        } ]
      }
    },
    "response": {
      "status": "success",
      "lastModified": "2022-05-05T12:27:54.032+00:00"
    }
  }, {
    "fullUrl": "urn:uuid:b84234b0-2407-4d40-92e1-1bcddf26ba8b",
    "resource": {
      "resourceType": "Encounter",
      "id": "b84234b0-2407-4d40-92e1-1bcddf26ba8b",
      "identifier": [ {
        "system": "2.16.840.1.113883.2.1.3.2.4.18.49",
        "value": "LOC665"
      }, {
        "system": "2.16.840.1.113883.2.1.3.2.4.18.34",
        "value": "CASEREF1234"
      }, {
        "system": "2.16.840.1.113883.2.1.3.2.4.18.35",
        "value": "CASEID123"
      } ],
      "status": "finished",
      "type": [ {
        "text": "111 Encounter Referral"
      } ],
      "subject": {
        "reference": "urn:uuid:3d7a3dac-035d-4886-b89c-35a9fe0be892"
      },
      "participant": [ {
        "type": [ {
          "text": "CALLBCK"
        } ],
        "individual": {
          "reference": "urn:uuid:0bc8b26d-ad9e-4421-beb5-3f0787d86004"
        }
      }, {
        "type": [ {
          "coding": [ {
            "system": "http://hl7.org/fhir/ValueSet/encounter-participant-type",
            "code": "PPRF",
            "display": "Author"
          } ]
        } ],
        "individual": {
          "reference": "urn:uuid:c183a511-b50c-4ca5-b4ce-834031a68d10"
        }
      }, {
        "type": [ {
          "text": "Informant"
        } ],
        "individual": {
          "reference": "urn:uuid:aa912b90-4a78-4ae5-b95a-018974a942de"
        }
      }, {
        "type": [ {
          "coding": [ {
            "system": "http://hl7.org/fhir/ValueSet/encounter-participant-type",
            "code": "ATND",
            "display": "Responsible Party"
          } ]
        } ],
        "individual": {
          "reference": "urn:uuid:9dadbf24-b712-4272-b917-12f3cf21900b"
        }
      } ],
      "appointment": {
        "reference": "urn:uuid:e74e770c-6d04-4236-bf04-bdc60a627942"
      },
      "period": {
        "start": "2017-01-01T19:45:00+00:00",
        "end": "2017-01-01T20:15:00+00:00"
      },
      "location": [ {
        "location": {
          "reference": "urn:uuid:c941f652-252b-49a9-ba89-368b29e5ab24"
        },
        "status": "active"
      }, {
        "location": {
          "reference": "urn:uuid:9921001f-8422-4162-8382-9e9fbe4b4793"
        },
        "status": "completed"
      } ],
      "serviceProvider": {
        "reference": "urn:uuid:5622cf85-7f05-4527-bb3f-07f977aa18b9"
      }
    }
  }, {
    "fullUrl": "urn:uuid:5622cf85-7f05-4527-bb3f-07f977aa18b9",
    "resource": {
      "resourceType": "Organization",
      "id": "5622cf85-7f05-4527-bb3f-07f977aa18b9",
      "active": true,
      "type": [ {
        "text": "CST"
      } ],
      "name": "Medway NHS Foundation Trust"
    }
  }, {
    "fullUrl": "urn:uuid:0bc8b26d-ad9e-4421-beb5-3f0787d86004",
    "resource": {
      "resourceType": "Practitioner",
      "id": "0bc8b26d-ad9e-4421-beb5-3f0787d86004",
      "active": true,
      "name": [ {
        "text": "Call Centre Manager"
      } ],
      "telecom": [ {
        "system": "phone",
        "value": "tel:08001111111"
      } ]
    }
  }, {
    "fullUrl": "urn:uuid:c183a511-b50c-4ca5-b4ce-834031a68d10",
    "resource": {
      "resourceType": "Practitioner",
      "id": "c183a511-b50c-4ca5-b4ce-834031a68d10",
      "active": true,
      "name": [ {
        "use": "official",
        "family": "Jones",
        "given": [ "Mary" ]
      } ]
    }
  }, {
    "fullUrl": "urn:uuid:aa912b90-4a78-4ae5-b95a-018974a942de",
    "resource": {
      "resourceType": "RelatedPerson",
      "id": "aa912b90-4a78-4ae5-b95a-018974a942de",
      "active": true,
      "patient": {
        "reference": "urn:uuid:3d7a3dac-035d-4886-b89c-35a9fe0be892"
      },
      "relationship": {
        "coding": [ {
          "system": "2.16.840.1.113883.2.1.3.2.4.16.45",
          "code": "01",
          "display": "Spouse"
        } ]
      },
      "name": [ {
        "use": "official",
        "family": "Bloggs",
        "given": [ "Helga" ]
      } ],
      "telecom": [ {
        "system": "phone",
        "value": "tel:07886554123",
        "use": "mobile"
      }, {
        "system": "phone",
        "value": "tel:01783678321"
      } ],
      "gender": "unknown",
      "address": [ {
        "use": "home",
        "line": [ "43 Summers Avenue", "Somerset Street" ],
        "city": "Medway",
        "postalCode": "ME5 7TY"
      } ]
    }
  }, {
    "fullUrl": "urn:uuid:9dadbf24-b712-4272-b917-12f3cf21900b",
    "resource": {
      "resourceType": "Practitioner",
      "id": "9dadbf24-b712-4272-b917-12f3cf21900b",
      "active": true,
      "name": [ {
        "use": "official",
        "family": "Cornwell",
        "given": [ "Dave" ]
      } ]
    }
  }, {
    "fullUrl": "urn:uuid:c941f652-252b-49a9-ba89-368b29e5ab24",
    "resource": {
      "resourceType": "Location",
      "id": "c941f652-252b-49a9-ba89-368b29e5ab24",
      "managingOrganization": {
        "reference": "urn:uuid:a65b38f8-20a3-4b0c-b6b4-6ab09c210f8d"
      }
    }
  }, {
    "fullUrl": "urn:uuid:a65b38f8-20a3-4b0c-b6b4-6ab09c210f8d",
    "resource": {
      "resourceType": "Organization",
      "id": "a65b38f8-20a3-4b0c-b6b4-6ab09c210f8d",
      "identifier": [ {
        "value": "V396F"
      } ],
      "type": [ {
        "text": "GP Practice"
      } ],
      "name": "Medway Medical Practice",
      "telecom": [ {
        "system": "phone",
        "value": "tel:01634111222",
        "use": "work"
      } ],
      "address": [ {
        "use": "work",
        "line": [ "Springer Street" ],
        "city": "Medway",
        "postalCode": "ME5 5TY"
      } ]
    }
  }, {
    "fullUrl": "urn:uuid:9921001f-8422-4162-8382-9e9fbe4b4793",
    "resource": {
      "resourceType": "Location",
      "id": "9921001f-8422-4162-8382-9e9fbe4b4793",
      "name": "Incident Location",
      "address": {
        "type": "physical",
        "text": "Follow the high street and turn left by Boots",
        "line": [ "2, Brancaster Road" ],
        "city": "Medway",
        "postalCode": "ME5 4LS",
        "country": "GB"
      }
    }
  }, {
    "fullUrl": "urn:uuid:3d7a3dac-035d-4886-b89c-35a9fe0be892",
    "resource": {
      "resourceType": "Patient",
      "id": "3d7a3dac-035d-4886-b89c-35a9fe0be892",
      "language": "en",
      "identifier": [ {
        "extension": [ {
          "url": "https://fhir.hl7.org.uk/STU3/StructureDefinition/Extension-CareConnect-NHSNumberVerificationStatus-1",
          "valueCodeableConcept": {
            "coding": [ {
              "system": "https://fhir.hl7.org.uk/STU3/StructureDefinition/Extension-CareConnect-NHSNumberVerificationStatus-1",
              "code": "02"
            } ]
          }
        } ],
        "system": "https://fhir.nhs.uk/Id/nhs-number",
        "value": "993254128"
      } ],
      "active": true,
      "name": [ {
        "use": "official",
        "family": "Joe",
        "given": [ "Blogg" ],
        "prefix": [ "Mr" ]
      } ],
      "telecom": [ {
        "system": "phone",
        "value": "tel:01634775667",
        "use": "home"
      }, {
        "system": "phone",
        "value": "tel:01634451628",
        "use": "home"
      }, {
        "system": "email",
        "value": "mailto:Joe.Blogg@emailfree.co.uk",
        "use": "home"
      } ],
      "gender": "male",
      "birthDate": "1989-01-01",
      "address": [ {
        "use": "home",
        "line": [ "17, County Avenue", "Woodtown" ],
        "city": "Medway",
        "postalCode": "ME5 FS3"
      } ],
      "generalPractitioner": [ {
        "reference": "urn:uuid:8c7e4d4b-0218-44ba-99fd-47e08f52dead"
      } ]
    }
  }, {
    "fullUrl": "urn:uuid:8c7e4d4b-0218-44ba-99fd-47e08f52dead",
    "resource": {
      "resourceType": "Organization",
      "id": "8c7e4d4b-0218-44ba-99fd-47e08f52dead",
      "identifier": [ {
        "value": "V396F"
      } ],
      "type": [ {
        "text": "GP Practice"
      } ],
      "name": "Medway Medical Practice",
      "telecom": [ {
        "system": "phone",
        "value": "tel:01634111222",
        "use": "work"
      } ],
      "address": [ {
        "use": "work",
        "line": [ "Springer Street" ],
        "city": "Medway",
        "postalCode": "ME5 5TY"
      } ]
    }
  }, {
    "fullUrl": "urn:uuid:5eac5758-2c35-428c-b49e-19a09c8fafd5",
    "resource": {
      "resourceType": "HealthcareService",
      "id": "5eac5758-2c35-428c-b49e-19a09c8fafd5",
      "active": true,
      "providedBy": {
        "reference": "urn:uuid:a85b6f83-6efe-4ba2-8e76-a8e26483bcb0"
      },
      "location": [ {
        "reference": "urn:uuid:d60ac407-a748-4d42-a518-c9461867cdd3"
      } ],
      "name": "Thames Medical Practice",
      "telecom": [ {
        "system": "phone",
        "value": "tel:0123476895",
        "use": "work"
      } ]
    }
  }, {
    "fullUrl": "urn:uuid:d60ac407-a748-4d42-a518-c9461867cdd3",
    "resource": {
      "resourceType": "Location",
      "id": "d60ac407-a748-4d42-a518-c9461867cdd3",
      "telecom": [ {
        "system": "phone",
        "value": "tel:0123476895",
        "use": "work"
      } ],
      "address": {
        "use": "work",
        "line": [ "Thames Medical Practice", "Hill Street Branch Surgery", "Medway", "Essex" ],
        "postalCode": "ME4 5TT"
      },
      "managingOrganization": {
        "reference": "urn:uuid:a85b6f83-6efe-4ba2-8e76-a8e26483bcb0"
      }
    }
  }, {
    "fullUrl": "urn:uuid:a85b6f83-6efe-4ba2-8e76-a8e26483bcb0",
    "resource": {
      "resourceType": "Organization",
      "id": "a85b6f83-6efe-4ba2-8e76-a8e26483bcb0",
      "identifier": [ {
        "value": "PRA123"
      } ],
      "type": [ {
        "coding": [ {
          "code": "PRCP",
          "display": "Thames Medical Practice"
        } ]
      } ],
      "name": "Thames Medical Practice"
    }
  }, {
    "fullUrl": "urn:uuid:58f1f0c6-15db-4fa3-b959-25f127b2fa61",
    "resource": {
      "resourceType": "HealthcareService",
      "id": "58f1f0c6-15db-4fa3-b959-25f127b2fa61",
      "active": true,
      "providedBy": {
        "reference": "urn:uuid:dd1d3222-6a0a-4299-b295-6126cd8379a1"
      },
      "location": [ {
        "reference": "urn:uuid:46eb1290-cbd8-48fd-a6cd-44179835e8a6"
      } ],
      "name": "Medway Kent Out of Hours Clinic"
    }
  }, {
    "fullUrl": "urn:uuid:46eb1290-cbd8-48fd-a6cd-44179835e8a6",
    "resource": {
      "resourceType": "Location",
      "id": "46eb1290-cbd8-48fd-a6cd-44179835e8a6",
      "managingOrganization": {
        "reference": "urn:uuid:dd1d3222-6a0a-4299-b295-6126cd8379a1"
      }
    }
  }, {
    "fullUrl": "urn:uuid:dd1d3222-6a0a-4299-b295-6126cd8379a1",
    "resource": {
      "resourceType": "Organization",
      "id": "dd1d3222-6a0a-4299-b295-6126cd8379a1",
      "identifier": [ {
        "value": "EM396"
      } ],
      "type": [ {
        "coding": [ {
          "code": "PRCP",
          "display": "Medway Kent Out of Hours Clinic"
        } ]
      } ],
      "name": "Medway Kent Out of Hours Clinic"
    }
  }, {
    "fullUrl": "urn:uuid:65117f87-b8cf-4acf-b7f6-3462c2d6e415",
    "resource": {
      "resourceType": "ReferralRequest",
      "id": "65117f87-b8cf-4acf-b7f6-3462c2d6e415",
      "status": "active",
      "intent": "plan",
      "priority": "routine",
      "subject": {
        "reference": "urn:uuid:3d7a3dac-035d-4886-b89c-35a9fe0be892"
      },
      "context": {
        "reference": "urn:uuid:b84234b0-2407-4d40-92e1-1bcddf26ba8b"
      },
      "occurrencePeriod": {
        "start": "2017-01-01T20:00:00+00:00"
      },
      "authoredOn": "2019-01-01T20:00:00+00:00",
      "requester": {
        "agent": {
          "reference": "urn:uuid:f150007d-8317-47b6-9333-dcad3f232eb1"
        },
        "onBehalfOf": {
          "reference": "urn:uuid:5622cf85-7f05-4527-bb3f-07f977aa18b9"
        }
      },
      "recipient": [ {
        "reference": "urn:uuid:7385a33f-5952-4063-becc-9d1e86fedaf4"
      }, {
        "reference": "urn:uuid:5eac5758-2c35-428c-b49e-19a09c8fafd5"
      }, {
        "reference": "urn:uuid:58f1f0c6-15db-4fa3-b959-25f127b2fa61"
      } ],
      "reasonReference": [ {
        "reference": "urn:uuid:a9c7ffd1-ad76-4dbe-a18d-32ede973d0fc"
      } ],
      "supportingInfo": [ {
        "reference": "urn:uuid:9efdf70c-96b7-4e39-be13-7c79670134a6"
      } ]
    }
  }, {
    "fullUrl": "urn:uuid:9efdf70c-96b7-4e39-be13-7c79670134a6",
    "resource": {
      "resourceType": "ProcedureRequest",
      "id": "9efdf70c-96b7-4e39-be13-7c79670134a6",
      "status": "active",
      "intent": "plan",
      "priority": "routine",
      "doNotPerform": false,
      "code": {
        "coding": [ {
          "system": "2.16.840.1.113883.2.1.3.2.4.17.325",
          "code": "Dx001",
          "display": "Passed onto clinical hub"
        } ]
      },
      "subject": {
        "reference": "urn:uuid:3d7a3dac-035d-4886-b89c-35a9fe0be892"
      },
      "occurrencePeriod": {
        "start": "2017-01-01T20:00:00+00:00"
      },
      "reasonReference": [ {
        "reference": "urn:uuid:a9c7ffd1-ad76-4dbe-a18d-32ede973d0fc"
      } ]
    }
  }, {
    "fullUrl": "urn:uuid:7385a33f-5952-4063-becc-9d1e86fedaf4",
    "resource": {
      "resourceType": "Practitioner",
      "id": "7385a33f-5952-4063-becc-9d1e86fedaf4",
      "active": true,
      "telecom": [ {
        "system": "phone",
        "value": "tel:0123456789"
      } ],
      "address": [ {
        "type": "physical",
        "line": [ "Church Street Walk in Centre", "4 Church Street", "Medway" ],
        "postalCode": "ME8 7TT"
      } ]
    }
  }, {
    "fullUrl": "urn:uuid:666aa350-04b3-4cb4-b78c-37acf1593620",
    "resource": {
      "resourceType": "Composition",
      "id": "666aa350-04b3-4cb4-b78c-37acf1593620",
      "identifier": {
        "use": "usual",
        "value": "411910CF-1A76-4330-98FE-C345DDEE5553"
      },
      "status": "final",
      "type": {
        "coding": [ {
          "system": "http://snomed.info/sct",
          "code": "371531000",
          "display": "Report of clinical encounter (record artifact)"
        } ]
      },
      "subject": {
        "reference": "urn:uuid:3d7a3dac-035d-4886-b89c-35a9fe0be892"
      },
      "encounter": {
        "reference": "urn:uuid:b84234b0-2407-4d40-92e1-1bcddf26ba8b"
      },
      "date": "2017-01-01T20:00:00+00:00",
      "author": [ {
        "reference": "urn:uuid:c183a511-b50c-4ca5-b4ce-834031a68d10"
      } ],
      "title": "111 Report",
      "confidentiality": "V",
      "section": [ {
        "section": [ {
          "title": "Permission to View",
          "text": {
            "status": "generated",
            "div": "<div xmlns=\"http://www.w3.org/1999/xhtml\">&lt;table&gt;\n                                                        &lt;tbody&gt;\n                                                            &lt;tr&gt;\n                                                                &lt;th&gt;Permission to view outcome&lt;/th&gt;\n                                                                &lt;td&gt;Permission to view obtained&lt;/td&gt;\n                                                            &lt;/tr&gt;\n                                                            &lt;tr&gt;\n                                                                &lt;th&gt;Date obtained&lt;/th&gt;\n                                                                &lt;td&gt;01-Jan-2017, 20:00&lt;/td&gt;\n                                                            &lt;/tr&gt;\n                                                            &lt;tr&gt;\n                                                                &lt;th&gt;Date expires&lt;/th&gt;\n                                                                &lt;td&gt;15-Jan-2017, 20:00&lt;/td&gt;\n                                                            &lt;/tr&gt;\n                                                        &lt;/tbody&gt;\n                                                    &lt;/table&gt;</div>"
          }
        }, {
          "title": "Primary Reason for Call",
          "text": {
            "status": "generated",
            "div": "<div xmlns=\"http://www.w3.org/1999/xhtml\">&lt;content&gt;Patient feels dizzy.&lt;/content&gt;</div>"
          },
          "section": [ {
            "title": "SUBSUB2",
            "text": {
              "status": "generated",
              "div": "<div xmlns=\"http://www.w3.org/1999/xhtml\">&lt;content&gt;SUBSUB2&lt;/content&gt;</div>"
            },
            "section": [ {
              "title": "SUBSUB3",
              "text": {
                "status": "generated",
                "div": "<div xmlns=\"http://www.w3.org/1999/xhtml\">&lt;content&gt;SUBSUB3&lt;/content&gt;</div>"
              }
            } ]
          } ]
        }, {
          "title": "Clinical Summary",
          "text": {
            "status": "generated",
            "div": "<div xmlns=\"http://www.w3.org/1999/xhtml\">&lt;content&gt;\n                                                        Patient fels nausea and dizzy after waking up. Lasted 30\n                                                        minutes.\n                                                    &lt;/content&gt;</div>"
          }
        }, {
          "title": "Additional Patient Notes",
          "text": {
            "status": "generated",
            "div": "<div xmlns=\"http://www.w3.org/1999/xhtml\">Additional Patient Notes\n                                                    &lt;br/&gt;\n                                                    Additional Patient Notes abc 01-Feb-2017, 12:00\n                                                    &lt;br/&gt;</div>"
          },
          "section": [ {
            "text": {
              "status": "generated",
              "div": "<div xmlns=\"http://www.w3.org/1999/xhtml\">These are more notes, nested under the top one.</div>"
            }
          } ]
        }, {
          "title": "Disposition Details",
          "text": {
            "status": "generated",
            "div": "<div xmlns=\"http://www.w3.org/1999/xhtml\">&lt;content&gt;Lie down.&lt;/content&gt;</div>"
          }
        }, {
          "title": "Information and advice given",
          "text": {
            "status": "generated",
            "div": "<div xmlns=\"http://www.w3.org/1999/xhtml\">&lt;content&gt;Do not perform any strenuous activities.&lt;/content&gt;</div>"
          }
        }, {
          "title": "Recorded Allergies",
          "text": {
            "status": "generated",
            "div": "<div xmlns=\"http://www.w3.org/1999/xhtml\">&lt;content&gt;No known allergies or adverse reaction.&lt;/content&gt;</div>"
          }
        }, {
          "title": "Triage Report",
          "text": {
            "status": "generated",
            "div": "<div xmlns=\"http://www.w3.org/1999/xhtml\">&lt;content&gt;An injury or other health problem was described.\n                                                        &lt;br/&gt;The individual was described as breathing and conscious.\n                                                        &lt;br/&gt;Loss of at least a mugful of blood in the last 30 minutes\n                                                        was not described.\n                                                        &lt;br/&gt;An illness or other health problem was described. -\n                                                        Dizziness\n                                                        &lt;br/&gt;Fighting for breath was not described.\n                                                        &lt;br/&gt;A heart attack, chest/upper back pain, recent probable\n                                                        stroke, recent fit/seizure or suicide attempt was not described\n                                                        as the main call reason.\n                                                        &lt;br/&gt;Dizziness and nausea was described.\n                                                        &lt;br/&gt;\n                                                    &lt;/content&gt;</div>"
          }
        }, {
          "title": "Prescribed Items",
          "text": {
            "status": "generated",
            "div": "<div xmlns=\"http://www.w3.org/1999/xhtml\">&lt;content&gt;\n                                                        Medications\n                                                    &lt;/content&gt;</div>"
          }
        }, {
          "title": "Appointment Reference",
          "text": {
            "status": "generated",
            "div": "<div xmlns=\"http://www.w3.org/1999/xhtml\">&lt;content&gt;\n                                                        Date/Time: 01 June 2017 14:00\n                                                        Location: CENTRAL LONDON COMMUNITY HEALTHCARE NHS TRUST\n                                                        Psychiatric Community Care Service\n                                                    &lt;/content&gt;</div>"
          }
        } ]
      }, {
        "title": "CarePlan",
        "entry": [ {
          "reference": "urn:uuid:e613d6ff-3f8a-4d84-987b-513faf405163"
        } ]
      }, {
        "title": "ReferralRequest",
        "entry": [ {
          "reference": "urn:uuid:65117f87-b8cf-4acf-b7f6-3462c2d6e415"
        } ]
      }, {
        "title": "QuestionnaireResponse",
        "entry": [ {
          "reference": "urn:uuid:e0c6d344-7788-4865-a9fc-f01eaf60d522"
        } ]
      }, {
        "title": "QuestionnaireResponse",
        "entry": [ {
          "reference": "urn:uuid:16ffcfcf-3e20-48e7-a0cd-5e10e5f03640"
        } ]
      }, {
        "title": "QuestionnaireResponse",
        "entry": [ {
          "reference": "urn:uuid:064f0f6f-25f4-41cd-9213-6ddff80f2db3"
        } ]
      }, {
        "title": "QuestionnaireResponse",
        "entry": [ {
          "reference": "urn:uuid:26a75d7f-1ca1-47ae-8bf6-18c10aed4bf5"
        } ]
      }, {
        "title": "QuestionnaireResponse",
        "entry": [ {
          "reference": "urn:uuid:da4f56c8-d76b-4172-bc7d-5aec88538164"
        } ]
      }, {
        "title": "QuestionnaireResponse",
        "entry": [ {
          "reference": "urn:uuid:5eeae101-2bae-4704-a372-1f88a409f29c"
        } ]
      }, {
        "title": "QuestionnaireResponse",
        "entry": [ {
          "reference": "urn:uuid:87b0e0f0-32e6-496f-98f7-4e5abd68176a"
        } ]
      }, {
        "title": "QuestionnaireResponse",
        "entry": [ {
          "reference": "urn:uuid:15a1b696-3587-47c3-a9f2-6a63f547775c"
        } ]
      }, {
        "title": "QuestionnaireResponse",
        "entry": [ {
          "reference": "urn:uuid:649d0ff7-4133-4153-ba3f-8d6233443286"
        } ]
      }, {
        "title": "QuestionnaireResponse",
        "entry": [ {
          "reference": "urn:uuid:1e01b3b7-5b3a-4b87-863c-48d91d24231c"
        } ]
      }, {
        "title": "QuestionnaireResponse",
        "entry": [ {
          "reference": "urn:uuid:88bf28fa-17c4-4eb8-960b-7991affc2f97"
        } ]
      }, {
        "title": "QuestionnaireResponse",
        "entry": [ {
          "reference": "urn:uuid:8b62999f-b73a-4422-8623-47082bec4398"
        } ]
      }, {
        "title": "QuestionnaireResponse",
        "entry": [ {
          "reference": "urn:uuid:9f396f28-0e33-4acd-96c5-c5be245c2d9b"
        } ]
      }, {
        "title": "QuestionnaireResponse",
        "entry": [ {
          "reference": "urn:uuid:19264676-3bfb-4427-a939-93f9c5e796dd"
        } ]
      }, {
        "title": "QuestionnaireResponse",
        "entry": [ {
          "reference": "urn:uuid:2a855299-3313-4270-9115-7bc8a116f2cb"
        } ]
      }, {
        "title": "QuestionnaireResponse",
        "entry": [ {
          "reference": "urn:uuid:10a7abb2-3726-45ed-b28d-e7a72419718b"
        } ]
      }, {
        "title": "QuestionnaireResponse",
        "entry": [ {
          "reference": "urn:uuid:f35b64e2-e074-4fb1-aab8-75647b1b7e22"
        } ]
      }, {
        "title": "QuestionnaireResponse",
        "entry": [ {
          "reference": "urn:uuid:0455604e-a78a-4266-86be-308d008f957e"
        } ]
      }, {
        "title": "QuestionnaireResponse",
        "entry": [ {
          "reference": "urn:uuid:35ebcf0f-278e-4bbc-a513-88c3314e09e2"
        } ]
      }, {
        "title": "QuestionnaireResponse",
        "entry": [ {
          "reference": "urn:uuid:79576d29-614a-47d0-b7c9-7f3ee19ef1ab"
        } ]
      }, {
        "title": "QuestionnaireResponse",
        "entry": [ {
          "reference": "urn:uuid:620f3175-e067-4798-a5b0-5c7ce0939fa1"
        } ]
      }, {
        "title": "QuestionnaireResponse",
        "entry": [ {
          "reference": "urn:uuid:8b697b63-be9a-4c78-86d9-84ed9c51f7fa"
        } ]
      }, {
        "title": "QuestionnaireResponse",
        "entry": [ {
          "reference": "urn:uuid:c61284d5-c3c3-4344-a903-fb19bc7db5ce"
        } ]
      }, {
        "title": "QuestionnaireResponse",
        "entry": [ {
          "reference": "urn:uuid:09f163e6-0f26-4d74-be04-d6b250147743"
        } ]
      } ]
    }
  }, {
    "fullUrl": "urn:uuid:e613d6ff-3f8a-4d84-987b-513faf405163",
    "resource": {
      "resourceType": "CarePlan",
      "id": "e613d6ff-3f8a-4d84-987b-513faf405163",
      "status": "completed",
      "intent": "plan",
      "title": "Information and advice given",
      "description": "Do not perform any strenuous activities.",
      "subject": {
        "reference": "urn:uuid:3d7a3dac-035d-4886-b89c-35a9fe0be892"
      },
      "context": {
        "reference": "urn:uuid:b84234b0-2407-4d40-92e1-1bcddf26ba8b"
      },
      "period": {
        "start": "2017-01-01T19:45:00+00:00",
        "end": "2017-01-01T20:15:00+00:00"
      },
      "author": [ {
        "reference": "urn:uuid:a65b38f8-20a3-4b0c-b6b4-6ab09c210f8d"
      } ],
      "addresses": [ {
        "reference": "urn:uuid:a9c7ffd1-ad76-4dbe-a18d-32ede973d0fc"
      } ]
    }
  }, {
    "fullUrl": "urn:uuid:94ad36d8-b1ea-4e19-85e9-ffd0af25ac47",
    "resource": {
      "resourceType": "Consent",
      "id": "94ad36d8-b1ea-4e19-85e9-ffd0af25ac47",
      "text": {
        "status": "generated",
        "div": "<div xmlns=\"http://www.w3.org/1999/xhtml\">\n                                                    <table>\n                                                        <tbody>\n                                                            <tr>\n                                                                <th>Permission to view outcome</th>\n                                                                <td>Permission to view obtained</td>\n                                                            </tr>\n                                                            <tr>\n                                                                <th>Date obtained</th>\n                                                                <td>01-Jan-2017, 20:00</td>\n                                                            </tr>\n                                                            <tr>\n                                                                <th>Date expires</th>\n                                                                <td>15-Jan-2017, 20:00</td>\n                                                            </tr>\n                                                        </tbody>\n                                                    </table>\n                                                </div>"
      },
      "identifier": {
        "use": "usual",
        "value": "411910CF-1A76-4330-98FE-C345DDEE5553"
      },
      "status": "active",
      "patient": {
        "reference": "urn:uuid:3d7a3dac-035d-4886-b89c-35a9fe0be892"
      },
      "period": {
        "start": "2017-01-01T19:45:00+00:00",
        "end": "2017-01-01T20:15:00+00:00"
      },
      "consentingParty": [ {
        "reference": "urn:uuid:3d7a3dac-035d-4886-b89c-35a9fe0be892"
      } ],
      "action": [ {
        "coding": [ {
          "system": "http://snomed.info/sct",
          "code": "425691002",
          "display": "Consent given for electronic record sharing"
        } ],
        "text": "Consent given for electronic record sharing"
      } ],
      "organization": [ {
        "reference": "urn:uuid:5622cf85-7f05-4527-bb3f-07f977aa18b9"
      } ],
      "sourceIdentifier": {
        "value": "41D9F90F-6DB7-4939-BEF5-F8D75D79ECDD"
      },
      "policyRule": "http://hl7.org/fhir/ConsentPolicy/opt-out",
      "dataPeriod": {
        "start": "2011-05-19T20:00:00+00:00",
        "end": "2011-05-26T20:00:00+00:00"
      },
      "data": [ {
        "meaning": "related",
        "reference": {
          "reference": "urn:uuid:b84234b0-2407-4d40-92e1-1bcddf26ba8b"
        }
      } ]
    }
  }, {
    "fullUrl": "urn:uuid:a9c7ffd1-ad76-4dbe-a18d-32ede973d0fc",
    "resource": {
      "resourceType": "Condition",
      "id": "a9c7ffd1-ad76-4dbe-a18d-32ede973d0fc",
      "clinicalStatus": "active",
      "verificationStatus": "unknown",
      "code": {
        "coding": [ {
          "system": "22298006",
          "code": "2.16.840.1.113883.2.1.3.2.4.15",
          "display": "Myocardial infarction"
        } ]
      },
      "subject": {
        "reference": "urn:uuid:3d7a3dac-035d-4886-b89c-35a9fe0be892"
      },
      "context": {
        "reference": "urn:uuid:b84234b0-2407-4d40-92e1-1bcddf26ba8b"
      },
      "assertedDate": "2017-06-01T14:00:00+00:00",
      "evidence": [ {
        "detail": [ {
          "reference": "urn:uuid:e0c6d344-7788-4865-a9fc-f01eaf60d522"
        } ]
      }, {
        "detail": [ {
          "reference": "urn:uuid:16ffcfcf-3e20-48e7-a0cd-5e10e5f03640"
        } ]
      }, {
        "detail": [ {
          "reference": "urn:uuid:064f0f6f-25f4-41cd-9213-6ddff80f2db3"
        } ]
      }, {
        "detail": [ {
          "reference": "urn:uuid:26a75d7f-1ca1-47ae-8bf6-18c10aed4bf5"
        } ]
      }, {
        "detail": [ {
          "reference": "urn:uuid:da4f56c8-d76b-4172-bc7d-5aec88538164"
        } ]
      }, {
        "detail": [ {
          "reference": "urn:uuid:5eeae101-2bae-4704-a372-1f88a409f29c"
        } ]
      }, {
        "detail": [ {
          "reference": "urn:uuid:87b0e0f0-32e6-496f-98f7-4e5abd68176a"
        } ]
      }, {
        "detail": [ {
          "reference": "urn:uuid:15a1b696-3587-47c3-a9f2-6a63f547775c"
        } ]
      }, {
        "detail": [ {
          "reference": "urn:uuid:649d0ff7-4133-4153-ba3f-8d6233443286"
        } ]
      }, {
        "detail": [ {
          "reference": "urn:uuid:1e01b3b7-5b3a-4b87-863c-48d91d24231c"
        } ]
      }, {
        "detail": [ {
          "reference": "urn:uuid:88bf28fa-17c4-4eb8-960b-7991affc2f97"
        } ]
      }, {
        "detail": [ {
          "reference": "urn:uuid:8b62999f-b73a-4422-8623-47082bec4398"
        } ]
      }, {
        "detail": [ {
          "reference": "urn:uuid:9f396f28-0e33-4acd-96c5-c5be245c2d9b"
        } ]
      }, {
        "detail": [ {
          "reference": "urn:uuid:19264676-3bfb-4427-a939-93f9c5e796dd"
        } ]
      }, {
        "detail": [ {
          "reference": "urn:uuid:2a855299-3313-4270-9115-7bc8a116f2cb"
        } ]
      }, {
        "detail": [ {
          "reference": "urn:uuid:10a7abb2-3726-45ed-b28d-e7a72419718b"
        } ]
      }, {
        "detail": [ {
          "reference": "urn:uuid:f35b64e2-e074-4fb1-aab8-75647b1b7e22"
        } ]
      }, {
        "detail": [ {
          "reference": "urn:uuid:0455604e-a78a-4266-86be-308d008f957e"
        } ]
      }, {
        "detail": [ {
          "reference": "urn:uuid:35ebcf0f-278e-4bbc-a513-88c3314e09e2"
        } ]
      }, {
        "detail": [ {
          "reference": "urn:uuid:79576d29-614a-47d0-b7c9-7f3ee19ef1ab"
        } ]
      }, {
        "detail": [ {
          "reference": "urn:uuid:620f3175-e067-4798-a5b0-5c7ce0939fa1"
        } ]
      }, {
        "detail": [ {
          "reference": "urn:uuid:8b697b63-be9a-4c78-86d9-84ed9c51f7fa"
        } ]
      }, {
        "detail": [ {
          "reference": "urn:uuid:c61284d5-c3c3-4344-a903-fb19bc7db5ce"
        } ]
      }, {
        "detail": [ {
          "reference": "urn:uuid:09f163e6-0f26-4d74-be04-d6b250147743"
        } ]
      } ]
    }
  }, {
    "fullUrl": "urn:uuid:e0c6d344-7788-4865-a9fc-f01eaf60d522",
    "resource": {
      "resourceType": "QuestionnaireResponse",
      "id": "e0c6d344-7788-4865-a9fc-f01eaf60d522",
      "identifier": {
        "value": "8067b9b2-e604-4414-b56f-8e3cc4de4b1b"
      },
      "questionnaire": {
        "reference": "urn:uuid:e365e7f9-828f-45e7-a8f3-7665f5b79a6b"
      },
      "status": "completed",
      "subject": {
        "reference": "urn:uuid:3d7a3dac-035d-4886-b89c-35a9fe0be892"
      },
      "context": {
        "reference": "urn:uuid:b84234b0-2407-4d40-92e1-1bcddf26ba8b"
      },
      "authored": "2011-02-17T17:31:14+00:00",
      "item": [ {
        "linkId": "N/A"
      } ]
    }
  }, {
    "fullUrl": "urn:uuid:e365e7f9-828f-45e7-a8f3-7665f5b79a6b",
    "resource": {
      "resourceType": "Questionnaire",
      "id": "e365e7f9-828f-45e7-a8f3-7665f5b79a6b",
      "identifier": [ {
        "value": "8067b9b2-e604-4414-b56f-8e3cc4de4b1b"
      } ],
      "version": "2011-02-17T17:31:14.313Z",
      "status": "active",
      "experimental": false,
      "date": "2011-02-17T17:31:14+00:00",
      "publisher": "User ID: '3137' User name: 'redacted' User skill set: 'T1'",
      "lastReviewDate": "2011-02-17",
      "jurisdiction": [ {
        "text": "England"
      } ],
      "contact": [ {
        "telecom": [ {
          "system": "phone",
          "value": "redacted"
        } ]
      } ],
      "subjectType": [ "Patient" ],
      "item": [ {
        "linkId": "8067b9b2-e604-4414-b56f-8e3cc4de4b1b",
        "prefix": "0",
        "type": "choice",
        "required": true,
        "repeats": false,
        "option": [ {
          "valueString": ", Selected: false"
        } ]
      } ]
    }
  }, {
    "fullUrl": "urn:uuid:16ffcfcf-3e20-48e7-a0cd-5e10e5f03640",
    "resource": {
      "resourceType": "QuestionnaireResponse",
      "id": "16ffcfcf-3e20-48e7-a0cd-5e10e5f03640",
      "identifier": {
        "value": "8067b9b2-e604-4414-b56f-8e3cc4de4b1b"
      },
      "questionnaire": {
        "reference": "urn:uuid:8b42bb75-02f2-49dc-b893-0aa7e9e52c8c"
      },
      "status": "completed",
      "subject": {
        "reference": "urn:uuid:3d7a3dac-035d-4886-b89c-35a9fe0be892"
      },
      "context": {
        "reference": "urn:uuid:b84234b0-2407-4d40-92e1-1bcddf26ba8b"
      },
      "authored": "2011-02-17T17:31:14+00:00",
      "item": [ {
        "linkId": "N/A"
      } ]
    }
  }, {
    "fullUrl": "urn:uuid:8b42bb75-02f2-49dc-b893-0aa7e9e52c8c",
    "resource": {
      "resourceType": "Questionnaire",
      "id": "8b42bb75-02f2-49dc-b893-0aa7e9e52c8c",
      "identifier": [ {
        "value": "8067b9b2-e604-4414-b56f-8e3cc4de4b1b"
      } ],
      "version": "2011-02-17T17:31:14.313Z",
      "status": "active",
      "experimental": false,
      "date": "2011-02-17T17:31:14+00:00",
      "publisher": "User ID: '3137' User name: 'redacted' User skill set: 'T1'",
      "lastReviewDate": "2011-02-17",
      "jurisdiction": [ {
        "text": "England"
      } ],
      "contact": [ {
        "telecom": [ {
          "system": "phone",
          "value": "redacted"
        } ]
      } ],
      "subjectType": [ "Patient" ],
      "item": [ {
        "linkId": "8067b9b2-e604-4414-b56f-8e3cc4de4b1b",
        "prefix": "0",
        "type": "choice",
        "required": true,
        "repeats": false,
        "option": [ {
          "valueString": ", Selected: false"
        } ]
      } ]
    }
  }, {
    "fullUrl": "urn:uuid:064f0f6f-25f4-41cd-9213-6ddff80f2db3",
    "resource": {
      "resourceType": "QuestionnaireResponse",
      "id": "064f0f6f-25f4-41cd-9213-6ddff80f2db3",
      "identifier": {
        "value": "8067b9b2-e604-4414-b56f-8e3cc4de4b1b"
      },
      "questionnaire": {
        "reference": "urn:uuid:07c4d317-a1bc-4f7b-a474-face84bdc6db"
      },
      "status": "completed",
      "subject": {
        "reference": "urn:uuid:3d7a3dac-035d-4886-b89c-35a9fe0be892"
      },
      "context": {
        "reference": "urn:uuid:b84234b0-2407-4d40-92e1-1bcddf26ba8b"
      },
      "authored": "2011-02-17T17:31:14+00:00",
      "item": [ {
        "linkId": "Tx220109",
        "text": "What is the reason for the call?",
        "answer": [ {
          "valueString": "an injury or other health problem"
        } ]
      } ]
    }
  }, {
    "fullUrl": "urn:uuid:07c4d317-a1bc-4f7b-a474-face84bdc6db",
    "resource": {
      "resourceType": "Questionnaire",
      "id": "07c4d317-a1bc-4f7b-a474-face84bdc6db",
      "identifier": [ {
        "value": "8067b9b2-e604-4414-b56f-8e3cc4de4b1b"
      } ],
      "version": "2011-02-17T17:31:14.313Z",
      "status": "active",
      "experimental": false,
      "date": "2011-02-17T17:31:14+00:00",
      "publisher": "User ID: '3137' User name: 'redacted' User skill set: 'T1'",
      "lastReviewDate": "2011-02-17",
      "jurisdiction": [ {
        "text": "England"
      } ],
      "contact": [ {
        "telecom": [ {
          "system": "phone",
          "value": "redacted"
        } ]
      } ],
      "subjectType": [ "Patient" ],
      "item": [ {
        "linkId": "8067b9b2-e604-4414-b56f-8e3cc4de4b1b",
        "prefix": "5",
        "text": "What is the reason for the call?",
        "type": "choice",
        "required": true,
        "repeats": false,
        "option": [ {
          "valueString": "an injury or other health problem, Selected: true"
        }, {
          "valueString": "a need to access another healthcare provider, Selected: false"
        }, {
          "valueString": "a healthcare professional requesting contact with another clinician, Selected: false"
        }, {
          "valueString": "a report of results or tests, Selected: false"
        }, {
          "valueString": "more, Selected: false"
        } ]
      } ]
    }
  }, {
    "fullUrl": "urn:uuid:26a75d7f-1ca1-47ae-8bf6-18c10aed4bf5",
    "resource": {
      "resourceType": "QuestionnaireResponse",
      "id": "26a75d7f-1ca1-47ae-8bf6-18c10aed4bf5",
      "identifier": {
        "value": "8067b9b2-e604-4414-b56f-8e3cc4de4b1b"
      },
      "questionnaire": {
        "reference": "urn:uuid:ed3a92a3-09f7-4934-82cb-72b0e5b5f392"
      },
      "status": "completed",
      "subject": {
        "reference": "urn:uuid:3d7a3dac-035d-4886-b89c-35a9fe0be892"
      },
      "context": {
        "reference": "urn:uuid:b84234b0-2407-4d40-92e1-1bcddf26ba8b"
      },
      "authored": "2011-02-17T17:31:14+00:00",
      "item": [ {
        "linkId": "Tx140118",
        "text": "Has the baby just been born?",
        "answer": [ {
          "valueString": "no"
        } ]
      } ]
    }
  }, {
    "fullUrl": "urn:uuid:ed3a92a3-09f7-4934-82cb-72b0e5b5f392",
    "resource": {
      "resourceType": "Questionnaire",
      "id": "ed3a92a3-09f7-4934-82cb-72b0e5b5f392",
      "identifier": [ {
        "value": "8067b9b2-e604-4414-b56f-8e3cc4de4b1b"
      } ],
      "version": "2011-02-17T17:31:14.313Z",
      "status": "active",
      "experimental": false,
      "date": "2011-02-17T17:31:14+00:00",
      "publisher": "User ID: '3137' User name: 'redacted' User skill set: 'T1'",
      "lastReviewDate": "2011-02-17",
      "jurisdiction": [ {
        "text": "England"
      } ],
      "contact": [ {
        "telecom": [ {
          "system": "phone",
          "value": "redacted"
        } ]
      } ],
      "subjectType": [ "Patient" ],
      "item": [ {
        "linkId": "8067b9b2-e604-4414-b56f-8e3cc4de4b1b",
        "prefix": "35",
        "text": "Has the baby just been born?",
        "type": "choice",
        "required": true,
        "repeats": false,
        "option": [ {
          "valueString": "yes, Selected: false"
        }, {
          "valueString": "not sure, Selected: false"
        }, {
          "valueString": "no, Selected: true"
        } ]
      } ]
    }
  }, {
    "fullUrl": "urn:uuid:da4f56c8-d76b-4172-bc7d-5aec88538164",
    "resource": {
      "resourceType": "QuestionnaireResponse",
      "id": "da4f56c8-d76b-4172-bc7d-5aec88538164",
      "identifier": {
        "value": "8067b9b2-e604-4414-b56f-8e3cc4de4b1b"
      },
      "questionnaire": {
        "reference": "urn:uuid:90a3cf43-f2ec-4c3a-80a5-09486adff967"
      },
      "status": "completed",
      "subject": {
        "reference": "urn:uuid:3d7a3dac-035d-4886-b89c-35a9fe0be892"
      },
      "context": {
        "reference": "urn:uuid:b84234b0-2407-4d40-92e1-1bcddf26ba8b"
      },
      "authored": "2011-02-17T17:31:14+00:00",
      "item": [ {
        "linkId": "Tx220110",
        "text": "Is he breathing and conscious?",
        "answer": [ {
          "valueString": "breathing AND conscious"
        } ]
      } ]
    }
  }, {
    "fullUrl": "urn:uuid:90a3cf43-f2ec-4c3a-80a5-09486adff967",
    "resource": {
      "resourceType": "Questionnaire",
      "id": "90a3cf43-f2ec-4c3a-80a5-09486adff967",
      "identifier": [ {
        "value": "8067b9b2-e604-4414-b56f-8e3cc4de4b1b"
      } ],
      "version": "2011-02-17T17:31:14.313Z",
      "status": "active",
      "experimental": false,
      "date": "2011-02-17T17:31:14+00:00",
      "publisher": "User ID: '3137' User name: 'redacted' User skill set: 'T1'",
      "lastReviewDate": "2011-02-17",
      "jurisdiction": [ {
        "text": "England"
      } ],
      "contact": [ {
        "telecom": [ {
          "system": "phone",
          "value": "redacted"
        } ]
      } ],
      "subjectType": [ "Patient" ],
      "item": [ {
        "linkId": "8067b9b2-e604-4414-b56f-8e3cc4de4b1b",
        "prefix": "40",
        "text": "Is he breathing and conscious?",
        "type": "choice",
        "required": true,
        "repeats": false,
        "option": [ {
          "valueString": "breathing AND conscious, Selected: true"
        }, {
          "valueString": "breathing but NOT conscious (includes current fitting), Selected: false"
        }, {
          "valueString": "NOT breathing, Selected: false"
        }, {
          "valueString": "choking now, Selected: false"
        } ]
      } ]
    }
  }, {
    "fullUrl": "urn:uuid:5eeae101-2bae-4704-a372-1f88a409f29c",
    "resource": {
      "resourceType": "QuestionnaireResponse",
      "id": "5eeae101-2bae-4704-a372-1f88a409f29c",
      "identifier": {
        "value": "8067b9b2-e604-4414-b56f-8e3cc4de4b1b"
      },
      "questionnaire": {
        "reference": "urn:uuid:07af9c13-c822-4745-b786-d04a0dd440f8"
      },
      "status": "completed",
      "subject": {
        "reference": "urn:uuid:3d7a3dac-035d-4886-b89c-35a9fe0be892"
      },
      "context": {
        "reference": "urn:uuid:b84234b0-2407-4d40-92e1-1bcddf26ba8b"
      },
      "authored": "2011-02-17T17:31:14+00:00",
      "item": [ {
        "linkId": "Tx220285",
        "text": "Has he been bleeding very heavily IN THE LAST HOUR?",
        "answer": [ {
          "valueString": "no"
        } ]
      } ]
    }
  }, {
    "fullUrl": "urn:uuid:07af9c13-c822-4745-b786-d04a0dd440f8",
    "resource": {
      "resourceType": "Questionnaire",
      "id": "07af9c13-c822-4745-b786-d04a0dd440f8",
      "identifier": [ {
        "value": "8067b9b2-e604-4414-b56f-8e3cc4de4b1b"
      } ],
      "version": "2011-02-17T17:31:14.313Z",
      "status": "active",
      "experimental": false,
      "date": "2011-02-17T17:31:14+00:00",
      "publisher": "User ID: '3137' User name: 'redacted' User skill set: 'T1'",
      "lastReviewDate": "2011-02-17",
      "jurisdiction": [ {
        "text": "England"
      } ],
      "contact": [ {
        "telecom": [ {
          "system": "phone",
          "value": "redacted"
        } ]
      } ],
      "subjectType": [ "Patient" ],
      "item": [ {
        "linkId": "8067b9b2-e604-4414-b56f-8e3cc4de4b1b",
        "prefix": "60",
        "text": "Has he been bleeding very heavily IN THE LAST HOUR?",
        "type": "choice",
        "required": true,
        "repeats": false,
        "option": [ {
          "valueString": "blood spurting from a wound, Selected: false"
        }, {
          "valueString": "an egg cupful or more of red blood from a body opening, Selected: false"
        }, {
          "valueString": "an egg cupful or more from a wound, Selected: false"
        }, {
          "valueString": "not sure, Selected: false"
        }, {
          "valueString": "no, Selected: true"
        } ]
      } ]
    }
  }, {
    "fullUrl": "urn:uuid:87b0e0f0-32e6-496f-98f7-4e5abd68176a",
    "resource": {
      "resourceType": "QuestionnaireResponse",
      "id": "87b0e0f0-32e6-496f-98f7-4e5abd68176a",
      "identifier": {
        "value": "8067b9b2-e604-4414-b56f-8e3cc4de4b1b"
      },
      "questionnaire": {
        "reference": "urn:uuid:ef11bcf4-9c0c-47fb-ad02-a2d223d57d23"
      },
      "status": "completed",
      "subject": {
        "reference": "urn:uuid:3d7a3dac-035d-4886-b89c-35a9fe0be892"
      },
      "context": {
        "reference": "urn:uuid:b84234b0-2407-4d40-92e1-1bcddf26ba8b"
      },
      "authored": "2011-02-17T17:31:14+00:00",
      "item": [ {
        "linkId": "N/A",
        "text": "SocialConcernsExcluded",
        "answer": [ {
          "valueString": "*"
        } ]
      } ]
    }
  }, {
    "fullUrl": "urn:uuid:ef11bcf4-9c0c-47fb-ad02-a2d223d57d23",
    "resource": {
      "resourceType": "Questionnaire",
      "id": "ef11bcf4-9c0c-47fb-ad02-a2d223d57d23",
      "identifier": [ {
        "value": "8067b9b2-e604-4414-b56f-8e3cc4de4b1b"
      } ],
      "version": "2011-02-17T17:31:14.313Z",
      "status": "active",
      "experimental": false,
      "date": "2011-02-17T17:31:14+00:00",
      "publisher": "User ID: '3137' User name: 'redacted' User skill set: 'T1'",
      "lastReviewDate": "2011-02-17",
      "jurisdiction": [ {
        "text": "England"
      } ],
      "contact": [ {
        "telecom": [ {
          "system": "phone",
          "value": "redacted"
        } ]
      } ],
      "subjectType": [ "Patient" ],
      "item": [ {
        "linkId": "8067b9b2-e604-4414-b56f-8e3cc4de4b1b",
        "prefix": "2050",
        "text": "SocialConcernsExcluded",
        "type": "choice",
        "required": true,
        "repeats": false,
        "option": [ {
          "valueString": "==\"present\", Selected: false"
        }, {
          "valueString": "*, Selected: true"
        } ]
      } ]
    }
  }, {
    "fullUrl": "urn:uuid:15a1b696-3587-47c3-a9f2-6a63f547775c",
    "resource": {
      "resourceType": "QuestionnaireResponse",
      "id": "15a1b696-3587-47c3-a9f2-6a63f547775c",
      "identifier": {
        "value": "8067b9b2-e604-4414-b56f-8e3cc4de4b1b"
      },
      "questionnaire": {
        "reference": "urn:uuid:6e0a7989-0229-474d-beda-ccb8f70b0c44"
      },
      "status": "completed",
      "subject": {
        "reference": "urn:uuid:3d7a3dac-035d-4886-b89c-35a9fe0be892"
      },
      "context": {
        "reference": "urn:uuid:b84234b0-2407-4d40-92e1-1bcddf26ba8b"
      },
      "authored": "2011-02-17T17:31:14+00:00",
      "item": [ {
        "linkId": "Tx140159",
        "text": "What is the reason for ending the assessment?",
        "answer": [ {
          "valueString": "transfer to a clinician"
        } ]
      } ]
    }
  }, {
    "fullUrl": "urn:uuid:6e0a7989-0229-474d-beda-ccb8f70b0c44",
    "resource": {
      "resourceType": "Questionnaire",
      "id": "6e0a7989-0229-474d-beda-ccb8f70b0c44",
      "identifier": [ {
        "value": "8067b9b2-e604-4414-b56f-8e3cc4de4b1b"
      } ],
      "version": "2011-02-17T17:31:14.313Z",
      "status": "active",
      "experimental": false,
      "date": "2011-02-17T17:31:14+00:00",
      "publisher": "User ID: '3137' User name: 'redacted' User skill set: 'T1'",
      "lastReviewDate": "2011-02-17",
      "jurisdiction": [ {
        "text": "England"
      } ],
      "contact": [ {
        "telecom": [ {
          "system": "phone",
          "value": "redacted"
        } ]
      } ],
      "subjectType": [ "Patient" ],
      "item": [ {
        "linkId": "8067b9b2-e604-4414-b56f-8e3cc4de4b1b",
        "prefix": "0",
        "text": "What is the reason for ending the assessment?",
        "type": "choice",
        "required": true,
        "repeats": false,
        "option": [ {
          "valueString": "the phone line went dead, Selected: false"
        }, {
          "valueString": "the caller terminated the call (specify), Selected: false"
        }, {
          "valueString": "I terminated the call (specify), Selected: false"
        }, {
          "valueString": "triage not possible, Selected: false"
        }, {
          "valueString": "transfer to a clinician, Selected: true"
        } ]
      } ]
    }
  }, {
    "fullUrl": "urn:uuid:649d0ff7-4133-4153-ba3f-8d6233443286",
    "resource": {
      "resourceType": "QuestionnaireResponse",
      "id": "649d0ff7-4133-4153-ba3f-8d6233443286",
      "identifier": {
        "value": "8067b9b2-e604-4414-b56f-8e3cc4de4b1b"
      },
      "questionnaire": {
        "reference": "urn:uuid:4dac4c2e-253d-4ff9-a934-485eb578f657"
      },
      "status": "completed",
      "subject": {
        "reference": "urn:uuid:3d7a3dac-035d-4886-b89c-35a9fe0be892"
      },
      "context": {
        "reference": "urn:uuid:b84234b0-2407-4d40-92e1-1bcddf26ba8b"
      },
      "authored": "2011-02-17T17:31:14+00:00",
      "item": [ {
        "linkId": "Tx220408",
        "text": "WHAT IS THE REASON FOR TRANSFER TO A CLINICIAN?",
        "answer": [ {
          "valueString": "other complex call (specify)"
        } ]
      } ]
    }
  }, {
    "fullUrl": "urn:uuid:4dac4c2e-253d-4ff9-a934-485eb578f657",
    "resource": {
      "resourceType": "Questionnaire",
      "id": "4dac4c2e-253d-4ff9-a934-485eb578f657",
      "identifier": [ {
        "value": "8067b9b2-e604-4414-b56f-8e3cc4de4b1b"
      } ],
      "version": "2011-02-17T17:31:14.313Z",
      "status": "active",
      "experimental": false,
      "date": "2011-02-17T17:31:14+00:00",
      "publisher": "User ID: '3137' User name: 'redacted' User skill set: 'T1'",
      "lastReviewDate": "2011-02-17",
      "jurisdiction": [ {
        "text": "England"
      } ],
      "contact": [ {
        "telecom": [ {
          "system": "phone",
          "value": "redacted"
        } ]
      } ],
      "subjectType": [ "Patient" ],
      "item": [ {
        "linkId": "8067b9b2-e604-4414-b56f-8e3cc4de4b1b",
        "prefix": "50",
        "text": "WHAT IS THE REASON FOR TRANSFER TO A CLINICIAN?",
        "type": "choice",
        "required": true,
        "repeats": false,
        "option": [ {
          "valueString": "caller refuses disposition, Selected: false"
        }, {
          "valueString": "multiple unrelated symptoms, Selected: false"
        }, {
          "valueString": "difficulty obtaining adequate information, Selected: false"
        }, {
          "valueString": "medication or medical procedure enquiry, Selected: false"
        }, {
          "valueString": "declared medical history (details not required), Selected: false"
        }, {
          "valueString": "other complex call (specify), Selected: true"
        } ]
      } ]
    }
  }, {
    "fullUrl": "urn:uuid:1e01b3b7-5b3a-4b87-863c-48d91d24231c",
    "resource": {
      "resourceType": "QuestionnaireResponse",
      "id": "1e01b3b7-5b3a-4b87-863c-48d91d24231c",
      "identifier": {
        "value": "8067b9b2-e604-4414-b56f-8e3cc4de4b1b"
      },
      "questionnaire": {
        "reference": "urn:uuid:33071d89-fc80-46c1-8b2d-6df3e61b1fa7"
      },
      "status": "completed",
      "subject": {
        "reference": "urn:uuid:3d7a3dac-035d-4886-b89c-35a9fe0be892"
      },
      "context": {
        "reference": "urn:uuid:b84234b0-2407-4d40-92e1-1bcddf26ba8b"
      },
      "authored": "2011-02-17T17:31:14+00:00",
      "item": [ {
        "linkId": "N/A",
        "text": "Speak to Clinician from our Service immediately"
      } ]
    }
  }, {
    "fullUrl": "urn:uuid:33071d89-fc80-46c1-8b2d-6df3e61b1fa7",
    "resource": {
      "resourceType": "Questionnaire",
      "id": "33071d89-fc80-46c1-8b2d-6df3e61b1fa7",
      "identifier": [ {
        "value": "8067b9b2-e604-4414-b56f-8e3cc4de4b1b"
      } ],
      "version": "2011-02-17T17:31:14.313Z",
      "status": "active",
      "experimental": false,
      "date": "2011-02-17T17:31:14+00:00",
      "publisher": "User ID: '3137' User name: 'redacted' User skill set: 'T1'",
      "lastReviewDate": "2011-02-17",
      "jurisdiction": [ {
        "text": "England"
      } ],
      "contact": [ {
        "telecom": [ {
          "system": "phone",
          "value": "redacted"
        } ]
      } ],
      "subjectType": [ "Patient" ],
      "item": [ {
        "linkId": "8067b9b2-e604-4414-b56f-8e3cc4de4b1b",
        "prefix": "0",
        "text": "Speak to Clinician from our Service immediately",
        "type": "choice",
        "required": true,
        "repeats": false,
        "option": [ {
          "valueString": ", Selected: false"
        } ]
      } ]
    }
  }, {
    "fullUrl": "urn:uuid:88bf28fa-17c4-4eb8-960b-7991affc2f97",
    "resource": {
      "resourceType": "QuestionnaireResponse",
      "id": "88bf28fa-17c4-4eb8-960b-7991affc2f97",
      "identifier": {
        "value": "8067b9b2-e604-4414-b56f-8e3cc4de4b1b"
      },
      "questionnaire": {
        "reference": "urn:uuid:8ca5d40b-dfd3-4660-b71c-713010362e26"
      },
      "status": "completed",
      "subject": {
        "reference": "urn:uuid:3d7a3dac-035d-4886-b89c-35a9fe0be892"
      },
      "context": {
        "reference": "urn:uuid:b84234b0-2407-4d40-92e1-1bcddf26ba8b"
      },
      "authored": "2011-02-17T17:31:14+00:00",
      "item": [ {
        "linkId": "N/A"
      } ]
    }
  }, {
    "fullUrl": "urn:uuid:8ca5d40b-dfd3-4660-b71c-713010362e26",
    "resource": {
      "resourceType": "Questionnaire",
      "id": "8ca5d40b-dfd3-4660-b71c-713010362e26",
      "identifier": [ {
        "value": "8067b9b2-e604-4414-b56f-8e3cc4de4b1b"
      } ],
      "version": "2011-02-17T17:31:14.313Z",
      "status": "active",
      "experimental": false,
      "date": "2011-02-17T17:31:14+00:00",
      "publisher": "User ID: '3137' User name: 'redacted' User skill set: 'T1'",
      "lastReviewDate": "2011-02-17",
      "jurisdiction": [ {
        "text": "England"
      } ],
      "contact": [ {
        "telecom": [ {
          "system": "phone",
          "value": "redacted"
        } ]
      } ],
      "subjectType": [ "Patient" ],
      "item": [ {
        "linkId": "8067b9b2-e604-4414-b56f-8e3cc4de4b1b",
        "prefix": "0",
        "type": "choice",
        "required": true,
        "repeats": false,
        "option": [ {
          "valueString": ", Selected: false"
        } ]
      } ]
    }
  }, {
    "fullUrl": "urn:uuid:8b62999f-b73a-4422-8623-47082bec4398",
    "resource": {
      "resourceType": "QuestionnaireResponse",
      "id": "8b62999f-b73a-4422-8623-47082bec4398",
      "identifier": {
        "value": "8067b9b2-e604-4414-b56f-8e3cc4de4b1b"
      },
      "questionnaire": {
        "reference": "urn:uuid:bc1ca567-6aca-4c5f-a55c-25ae07757f13"
      },
      "status": "completed",
      "subject": {
        "reference": "urn:uuid:3d7a3dac-035d-4886-b89c-35a9fe0be892"
      },
      "context": {
        "reference": "urn:uuid:b84234b0-2407-4d40-92e1-1bcddf26ba8b"
      },
      "authored": "2011-02-17T17:31:14+00:00",
      "item": [ {
        "linkId": "N/A"
      } ]
    }
  }, {
    "fullUrl": "urn:uuid:bc1ca567-6aca-4c5f-a55c-25ae07757f13",
    "resource": {
      "resourceType": "Questionnaire",
      "id": "bc1ca567-6aca-4c5f-a55c-25ae07757f13",
      "identifier": [ {
        "value": "8067b9b2-e604-4414-b56f-8e3cc4de4b1b"
      } ],
      "version": "2011-02-17T17:31:14.313Z",
      "status": "active",
      "experimental": false,
      "date": "2011-02-17T17:31:14+00:00",
      "publisher": "User ID: '3137' User name: 'redacted' User skill set: 'T1'",
      "lastReviewDate": "2011-02-17",
      "jurisdiction": [ {
        "text": "England"
      } ],
      "contact": [ {
        "telecom": [ {
          "system": "phone",
          "value": "redacted"
        } ]
      } ],
      "subjectType": [ "Patient" ],
      "item": [ {
        "linkId": "8067b9b2-e604-4414-b56f-8e3cc4de4b1b",
        "prefix": "0",
        "type": "choice",
        "required": true,
        "repeats": false,
        "option": [ {
          "valueString": ", Selected: false"
        } ]
      } ]
    }
  }, {
    "fullUrl": "urn:uuid:9f396f28-0e33-4acd-96c5-c5be245c2d9b",
    "resource": {
      "resourceType": "QuestionnaireResponse",
      "id": "9f396f28-0e33-4acd-96c5-c5be245c2d9b",
      "identifier": {
        "value": "8067b9b2-e604-4414-b56f-8e3cc4de4b1b"
      },
      "questionnaire": {
        "reference": "urn:uuid:b2b79c28-896e-47e5-a42e-ba8d539f42f5"
      },
      "status": "completed",
      "subject": {
        "reference": "urn:uuid:3d7a3dac-035d-4886-b89c-35a9fe0be892"
      },
      "context": {
        "reference": "urn:uuid:b84234b0-2407-4d40-92e1-1bcddf26ba8b"
      },
      "authored": "2011-02-17T17:31:14+00:00",
      "item": [ {
        "linkId": "Tx220109",
        "text": "What is the reason for the call?",
        "answer": [ {
          "valueString": "an injury or other health problem"
        } ]
      } ]
    }
  }, {
    "fullUrl": "urn:uuid:b2b79c28-896e-47e5-a42e-ba8d539f42f5",
    "resource": {
      "resourceType": "Questionnaire",
      "id": "b2b79c28-896e-47e5-a42e-ba8d539f42f5",
      "identifier": [ {
        "value": "8067b9b2-e604-4414-b56f-8e3cc4de4b1b"
      } ],
      "version": "2011-02-17T17:31:14.313Z",
      "status": "active",
      "experimental": false,
      "date": "2011-02-17T17:31:14+00:00",
      "publisher": "User ID: '3137' User name: 'redacted' User skill set: 'T1'",
      "lastReviewDate": "2011-02-17",
      "jurisdiction": [ {
        "text": "England"
      } ],
      "contact": [ {
        "telecom": [ {
          "system": "phone",
          "value": "redacted"
        } ]
      } ],
      "subjectType": [ "Patient" ],
      "item": [ {
        "linkId": "8067b9b2-e604-4414-b56f-8e3cc4de4b1b",
        "prefix": "5",
        "text": "What is the reason for the call?",
        "type": "choice",
        "required": true,
        "repeats": false,
        "option": [ {
          "valueString": "an injury or other health problem, Selected: true"
        }, {
          "valueString": "a need to access another healthcare provider, Selected: false"
        }, {
          "valueString": "a healthcare professional requesting contact with another clinician, Selected: false"
        }, {
          "valueString": "a report of results or tests, Selected: false"
        }, {
          "valueString": "more, Selected: false"
        } ]
      } ]
    }
  }, {
    "fullUrl": "urn:uuid:19264676-3bfb-4427-a939-93f9c5e796dd",
    "resource": {
      "resourceType": "QuestionnaireResponse",
      "id": "19264676-3bfb-4427-a939-93f9c5e796dd",
      "identifier": {
        "value": "8067b9b2-e604-4414-b56f-8e3cc4de4b1b"
      },
      "questionnaire": {
        "reference": "urn:uuid:c053375b-8e4a-4130-8fe2-c2f106c15e57"
      },
      "status": "completed",
      "subject": {
        "reference": "urn:uuid:3d7a3dac-035d-4886-b89c-35a9fe0be892"
      },
      "context": {
        "reference": "urn:uuid:b84234b0-2407-4d40-92e1-1bcddf26ba8b"
      },
      "authored": "2011-02-17T17:31:14+00:00",
      "item": [ {
        "linkId": "Tx140118",
        "text": "Has the baby just been born?",
        "answer": [ {
          "valueString": "no"
        } ]
      } ]
    }
  }, {
    "fullUrl": "urn:uuid:c053375b-8e4a-4130-8fe2-c2f106c15e57",
    "resource": {
      "resourceType": "Questionnaire",
      "id": "c053375b-8e4a-4130-8fe2-c2f106c15e57",
      "identifier": [ {
        "value": "8067b9b2-e604-4414-b56f-8e3cc4de4b1b"
      } ],
      "version": "2011-02-17T17:31:14.313Z",
      "status": "active",
      "experimental": false,
      "date": "2011-02-17T17:31:14+00:00",
      "publisher": "User ID: '3137' User name: 'redacted' User skill set: 'T1'",
      "lastReviewDate": "2011-02-17",
      "jurisdiction": [ {
        "text": "England"
      } ],
      "contact": [ {
        "telecom": [ {
          "system": "phone",
          "value": "redacted"
        } ]
      } ],
      "subjectType": [ "Patient" ],
      "item": [ {
        "linkId": "8067b9b2-e604-4414-b56f-8e3cc4de4b1b",
        "prefix": "35",
        "text": "Has the baby just been born?",
        "type": "choice",
        "required": true,
        "repeats": false,
        "option": [ {
          "valueString": "yes, Selected: false"
        }, {
          "valueString": "not sure, Selected: false"
        }, {
          "valueString": "no, Selected: true"
        } ]
      } ]
    }
  }, {
    "fullUrl": "urn:uuid:2a855299-3313-4270-9115-7bc8a116f2cb",
    "resource": {
      "resourceType": "QuestionnaireResponse",
      "id": "2a855299-3313-4270-9115-7bc8a116f2cb",
      "identifier": {
        "value": "8067b9b2-e604-4414-b56f-8e3cc4de4b1b"
      },
      "questionnaire": {
        "reference": "urn:uuid:97712b24-cd21-42cb-a09e-7965c9f11c4d"
      },
      "status": "completed",
      "subject": {
        "reference": "urn:uuid:3d7a3dac-035d-4886-b89c-35a9fe0be892"
      },
      "context": {
        "reference": "urn:uuid:b84234b0-2407-4d40-92e1-1bcddf26ba8b"
      },
      "authored": "2011-02-17T17:31:14+00:00",
      "item": [ {
        "linkId": "Tx220110",
        "text": "Is he breathing and conscious?",
        "answer": [ {
          "valueString": "breathing AND conscious"
        } ]
      } ]
    }
  }, {
    "fullUrl": "urn:uuid:97712b24-cd21-42cb-a09e-7965c9f11c4d",
    "resource": {
      "resourceType": "Questionnaire",
      "id": "97712b24-cd21-42cb-a09e-7965c9f11c4d",
      "identifier": [ {
        "value": "8067b9b2-e604-4414-b56f-8e3cc4de4b1b"
      } ],
      "version": "2011-02-17T17:31:14.313Z",
      "status": "active",
      "experimental": false,
      "date": "2011-02-17T17:31:14+00:00",
      "publisher": "User ID: '3137' User name: 'redacted' User skill set: 'T1'",
      "lastReviewDate": "2011-02-17",
      "jurisdiction": [ {
        "text": "England"
      } ],
      "contact": [ {
        "telecom": [ {
          "system": "phone",
          "value": "redacted"
        } ]
      } ],
      "subjectType": [ "Patient" ],
      "item": [ {
        "linkId": "8067b9b2-e604-4414-b56f-8e3cc4de4b1b",
        "prefix": "40",
        "text": "Is he breathing and conscious?",
        "type": "choice",
        "required": true,
        "repeats": false,
        "option": [ {
          "valueString": "breathing AND conscious, Selected: true"
        }, {
          "valueString": "breathing but NOT conscious (includes current fitting), Selected: false"
        }, {
          "valueString": "NOT breathing, Selected: false"
        }, {
          "valueString": "choking now, Selected: false"
        } ]
      } ]
    }
  }, {
    "fullUrl": "urn:uuid:10a7abb2-3726-45ed-b28d-e7a72419718b",
    "resource": {
      "resourceType": "QuestionnaireResponse",
      "id": "10a7abb2-3726-45ed-b28d-e7a72419718b",
      "identifier": {
        "value": "8067b9b2-e604-4414-b56f-8e3cc4de4b1b"
      },
      "questionnaire": {
        "reference": "urn:uuid:9dc7becf-f4e2-4a67-a97d-21801643e64e"
      },
      "status": "completed",
      "subject": {
        "reference": "urn:uuid:3d7a3dac-035d-4886-b89c-35a9fe0be892"
      },
      "context": {
        "reference": "urn:uuid:b84234b0-2407-4d40-92e1-1bcddf26ba8b"
      },
      "authored": "2011-02-17T17:31:14+00:00",
      "item": [ {
        "linkId": "Tx220285",
        "text": "Has he been bleeding very heavily IN THE LAST HOUR?",
        "answer": [ {
          "valueString": "an egg cupful or more from a wound"
        } ]
      } ]
    }
  }, {
    "fullUrl": "urn:uuid:9dc7becf-f4e2-4a67-a97d-21801643e64e",
    "resource": {
      "resourceType": "Questionnaire",
      "id": "9dc7becf-f4e2-4a67-a97d-21801643e64e",
      "identifier": [ {
        "value": "8067b9b2-e604-4414-b56f-8e3cc4de4b1b"
      } ],
      "version": "2011-02-17T17:31:14.313Z",
      "status": "active",
      "experimental": false,
      "date": "2011-02-17T17:31:14+00:00",
      "publisher": "User ID: '3137' User name: 'redacted' User skill set: 'T1'",
      "lastReviewDate": "2011-02-17",
      "jurisdiction": [ {
        "text": "England"
      } ],
      "contact": [ {
        "telecom": [ {
          "system": "phone",
          "value": "redacted"
        } ]
      } ],
      "subjectType": [ "Patient" ],
      "item": [ {
        "linkId": "8067b9b2-e604-4414-b56f-8e3cc4de4b1b",
        "prefix": "60",
        "text": "Has he been bleeding very heavily IN THE LAST HOUR?",
        "type": "choice",
        "required": true,
        "repeats": false,
        "option": [ {
          "valueString": "blood spurting from a wound, Selected: false"
        }, {
          "valueString": "an egg cupful or more of red blood from a body opening, Selected: false"
        }, {
          "valueString": "an egg cupful or more from a wound, Selected: true"
        }, {
          "valueString": "not sure, Selected: false"
        }, {
          "valueString": "no, Selected: false"
        } ]
      } ]
    }
  }, {
    "fullUrl": "urn:uuid:f35b64e2-e074-4fb1-aab8-75647b1b7e22",
    "resource": {
      "resourceType": "QuestionnaireResponse",
      "id": "f35b64e2-e074-4fb1-aab8-75647b1b7e22",
      "identifier": {
        "value": "8067b9b2-e604-4414-b56f-8e3cc4de4b1b"
      },
      "questionnaire": {
        "reference": "urn:uuid:b25c8585-410e-41ec-8e1c-c11ce16defa9"
      },
      "status": "completed",
      "subject": {
        "reference": "urn:uuid:3d7a3dac-035d-4886-b89c-35a9fe0be892"
      },
      "context": {
        "reference": "urn:uuid:b84234b0-2407-4d40-92e1-1bcddf26ba8b"
      },
      "authored": "2011-02-17T17:31:14+00:00",
      "item": [ {
        "linkId": "Tx140109",
        "text": "Is he fighting desperately for every breath?",
        "answer": [ {
          "valueString": "no"
        } ]
      } ]
    }
  }, {
    "fullUrl": "urn:uuid:b25c8585-410e-41ec-8e1c-c11ce16defa9",
    "resource": {
      "resourceType": "Questionnaire",
      "id": "b25c8585-410e-41ec-8e1c-c11ce16defa9",
      "identifier": [ {
        "value": "8067b9b2-e604-4414-b56f-8e3cc4de4b1b"
      } ],
      "version": "2011-02-17T17:31:14.313Z",
      "status": "active",
      "experimental": false,
      "date": "2011-02-17T17:31:14+00:00",
      "publisher": "User ID: '3137' User name: 'redacted' User skill set: 'T1'",
      "lastReviewDate": "2011-02-17",
      "jurisdiction": [ {
        "text": "England"
      } ],
      "contact": [ {
        "telecom": [ {
          "system": "phone",
          "value": "redacted"
        } ]
      } ],
      "subjectType": [ "Patient" ],
      "item": [ {
        "linkId": "8067b9b2-e604-4414-b56f-8e3cc4de4b1b",
        "prefix": "20000",
        "text": "Is he fighting desperately for every breath?",
        "type": "choice",
        "required": true,
        "repeats": false,
        "option": [ {
          "valueString": "yes, Selected: false"
        }, {
          "valueString": "not sure, Selected: false"
        }, {
          "valueString": "no, Selected: true"
        } ]
      } ]
    }
  }, {
    "fullUrl": "urn:uuid:0455604e-a78a-4266-86be-308d008f957e",
    "resource": {
      "resourceType": "QuestionnaireResponse",
      "id": "0455604e-a78a-4266-86be-308d008f957e",
      "identifier": {
        "value": "8067b9b2-e604-4414-b56f-8e3cc4de4b1b"
      },
      "questionnaire": {
        "reference": "urn:uuid:63591ef0-26a5-43dc-88d4-72237b42034b"
      },
      "status": "completed",
      "subject": {
        "reference": "urn:uuid:3d7a3dac-035d-4886-b89c-35a9fe0be892"
      },
      "context": {
        "reference": "urn:uuid:b84234b0-2407-4d40-92e1-1bcddf26ba8b"
      },
      "authored": "2011-02-17T17:31:14+00:00",
      "item": [ {
        "linkId": "Tx220563",
        "text": "Is he limp, floppy and/or unresponsive?",
        "answer": [ {
          "valueString": "no"
        } ]
      } ]
    }
  }, {
    "fullUrl": "urn:uuid:63591ef0-26a5-43dc-88d4-72237b42034b",
    "resource": {
      "resourceType": "Questionnaire",
      "id": "63591ef0-26a5-43dc-88d4-72237b42034b",
      "identifier": [ {
        "value": "8067b9b2-e604-4414-b56f-8e3cc4de4b1b"
      } ],
      "version": "2011-02-17T17:31:14.313Z",
      "status": "active",
      "experimental": false,
      "date": "2011-02-17T17:31:14+00:00",
      "publisher": "User ID: '3137' User name: 'redacted' User skill set: 'T1'",
      "lastReviewDate": "2011-02-17",
      "jurisdiction": [ {
        "text": "England"
      } ],
      "contact": [ {
        "telecom": [ {
          "system": "phone",
          "value": "redacted"
        } ]
      } ],
      "subjectType": [ "Patient" ],
      "item": [ {
        "linkId": "8067b9b2-e604-4414-b56f-8e3cc4de4b1b",
        "prefix": "20400",
        "text": "Is he limp, floppy and/or unresponsive?",
        "type": "choice",
        "required": true,
        "repeats": false,
        "option": [ {
          "valueString": "yes, Selected: false"
        }, {
          "valueString": "not sure, Selected: false"
        }, {
          "valueString": "no, Selected: true"
        } ]
      } ]
    }
  }, {
    "fullUrl": "urn:uuid:35ebcf0f-278e-4bbc-a513-88c3314e09e2",
    "resource": {
      "resourceType": "QuestionnaireResponse",
      "id": "35ebcf0f-278e-4bbc-a513-88c3314e09e2",
      "identifier": {
        "value": "8067b9b2-e604-4414-b56f-8e3cc4de4b1b"
      },
      "questionnaire": {
        "reference": "urn:uuid:a6dda8e5-b3f4-4a76-91c8-f64b57b7793b"
      },
      "status": "completed",
      "subject": {
        "reference": "urn:uuid:3d7a3dac-035d-4886-b89c-35a9fe0be892"
      },
      "context": {
        "reference": "urn:uuid:b84234b0-2407-4d40-92e1-1bcddf26ba8b"
      },
      "authored": "2011-02-17T17:31:14+00:00",
      "item": [ {
        "linkId": "Tx220561",
        "text": "Is he warm to touch?",
        "answer": [ {
          "valueString": "yes"
        } ]
      } ]
    }
  }, {
    "fullUrl": "urn:uuid:a6dda8e5-b3f4-4a76-91c8-f64b57b7793b",
    "resource": {
      "resourceType": "Questionnaire",
      "id": "a6dda8e5-b3f4-4a76-91c8-f64b57b7793b",
      "identifier": [ {
        "value": "8067b9b2-e604-4414-b56f-8e3cc4de4b1b"
      } ],
      "version": "2011-02-17T17:31:14.313Z",
      "status": "active",
      "experimental": false,
      "date": "2011-02-17T17:31:14+00:00",
      "publisher": "User ID: '3137' User name: 'redacted' User skill set: 'T1'",
      "lastReviewDate": "2011-02-17",
      "jurisdiction": [ {
        "text": "England"
      } ],
      "contact": [ {
        "telecom": [ {
          "system": "phone",
          "value": "redacted"
        } ]
      } ],
      "subjectType": [ "Patient" ],
      "item": [ {
        "linkId": "8067b9b2-e604-4414-b56f-8e3cc4de4b1b",
        "prefix": "20450",
        "text": "Is he warm to touch?",
        "type": "choice",
        "required": true,
        "repeats": false,
        "option": [ {
          "valueString": "yes, Selected: true"
        }, {
          "valueString": "not sure, Selected: false"
        }, {
          "valueString": "no, Selected: false"
        }, {
          "valueString": "not safe to touch, Selected: false"
        } ]
      } ]
    }
  }, {
    "fullUrl": "urn:uuid:79576d29-614a-47d0-b7c9-7f3ee19ef1ab",
    "resource": {
      "resourceType": "QuestionnaireResponse",
      "id": "79576d29-614a-47d0-b7c9-7f3ee19ef1ab",
      "identifier": {
        "value": "8067b9b2-e604-4414-b56f-8e3cc4de4b1b"
      },
      "questionnaire": {
        "reference": "urn:uuid:017b4906-6d09-4bb5-935f-c2fb7b7ab530"
      },
      "status": "completed",
      "subject": {
        "reference": "urn:uuid:3d7a3dac-035d-4886-b89c-35a9fe0be892"
      },
      "context": {
        "reference": "urn:uuid:b84234b0-2407-4d40-92e1-1bcddf26ba8b"
      },
      "authored": "2011-02-17T17:31:14+00:00",
      "item": [ {
        "linkId": "Tx120019",
        "text": "Was the injury caused by any of the following?",
        "answer": [ {
          "valueString": "no"
        } ]
      } ]
    }
  }, {
    "fullUrl": "urn:uuid:017b4906-6d09-4bb5-935f-c2fb7b7ab530",
    "resource": {
      "resourceType": "Questionnaire",
      "id": "017b4906-6d09-4bb5-935f-c2fb7b7ab530",
      "identifier": [ {
        "value": "8067b9b2-e604-4414-b56f-8e3cc4de4b1b"
      } ],
      "version": "2011-02-17T17:31:14.313Z",
      "status": "active",
      "experimental": false,
      "date": "2011-02-17T17:31:14+00:00",
      "publisher": "User ID: '3137' User name: 'redacted' User skill set: 'T1'",
      "lastReviewDate": "2011-02-17",
      "jurisdiction": [ {
        "text": "England"
      } ],
      "contact": [ {
        "telecom": [ {
          "system": "phone",
          "value": "redacted"
        } ]
      } ],
      "subjectType": [ "Patient" ],
      "item": [ {
        "linkId": "8067b9b2-e604-4414-b56f-8e3cc4de4b1b",
        "prefix": "20800",
        "text": "Was the injury caused by any of the following?",
        "type": "choice",
        "required": true,
        "repeats": false,
        "option": [ {
          "valueString": "a gunshot, Selected: false"
        }, {
          "valueString": "a stabbing, Selected: false"
        }, {
          "valueString": "being ejected from a vehicle, Selected: false"
        }, {
          "valueString": "not sure, Selected: false"
        }, {
          "valueString": "no, Selected: true"
        } ]
      } ]
    }
  }, {
    "fullUrl": "urn:uuid:620f3175-e067-4798-a5b0-5c7ce0939fa1",
    "resource": {
      "resourceType": "QuestionnaireResponse",
      "id": "620f3175-e067-4798-a5b0-5c7ce0939fa1",
      "identifier": {
        "value": "8067b9b2-e604-4414-b56f-8e3cc4de4b1b"
      },
      "questionnaire": {
        "reference": "urn:uuid:074e7a9b-11e6-4119-8287-21ed83ed028c"
      },
      "status": "completed",
      "subject": {
        "reference": "urn:uuid:3d7a3dac-035d-4886-b89c-35a9fe0be892"
      },
      "context": {
        "reference": "urn:uuid:b84234b0-2407-4d40-92e1-1bcddf26ba8b"
      },
      "authored": "2011-02-17T17:31:14+00:00",
      "item": [ {
        "linkId": "Tx220286",
        "text": "DID THE INJURY INVOLVE ANY OF THE FOLLOWING?",
        "answer": [ {
          "valueString": "no"
        } ]
      } ]
    }
  }, {
    "fullUrl": "urn:uuid:074e7a9b-11e6-4119-8287-21ed83ed028c",
    "resource": {
      "resourceType": "Questionnaire",
      "id": "074e7a9b-11e6-4119-8287-21ed83ed028c",
      "identifier": [ {
        "value": "8067b9b2-e604-4414-b56f-8e3cc4de4b1b"
      } ],
      "version": "2011-02-17T17:31:14.313Z",
      "status": "active",
      "experimental": false,
      "date": "2011-02-17T17:31:14+00:00",
      "publisher": "User ID: '3137' User name: 'redacted' User skill set: 'T1'",
      "lastReviewDate": "2011-02-17",
      "jurisdiction": [ {
        "text": "England"
      } ],
      "contact": [ {
        "telecom": [ {
          "system": "phone",
          "value": "redacted"
        } ]
      } ],
      "subjectType": [ "Patient" ],
      "item": [ {
        "linkId": "8067b9b2-e604-4414-b56f-8e3cc4de4b1b",
        "prefix": "23100",
        "text": "DID THE INJURY INVOLVE ANY OF THE FOLLOWING?",
        "type": "choice",
        "required": true,
        "repeats": false,
        "option": [ {
          "valueString": "a fall of 5 metres or more (specify), Selected: false"
        }, {
          "valueString": "multiple major injuries (specify), Selected: false"
        }, {
          "valueString": "major wound or amputation - not just involving a single finger or toe (specify), Selected: false"
        }, {
          "valueString": "being knocked over by a blast (specify), Selected: false"
        }, {
          "valueString": "not sure, Selected: false"
        }, {
          "valueString": "no, Selected: true"
        } ]
      } ]
    }
  }, {
    "fullUrl": "urn:uuid:8b697b63-be9a-4c78-86d9-84ed9c51f7fa",
    "resource": {
      "resourceType": "QuestionnaireResponse",
      "id": "8b697b63-be9a-4c78-86d9-84ed9c51f7fa",
      "identifier": {
        "value": "8067b9b2-e604-4414-b56f-8e3cc4de4b1b"
      },
      "questionnaire": {
        "reference": "urn:uuid:2df57ff0-a745-406a-8997-c613b0333868"
      },
      "status": "completed",
      "subject": {
        "reference": "urn:uuid:3d7a3dac-035d-4886-b89c-35a9fe0be892"
      },
      "context": {
        "reference": "urn:uuid:b84234b0-2407-4d40-92e1-1bcddf26ba8b"
      },
      "authored": "2011-02-17T17:31:14+00:00",
      "item": [ {
        "linkId": "Tx140159",
        "text": "What is the reason for ending the assessment?",
        "answer": [ {
          "valueString": "transfer to a clinician"
        } ]
      } ]
    }
  }, {
    "fullUrl": "urn:uuid:2df57ff0-a745-406a-8997-c613b0333868",
    "resource": {
      "resourceType": "Questionnaire",
      "id": "2df57ff0-a745-406a-8997-c613b0333868",
      "identifier": [ {
        "value": "8067b9b2-e604-4414-b56f-8e3cc4de4b1b"
      } ],
      "version": "2011-02-17T17:31:14.313Z",
      "status": "active",
      "experimental": false,
      "date": "2011-02-17T17:31:14+00:00",
      "publisher": "User ID: '3137' User name: 'redacted' User skill set: 'T1'",
      "lastReviewDate": "2011-02-17",
      "jurisdiction": [ {
        "text": "England"
      } ],
      "contact": [ {
        "telecom": [ {
          "system": "phone",
          "value": "redacted"
        } ]
      } ],
      "subjectType": [ "Patient" ],
      "item": [ {
        "linkId": "8067b9b2-e604-4414-b56f-8e3cc4de4b1b",
        "prefix": "0",
        "text": "What is the reason for ending the assessment?",
        "type": "choice",
        "required": true,
        "repeats": false,
        "option": [ {
          "valueString": "the phone line went dead, Selected: false"
        }, {
          "valueString": "the caller terminated the call (specify), Selected: false"
        }, {
          "valueString": "I terminated the call (specify), Selected: false"
        }, {
          "valueString": "triage not possible, Selected: false"
        }, {
          "valueString": "transfer to a clinician, Selected: true"
        } ]
      } ]
    }
  }, {
    "fullUrl": "urn:uuid:c61284d5-c3c3-4344-a903-fb19bc7db5ce",
    "resource": {
      "resourceType": "QuestionnaireResponse",
      "id": "c61284d5-c3c3-4344-a903-fb19bc7db5ce",
      "identifier": {
        "value": "8067b9b2-e604-4414-b56f-8e3cc4de4b1b"
      },
      "questionnaire": {
        "reference": "urn:uuid:9d38b82e-ceff-410e-a1b8-8fd349b5ec31"
      },
      "status": "completed",
      "subject": {
        "reference": "urn:uuid:3d7a3dac-035d-4886-b89c-35a9fe0be892"
      },
      "context": {
        "reference": "urn:uuid:b84234b0-2407-4d40-92e1-1bcddf26ba8b"
      },
      "authored": "2011-02-17T17:31:14+00:00",
      "item": [ {
        "linkId": "Tx220286",
        "text": "DID THE INJURY INVOLVE ANY OF THE FOLLOWING?",
        "answer": [ {
          "valueString": "no"
        } ]
      } ]
    }
  }, {
    "fullUrl": "urn:uuid:9d38b82e-ceff-410e-a1b8-8fd349b5ec31",
    "resource": {
      "resourceType": "Questionnaire",
      "id": "9d38b82e-ceff-410e-a1b8-8fd349b5ec31",
      "identifier": [ {
        "value": "8067b9b2-e604-4414-b56f-8e3cc4de4b1b"
      } ],
      "version": "2011-02-17T17:31:14.313Z",
      "status": "active",
      "experimental": false,
      "date": "2011-02-17T17:31:14+00:00",
      "publisher": "User ID: '3137' User name: 'redacted' User skill set: 'T1'",
      "lastReviewDate": "2011-02-17",
      "jurisdiction": [ {
        "text": "England"
      } ],
      "contact": [ {
        "telecom": [ {
          "system": "phone",
          "value": "redacted"
        } ]
      } ],
      "subjectType": [ "Patient" ],
      "item": [ {
        "linkId": "8067b9b2-e604-4414-b56f-8e3cc4de4b1b",
        "prefix": "23100",
        "text": "DID THE INJURY INVOLVE ANY OF THE FOLLOWING?",
        "type": "choice",
        "required": true,
        "repeats": false,
        "option": [ {
          "valueString": "a fall of 5 metres or more (specify), Selected: false"
        }, {
          "valueString": "multiple major injuries (specify), Selected: false"
        }, {
          "valueString": "major wound or amputation - not just involving a single finger or toe (specify), Selected: false"
        }, {
          "valueString": "being knocked over by a blast (specify), Selected: false"
        }, {
          "valueString": "not sure, Selected: false"
        }, {
          "valueString": "no, Selected: true"
        } ]
      } ]
    }
  }, {
    "fullUrl": "urn:uuid:09f163e6-0f26-4d74-be04-d6b250147743",
    "resource": {
      "resourceType": "QuestionnaireResponse",
      "id": "09f163e6-0f26-4d74-be04-d6b250147743",
      "identifier": {
        "value": "8067b9b2-e604-4414-b56f-8e3cc4de4b1b"
      },
      "questionnaire": {
        "reference": "urn:uuid:debdde28-9af4-4d3f-bb0a-8986fa6213aa"
      },
      "status": "completed",
      "subject": {
        "reference": "urn:uuid:3d7a3dac-035d-4886-b89c-35a9fe0be892"
      },
      "context": {
        "reference": "urn:uuid:b84234b0-2407-4d40-92e1-1bcddf26ba8b"
      },
      "authored": "2011-02-17T17:31:14+00:00",
      "item": [ {
        "linkId": "N/A",
        "text": "Dispatch 19 minute ambulance"
      } ]
    }
  }, {
    "fullUrl": "urn:uuid:debdde28-9af4-4d3f-bb0a-8986fa6213aa",
    "resource": {
      "resourceType": "Questionnaire",
      "id": "debdde28-9af4-4d3f-bb0a-8986fa6213aa",
      "identifier": [ {
        "value": "8067b9b2-e604-4414-b56f-8e3cc4de4b1b"
      } ],
      "version": "2011-02-17T17:31:14.313Z",
      "status": "active",
      "experimental": false,
      "date": "2011-02-17T17:31:14+00:00",
      "publisher": "User ID: '3137' User name: 'redacted' User skill set: 'T1'",
      "lastReviewDate": "2011-02-17",
      "jurisdiction": [ {
        "text": "England"
      } ],
      "contact": [ {
        "telecom": [ {
          "system": "phone",
          "value": "redacted"
        } ]
      } ],
      "subjectType": [ "Patient" ],
      "item": [ {
        "linkId": "8067b9b2-e604-4414-b56f-8e3cc4de4b1b",
        "prefix": "24100",
        "text": "Dispatch 19 minute ambulance",
        "type": "choice",
        "required": true,
        "repeats": false,
        "option": [ {
          "valueString": ", Selected: false"
        } ]
      } ]
    }
  }, {
    "fullUrl": "urn:uuid:9fdc679e-76fe-4084-a77a-ea6f81e67023",
    "resource": {
      "resourceType": "PractitionerRole",
      "id": "9fdc679e-76fe-4084-a77a-ea6f81e67023",
      "practitioner": {
        "reference": "urn:uuid:c183a511-b50c-4ca5-b4ce-834031a68d10"
      },
      "organization": {
        "reference": "urn:uuid:51683ced-1556-46d2-9e9f-6588fa4a709f"
      },
      "code": [ {
        "coding": [ {
          "system": "2.16.840.1.113883.2.1.3.2.4.17.196",
          "code": "T1",
          "display": "Nurse Triage Practitioner"
        } ]
      } ]
    }
  }, {
    "fullUrl": "urn:uuid:51683ced-1556-46d2-9e9f-6588fa4a709f",
    "resource": {
      "resourceType": "Organization",
      "id": "51683ced-1556-46d2-9e9f-6588fa4a709f",
      "identifier": [ {
        "value": "5L399"
      } ],
      "name": "Medway NHS Foundation Trust"
    }
  }, {
    "fullUrl": "urn:uuid:f842b308-2a4b-4d2b-8d2b-480389e4fb40",
    "resource": {
      "resourceType": "PractitionerRole",
      "id": "f842b308-2a4b-4d2b-8d2b-480389e4fb40",
      "practitioner": {
        "reference": "urn:uuid:9dadbf24-b712-4272-b917-12f3cf21900b"
      },
      "organization": {
        "reference": "urn:uuid:647e1738-ac22-4aae-8dd3-f7f0ee805528"
      },
      "code": [ {
        "coding": [ {
          "system": "2.16.840.1.113883.2.1.3.2.4.17.196",
          "code": "R0010",
          "display": "Medical Director"
        } ]
      } ]
    }
  }, {
    "fullUrl": "urn:uuid:647e1738-ac22-4aae-8dd3-f7f0ee805528",
    "resource": {
      "resourceType": "Organization",
      "id": "647e1738-ac22-4aae-8dd3-f7f0ee805528",
      "identifier": [ {
        "value": "VDE232323"
      } ],
      "name": "Medway South Out of Hours Centre"
    }
  }, {
    "fullUrl": "urn:uuid:f150007d-8317-47b6-9333-dcad3f232eb1",
    "resource": {
      "resourceType": "Device",
      "id": "f150007d-8317-47b6-9333-dcad3f232eb1",
      "model": "111 Adaptor",
      "version": "1.0.1"
    }
  }, {
    "fullUrl": "urn:uuid:ced1f713-0b55-44de-9c52-509ca7eff7bc",
    "resource": {
      "resourceType": "List",
      "id": "ced1f713-0b55-44de-9c52-509ca7eff7bc",
      "status": "current",
      "mode": "working",
      "title": "111 Report List",
      "code": {
        "coding": [ {
          "system": "http://snomed.info/sct",
          "code": "225390008",
          "display": "Triage"
        } ]
      },
      "subject": {
        "reference": "urn:uuid:3d7a3dac-035d-4886-b89c-35a9fe0be892"
      },
      "encounter": {
        "reference": "urn:uuid:b84234b0-2407-4d40-92e1-1bcddf26ba8b"
      },
      "date": "2017-01-01T20:00:00+00:00",
      "source": {
        "reference": "urn:uuid:f150007d-8317-47b6-9333-dcad3f232eb1"
      },
      "orderedBy": {
        "coding": [ {
          "system": "http://hl7.org/fhir/list-order",
          "code": "event-date",
          "display": "Sorted by Event Date"
        } ]
      },
      "entry": [ {
        "item": {
          "reference": "urn:uuid:5622cf85-7f05-4527-bb3f-07f977aa18b9"
        }
      }, {
        "item": {
          "reference": "urn:uuid:a85b6f83-6efe-4ba2-8e76-a8e26483bcb0"
        }
      }, {
        "item": {
          "reference": "urn:uuid:dd1d3222-6a0a-4299-b295-6126cd8379a1"
        }
      }, {
        "item": {
          "reference": "urn:uuid:0bc8b26d-ad9e-4421-beb5-3f0787d86004"
        }
      }, {
        "item": {
          "reference": "urn:uuid:9dadbf24-b712-4272-b917-12f3cf21900b"
        }
      }, {
        "item": {
          "reference": "urn:uuid:647e1738-ac22-4aae-8dd3-f7f0ee805528"
        }
      }, {
        "item": {
          "reference": "urn:uuid:51683ced-1556-46d2-9e9f-6588fa4a709f"
        }
      }, {
        "item": {
          "reference": "urn:uuid:c183a511-b50c-4ca5-b4ce-834031a68d10"
        }
      }, {
        "item": {
          "reference": "urn:uuid:aa912b90-4a78-4ae5-b95a-018974a942de"
        }
      }, {
        "item": {
          "reference": "urn:uuid:7385a33f-5952-4063-becc-9d1e86fedaf4"
        }
      }, {
        "item": {
          "reference": "urn:uuid:8c7e4d4b-0218-44ba-99fd-47e08f52dead"
        }
      }, {
        "item": {
          "reference": "urn:uuid:a65b38f8-20a3-4b0c-b6b4-6ab09c210f8d"
        }
      }, {
        "item": {
          "reference": "urn:uuid:65117f87-b8cf-4acf-b7f6-3462c2d6e415"
        }
      }, {
        "item": {
          "reference": "urn:uuid:a9c7ffd1-ad76-4dbe-a18d-32ede973d0fc"
        }
      }, {
        "item": {
          "reference": "urn:uuid:87b0e0f0-32e6-496f-98f7-4e5abd68176a"
        }
      }, {
        "item": {
          "reference": "urn:uuid:07af9c13-c822-4745-b786-d04a0dd440f8"
        }
      }, {
        "item": {
          "reference": "urn:uuid:88bf28fa-17c4-4eb8-960b-7991affc2f97"
        }
      }, {
        "item": {
          "reference": "urn:uuid:4dac4c2e-253d-4ff9-a934-485eb578f657"
        }
      }, {
        "item": {
          "reference": "urn:uuid:07c4d317-a1bc-4f7b-a474-face84bdc6db"
        }
      }, {
        "item": {
          "reference": "urn:uuid:1e01b3b7-5b3a-4b87-863c-48d91d24231c"
        }
      }, {
        "item": {
          "reference": "urn:uuid:16ffcfcf-3e20-48e7-a0cd-5e10e5f03640"
        }
      }, {
        "item": {
          "reference": "urn:uuid:017b4906-6d09-4bb5-935f-c2fb7b7ab530"
        }
      }, {
        "item": {
          "reference": "urn:uuid:33071d89-fc80-46c1-8b2d-6df3e61b1fa7"
        }
      }, {
        "item": {
          "reference": "urn:uuid:6e0a7989-0229-474d-beda-ccb8f70b0c44"
        }
      }, {
        "item": {
          "reference": "urn:uuid:19264676-3bfb-4427-a939-93f9c5e796dd"
        }
      }, {
        "item": {
          "reference": "urn:uuid:e0c6d344-7788-4865-a9fc-f01eaf60d522"
        }
      }, {
        "item": {
          "reference": "urn:uuid:10a7abb2-3726-45ed-b28d-e7a72419718b"
        }
      }, {
        "item": {
          "reference": "urn:uuid:79576d29-614a-47d0-b7c9-7f3ee19ef1ab"
        }
      }, {
        "item": {
          "reference": "urn:uuid:90a3cf43-f2ec-4c3a-80a5-09486adff967"
        }
      }, {
        "item": {
          "reference": "urn:uuid:8b42bb75-02f2-49dc-b893-0aa7e9e52c8c"
        }
      }, {
        "item": {
          "reference": "urn:uuid:2a855299-3313-4270-9115-7bc8a116f2cb"
        }
      }, {
        "item": {
          "reference": "urn:uuid:0455604e-a78a-4266-86be-308d008f957e"
        }
      }, {
        "item": {
          "reference": "urn:uuid:9f396f28-0e33-4acd-96c5-c5be245c2d9b"
        }
      }, {
        "item": {
          "reference": "urn:uuid:debdde28-9af4-4d3f-bb0a-8986fa6213aa"
        }
      }, {
        "item": {
          "reference": "urn:uuid:09f163e6-0f26-4d74-be04-d6b250147743"
        }
      }, {
        "item": {
          "reference": "urn:uuid:8b62999f-b73a-4422-8623-47082bec4398"
        }
      }, {
        "item": {
          "reference": "urn:uuid:a6dda8e5-b3f4-4a76-91c8-f64b57b7793b"
        }
      }, {
        "item": {
          "reference": "urn:uuid:26a75d7f-1ca1-47ae-8bf6-18c10aed4bf5"
        }
      }, {
        "item": {
          "reference": "urn:uuid:97712b24-cd21-42cb-a09e-7965c9f11c4d"
        }
      }, {
        "item": {
          "reference": "urn:uuid:5eeae101-2bae-4704-a372-1f88a409f29c"
        }
      }, {
        "item": {
          "reference": "urn:uuid:649d0ff7-4133-4153-ba3f-8d6233443286"
        }
      }, {
        "item": {
          "reference": "urn:uuid:ed3a92a3-09f7-4934-82cb-72b0e5b5f392"
        }
      }, {
        "item": {
          "reference": "urn:uuid:da4f56c8-d76b-4172-bc7d-5aec88538164"
        }
      }, {
        "item": {
          "reference": "urn:uuid:c61284d5-c3c3-4344-a903-fb19bc7db5ce"
        }
      }, {
        "item": {
          "reference": "urn:uuid:620f3175-e067-4798-a5b0-5c7ce0939fa1"
        }
      }, {
        "item": {
          "reference": "urn:uuid:bc1ca567-6aca-4c5f-a55c-25ae07757f13"
        }
      }, {
        "item": {
          "reference": "urn:uuid:9dc7becf-f4e2-4a67-a97d-21801643e64e"
        }
      }, {
        "item": {
          "reference": "urn:uuid:f35b64e2-e074-4fb1-aab8-75647b1b7e22"
        }
      }, {
        "item": {
          "reference": "urn:uuid:074e7a9b-11e6-4119-8287-21ed83ed028c"
        }
      }, {
        "item": {
          "reference": "urn:uuid:c053375b-8e4a-4130-8fe2-c2f106c15e57"
        }
      }, {
        "item": {
          "reference": "urn:uuid:064f0f6f-25f4-41cd-9213-6ddff80f2db3"
        }
      }, {
        "item": {
          "reference": "urn:uuid:9d38b82e-ceff-410e-a1b8-8fd349b5ec31"
        }
      }, {
        "item": {
          "reference": "urn:uuid:8ca5d40b-dfd3-4660-b71c-713010362e26"
        }
      }, {
        "item": {
          "reference": "urn:uuid:8b697b63-be9a-4c78-86d9-84ed9c51f7fa"
        }
      }, {
        "item": {
          "reference": "urn:uuid:63591ef0-26a5-43dc-88d4-72237b42034b"
        }
      }, {
        "item": {
          "reference": "urn:uuid:2df57ff0-a745-406a-8997-c613b0333868"
        }
      }, {
        "item": {
          "reference": "urn:uuid:15a1b696-3587-47c3-a9f2-6a63f547775c"
        }
      }, {
        "item": {
          "reference": "urn:uuid:e365e7f9-828f-45e7-a8f3-7665f5b79a6b"
        }
      }, {
        "item": {
          "reference": "urn:uuid:b25c8585-410e-41ec-8e1c-c11ce16defa9"
        }
      }, {
        "item": {
          "reference": "urn:uuid:35ebcf0f-278e-4bbc-a513-88c3314e09e2"
        }
      }, {
        "item": {
          "reference": "urn:uuid:ef11bcf4-9c0c-47fb-ad02-a2d223d57d23"
        }
      }, {
        "item": {
          "reference": "urn:uuid:b2b79c28-896e-47e5-a42e-ba8d539f42f5"
        }
      } ]
    }
  } ]
}