{
  "resourceType": "Bundle",
  "identifier": {
    "type": {
      "text": "ClinicalDocument VersionNumber"
    },
    "value": "1"
  },
  "type": "message",
  "entry": [ {
    "fullUrl": "urn:uuid:2B77B3F5-3016-4A6D-821F-152CE420E58D",
    "resource": {
      "resourceType": "MessageHeader",
      "id": "2B77B3F5-3016-4A6D-821F-152CE420E58D",
      "event": {
        "system": "https://fhir.nhs.uk/STU3/CodeSystem/EventType-1",
        "code": "referral-1",
        "display": "Referral"
      },
      "destination": [ {
        "endpoint": "urn:nhs-uk:addressing:ods:EM396:DOSServiceID:26428"
      } ],
      "timestamp": "2025-10-30T09:45:22.000+00:00",
      "source": {
        "name": "NHS 111 Adaptor",
        "endpoint": "http://localhost:8080/report"
      },
      "reason": {
        "coding": [ {
          "system": "urn:nhs-itk:ns:201005:interaction",
          "code": "urn:nhs-itk:interaction:primaryNHS111RepeatCallerDocumentSet-v1-0"
        } ]
      }
    }
  }, {
    "fullUrl": "urn:uuid:a118b7c9-b1d2-4dfd-9562-b9d316488945",
    "resource": {
      "resourceType": "Encounter",
      "id": "a118b7c9-b1d2-4dfd-9562-b9d316488945",
      "identifier": [ {
        "system": "2.16.840.1.113883.2.1.3.2.4.18.34",
        "value": "D47E4F49-D4B8-4913-85B9-64AF5523B268"
      }, {
        "system": "2.16.840.1.113883.2.1.3.2.4.18.35",
        "value": "1193164"
      } ],
      "status": "finished",
      "type": [ {
        "text": "111 Encounter Referral"
      } ],
      "subject": {
        "reference": "urn:uuid:97ef1f16-3bed-4505-97c1-0d99ed1870bf"
      },
      "participant": [ {
        "type": [ {
          "coding": [ {
            "system": "http://hl7.org/fhir/ValueSet/encounter-participant-type",
            "code": "PPRF",
            "display": "Author"
          } ]
        } ],
        "individual": {
          "reference": "urn:uuid:bb7c9227-d59b-469e-a98f-41636c815ad2"
        }
      }, {
        "type": [ {
          "coding": [ {
            "system": "http://hl7.org/fhir/ValueSet/encounter-participant-type",
            "code": "ATND",
            "display": "Responsible Party"
          } ]
        } ],
        "individual": {
          "reference": "urn:uuid:2d6b3bda-b155-4fcd-ad92-96eb9e43e94d"
        }
      } ],
      "period": {
        "start": "2025-10-30T09:45:22+00:00"
      },
      "location": [ {
        "location": {
          "reference": "urn:uuid:cdb5a730-e126-4883-a7cc-c80c5bd2d8cf"
        },
        "status": "active"
      }, {
        "location": {
          "reference": "urn:uuid:988d95ef-0fdb-4358-a42a-d7f22c445d2f"
        },
        "status": "completed"
      } ],
      "serviceProvider": {
        "reference": "urn:uuid:521acb71-9073-429b-be50-ec3cf2767fa0"
      }
    }
  }, {
    "fullUrl": "urn:uuid:521acb71-9073-429b-be50-ec3cf2767fa0",
    "resource": {
      "resourceType": "Organization",
      "id": "521acb71-9073-429b-be50-ec3cf2767fa0",
      "active": true,
      "type": [ {
        "text": "CST"
      } ],
      "name": "West Midlands Single Instance"
    }
  }, {
    "fullUrl": "urn:uuid:bb7c9227-d59b-469e-a98f-41636c815ad2",
    "resource": {
      "resourceType": "Practitioner",
      "id": "bb7c9227-d59b-469e-a98f-41636c815ad2",
      "active": true,
      "name": [ {
        "use": "official"
      } ]
    }
  }, {
    "fullUrl": "urn:uuid:2d6b3bda-b155-4fcd-ad92-96eb9e43e94d",
    "resource": {
      "resourceType": "Practitioner",
      "id": "2d6b3bda-b155-4fcd-ad92-96eb9e43e94d",
      "active": true,
      "name": [ {
        "use": "official",
        "family": "Walker",
        "given": [ "Alison" ]
      } ]
    }
  }, {
    "fullUrl": "urn:uuid:cdb5a730-e126-4883-a7cc-c80c5bd2d8cf",
    "resource": {
      "resourceType": "Location",
      "id": "cdb5a730-e126-4883-a7cc-c80c5bd2d8cf",
      "managingOrganization": {
        "reference": "urn:uuid:8a132876-15ef-44ea-be46-1c4f46a9fffa"
      }
    }
  }, {
    "fullUrl": "urn:uuid:8a132876-15ef-44ea-be46-1c4f46a9fffa",
    "resource": {
      "resourceType": "Organization",
      "id": "8a132876-15ef-44ea-be46-1c4f46a9fffa",
      "identifier": [ {
        "value": "F81718"
      } ],
      "type": [ {
        "text": "GP Practice"
      } ],
      "name": "LYDIA HOUSE PRACTICE"
    }
  }, {
    "fullUrl": "urn:uuid:988d95ef-0fdb-4358-a42a-d7f22c445d2f",
    "resource": {
      "resourceType": "Location",
      "id": "988d95ef-0fdb-4358-a42a-d7f22c445d2f",
      "name": "Incident Location",
      "address": {
        "type": "physical",
        "line": [ "Whitchurch Hospital", "Claypit Street", "Whitchurch", "Shropshire" ],
        "postalCode": "SY13 1NT"
      }
    }
  }, {
    "fullUrl": "urn:uuid:97ef1f16-3bed-4505-97c1-0d99ed1870bf",
    "resource": {
      "resourceType": "Patient",
      "id": "97ef1f16-3bed-4505-97c1-0d99ed1870bf",
      "identifier": [ {
        "extension": [ {
          "url": "https://fhir.hl7.org.uk/STU3/StructureDefinition/Extension-CareConnect-NHSNumberVerificationStatus-1",
          "valueCodeableConcept": {
            "coding": [ {
              "system": "https://fhir.hl7.org.uk/STU3/StructureDefinition/Extension-CareConnect-NHSNumberVerificationStatus-1",
              "code": "01"
            } ]
          }
        } ],
        "system": "https://fhir.nhs.uk/Id/nhs-number",
        "value": "9990238359"
      } ],
      "active": true,
      "name": [ {
        "use": "official",
        "family": "Xxtestpatientdzadn",
        "given": [ "Scrdonotuse" ]
      } ],
      "telecom": [ {
        "system": "phone",
        "value": "tel:01204428013",
        "use": "home"
      }, {
        "system": "phone",
        "value": "tel:01204428013"
      } ],
      "gender": "female",
      "birthDate": "1965-02-17",
      "address": [ {
        "use": "home",
        "line": [ "Test Address", "Captain Lees Road", "Westhoughton", "Bolton", "Greater Manchester" ],
        "postalCode": "BL5 3UB"
      }, {
        "type": "physical",
        "line": [ "Whitchurch Hospital", "Claypit Street", "Whitchurch", "Shropshire" ],
        "postalCode": "SY13 1NT"
      } ],
      "generalPractitioner": [ {
        "reference": "urn:uuid:d4e11601-ac93-4803-a0dc-c40c81a5b5a0"
      } ]
    }
  }, {
    "fullUrl": "urn:uuid:d4e11601-ac93-4803-a0dc-c40c81a5b5a0",
    "resource": {
      "resourceType": "Organization",
      "id": "d4e11601-ac93-4803-a0dc-c40c81a5b5a0",
      "identifier": [ {
        "value": "F81718"
      } ],
      "type": [ {
        "text": "GP Practice"
      } ],
      "name": "LYDIA HOUSE PRACTICE"
    }
  }, {
    "fullUrl": "urn:uuid:d11aadef-f86c-47e6-8c7f-3165b8769f0f",
    "resource": {
      "resourceType": "HealthcareService",
      "id": "d11aadef-f86c-47e6-8c7f-3165b8769f0f",
      "active": true,
      "providedBy": {
        "reference": "urn:uuid:8ae36824-e8c9-463c-a1e3-7a9d764423a8"
      },
      "location": [ {
        "reference": "urn:uuid:56dece1b-d710-4745-98d3-7054d0bb8814"
      } ],
      "name": "Repeat Caller - Live (v2)"
    }
  }, {
    "fullUrl": "urn:uuid:56dece1b-d710-4745-98d3-7054d0bb8814",
    "resource": {
      "resourceType": "Location",
      "id": "56dece1b-d710-4745-98d3-7054d0bb8814",
      "managingOrganization": {
        "reference": "urn:uuid:8ae36824-e8c9-463c-a1e3-7a9d764423a8"
      }
    }
  }, {
    "fullUrl": "urn:uuid:8ae36824-e8c9-463c-a1e3-7a9d764423a8",
    "resource": {
      "resourceType": "Organization",
      "id": "8ae36824-e8c9-463c-a1e3-7a9d764423a8",
      "identifier": [ {
        "value": "RHY25"
      } ],
      "type": [ {
        "coding": [ {
          "code": "PRCP",
          "display": "Repeat Caller - Live (v2)"
        } ]
      } ],
      "name": "Repeat Caller - Live (v2)"
    }
  }, {
    "fullUrl": "urn:uuid:e29d4490-4f65-419e-9b3a-0ab9f511896c",
    "resource": {
      "resourceType": "ReferralRequest",
      "id": "e29d4490-4f65-419e-9b3a-0ab9f511896c",
      "status": "active",
      "intent": "plan",
      "priority": "routine",
      "subject": {
        "reference": "urn:uuid:97ef1f16-3bed-4505-97c1-0d99ed1870bf"
      },
      "context": {
        "reference": "urn:uuid:a118b7c9-b1d2-4dfd-9562-b9d316488945"
      },
      "occurrencePeriod": {
        "start": "2022-05-05T07:31:35+00:00",
        "end": "2022-05-05T08:31:35+00:00"
      },
      "authoredOn": "2020-10-30T09:44:13+00:00",
      "requester": {
        "agent": {
          "reference": "urn:uuid:b64a65f7-2c8a-4d73-af73-927db5320edb"
        },
        "onBehalfOf": {
          "reference": "urn:uuid:521acb71-9073-429b-be50-ec3cf2767fa0"
        }
      },
      "recipient": [ {
        "reference": "urn:uuid:d11aadef-f86c-47e6-8c7f-3165b8769f0f"
      } ],
      "reasonReference": [ {
        "reference": "urn:uuid:667a0dd4-48ea-4cdb-871f-951f94f345b1"
      } ],
      "supportingInfo": [ {
        "reference": "urn:uuid:abd400c2-dad8-48f6-9cf1-59cbfe5faa48"
      } ]
    }
  }, {
    "fullUrl": "urn:uuid:abd400c2-dad8-48f6-9cf1-59cbfe5faa48",
    "resource": {
      "resourceType": "ProcedureRequest",
      "id": "abd400c2-dad8-48f6-9cf1-59cbfe5faa48",
      "status": "active",
      "intent": "plan",
      "priority": "routine",
      "doNotPerform": false,
      "code": {
        "coding": [ {
          "system": "2.16.840.1.113883.2.1.3.2.4.17.325",
          "code": "Dx05",
          "display": "To contact a local service within 2 hours"
        } ]
      },
      "subject": {
        "reference": "urn:uuid:97ef1f16-3bed-4505-97c1-0d99ed1870bf"
      },
      "occurrencePeriod": {
        "start": "2022-05-05T07:31:35+00:00",
        "end": "2022-05-05T08:31:35+00:00"
      },
      "reasonReference": [ {
        "reference": "urn:uuid:667a0dd4-48ea-4cdb-871f-951f94f345b1"
      } ]
    }
  }, {
    "fullUrl": "urn:uuid:bb2e2bc2-fee2-43f3-b7ca-66092eb163bb",
    "resource": {
      "resourceType": "Composition",
      "id": "bb2e2bc2-fee2-43f3-b7ca-66092eb163bb",
      "identifier": {
        "use": "usual",
        "value": "499BEC45-8F01-498C-A61F-B8AC124ED50E"
      },
      "status": "final",
      "type": {
        "coding": [ {
          "system": "http://snomed.info/sct",
          "code": "371531000",
          "display": "Report of clinical encounter (record artifact)"
        } ]
      },
      "subject": {
        "reference": "urn:uuid:97ef1f16-3bed-4505-97c1-0d99ed1870bf"
      },
      "encounter": {
        "reference": "urn:uuid:a118b7c9-b1d2-4dfd-9562-b9d316488945"
      },
      "date": "2025-10-30T09:45:22+00:00",
      "author": [ {
        "reference": "urn:uuid:bb7c9227-d59b-469e-a98f-41636c815ad2"
      } ],
      "title": "111 Report",
      "confidentiality": "N",
      "section": [ {
        "section": [ {
          "title": "Patient's Reported Condition",
          "text": {
            "status": "generated",
            "div": "<div xmlns=\"http://www.w3.org/1999/xhtml\">&lt;br/&gt;WHITCHURCH MIU TEST</div>"
          }
        }, {
          "title": "Pathways Disposition",
          "text": {
            "status": "generated",
            "div": "<div xmlns=\"http://www.w3.org/1999/xhtml\">&lt;br/&gt;\n                                                    &lt;br/&gt;\n                                                    &lt;br/&gt;To contact a local service within 2 hours (Dx05)\n\n                                                    Selected service: DO NOT BOOK APPOINTMENT - TESTING Whitchurch Minor Injury Unit</div>"
          }
        }, {
          "title": "Consultation Summary",
          "text": {
            "status": "generated",
            "div": "<div xmlns=\"http://www.w3.org/1999/xhtml\">&lt;br/&gt;\n                                                    &lt;br/&gt;\n                                                    &lt;br/&gt;\n                                                    &lt;br/&gt;\n                                                    &lt;br/&gt;InjuryBite or stingInsect or spider biteSting/bite more than 6 hours agoVery severe, deep limb pain</div>"
          }
        }, {
          "title": "Pathways Assessment",
          "text": {
            "status": "generated",
            "div": "<div xmlns=\"http://www.w3.org/1999/xhtml\">&lt;br/&gt;\n                                                    &lt;br/&gt;\n                                                    &lt;br/&gt;\n                                                    &lt;br/&gt;\n                                                    &lt;br/&gt;\n                                                    &lt;br/&gt;\n                                                    &lt;br/&gt;\n                                                    &lt;br/&gt;\n                                                    &lt;br/&gt;\n                                                    &lt;br/&gt;\n                                                    &lt;br/&gt;\n                                                    &lt;br/&gt;\n                                                    &lt;br/&gt;\n                                                    &lt;br/&gt;\n                                                    &lt;br/&gt;\n                                                    &lt;br/&gt;\n                                                    &lt;br/&gt;\n                                                    &lt;br/&gt;An injury or health problem was the reason for the contact.Heavy bleeding had not occurred in the previous 2 hours.An injury or symptom relating to an injury was the main problem.User Comments: TESTThere was a minor injury (a bite or sting).User Comments: TESTPathway selected - Bites and StingsThe bite or sting was caused by an insect or spider.User Comments: TESTThe sting/bite had not occurred within the previous 6 hours.The individual had been stung less than 10 timesThe individual was not experiencing nausea and/or vomiting.The sting did not involve the eyes, mouth or limb.There was no insect/insect part remaining attached to the skinThere was very severe, deep pain.Instructions given were: The individual needs to contact a local service within 2 hours.Directory of Services referral: DO NOT BOOK APPOINTMENT - TESTING Whitchurch Minor Injury UnitAdvice given:\n                                                    Worsening</div>"
          }
        }, {
          "title": "Advice Given",
          "text": {
            "status": "generated",
            "div": "<div xmlns=\"http://www.w3.org/1999/xhtml\">&lt;br/&gt;\n                                                    &lt;br/&gt;If there are any new symptoms, or if the condition gets worse, changes or you have any other concerns, call us back.</div>"
          }
        }, {
          "title": "Special Patient Notes",
          "text": {
            "status": "generated",
            "div": "<div xmlns=\"http://www.w3.org/1999/xhtml\">&lt;content styleCode=&quot;bold&quot;&gt;Note:&lt;/content&gt;\n                                                    &lt;br/&gt;\n                                                    &lt;content&gt;TEST NOTE West Midlands Single Instance&lt;/content&gt;\n                                                    &lt;br/&gt;\n                                                    &lt;br/&gt;Special Notes from an external system were flagged as being present for this patient.</div>"
          }
        } ]
      }, {
        "title": "ReferralRequest",
        "entry": [ {
          "reference": "urn:uuid:e29d4490-4f65-419e-9b3a-0ab9f511896c"
        } ]
      }, {
        "title": "QuestionnaireResponse",
        "entry": [ {
          "reference": "urn:uuid:db8035b8-64c7-445b-aaed-6944e2c75268"
        } ]
      }, {
        "title": "QuestionnaireResponse",
        "entry": [ {
          "reference": "urn:uuid:54f9160a-7221-4465-b420-6845ac81b90e"
        } ]
      }, {
        "title": "QuestionnaireResponse",
        "entry": [ {
          "reference": "urn:uuid:023ab277-4035-4023-ab24-96a5bb0bfd39"
        } ]
      }, {
        "title": "QuestionnaireResponse",
        "entry": [ {
          "reference": "urn:uuid:0ebebbc5-f229-4828-9108-83728889757b"
        } ]
      }, {
        "title": "QuestionnaireResponse",
        "entry": [ {
          "reference": "urn:uuid:b7224589-f282-472f-aeab-2b73ed4e7681"
        } ]
      }, {
        "title": "QuestionnaireResponse",
        "entry": [ {
          "reference": "urn:uuid:5b8d0d95-d4ce-4cf8-9b75-75133ee98a14"
        } ]
      }, {
        "title": "QuestionnaireResponse",
        "entry": [ {
          "reference": "urn:uuid:a1afc754-5161-4ef5-82c7-b8bcea625767"
        } ]
      }, {
        "title": "QuestionnaireResponse",
        "entry": [ {
          "reference": "urn:uuid:986b64a9-5287-486c-9011-f861e0708c51"
        } ]
      }, {
        "title": "QuestionnaireResponse",
        "entry": [ {
          "reference": "urn:uuid:ad5e2aed-26fd-491c-8fc5-3b90580cd2f9"
        } ]
      }, {
        "title": "QuestionnaireResponse",
        "entry": [ {
          "reference": "urn:uuid:00f82451-6533-4254-9912-3165d6d3d989"
        } ]
      }, {
        "title": "QuestionnaireResponse",
        "entry": [ {
          "reference": "urn:uuid:0d47e9c3-c528-483b-b00b-fe36860c46cf"
        } ]
      }, {
        "title": "QuestionnaireResponse",
        "entry": [ {
          "reference": "urn:uuid:1017eb89-bcd2-411e-b2a7-177554b4ad22"
        } ]
      }, {
        "title": "QuestionnaireResponse",
        "entry": [ {
          "reference": "urn:uuid:e11f679f-f5cb-4a6b-a632-27d5ca8ec798"
        } ]
      }, {
        "title": "QuestionnaireResponse",
        "entry": [ {
          "reference": "urn:uuid:14c6df70-da37-403b-a62d-db6e9d665676"
        } ]
      }, {
        "title": "QuestionnaireResponse",
        "entry": [ {
          "reference": "urn:uuid:567af33d-9f06-4e0d-8cc0-951336007b0e"
        } ]
      }, {
        "title": "QuestionnaireResponse",
        "entry": [ {
          "reference": "urn:uuid:93fdcd7e-0d0c-48e8-b8b6-00176a455b7b"
        } ]
      }, {
        "title": "QuestionnaireResponse",
        "entry": [ {
          "reference": "urn:uuid:7254ba40-c359-4e52-aa30-0dede9a2a20d"
        } ]
      }, {
        "title": "QuestionnaireResponse",
        "entry": [ {
          "reference": "urn:uuid:3b50eb69-cc21-4bad-865e-3f698170c4b2"
        } ]
      }, {
        "title": "QuestionnaireResponse",
        "entry": [ {
          "reference": "urn:uuid:ca426dca-9835-4b86-8050-86fdffb44efa"
        } ]
      }, {
        "title": "QuestionnaireResponse",
        "entry": [ {
          "reference": "urn:uuid:5e19d5f5-bb9f-424d-947f-429660f23708"
        } ]
      }, {
        "title": "QuestionnaireResponse",
        "entry": [ {
          "reference": "urn:uuid:19bd85f8-331f-47fe-afbf-237fd1275511"
        } ]
      }, {
        "title": "QuestionnaireResponse",
        "entry": [ {
          "reference": "urn:uuid:bee5af60-d015-4124-92ed-d3b87e87f24d"
        } ]
      } ]
    }
  }, {
    "fullUrl": "urn:uuid:191d5d1e-4211-4a51-bf10-54a51b03bde6",
    "resource": {
      "resourceType": "Consent",
      "id": "191d5d1e-4211-4a51-bf10-54a51b03bde6",
      "identifier": {
        "use": "usual",
        "value": "499BEC45-8F01-498C-A61F-B8AC124ED50E"
      },
      "status": "active",
      "patient": {
        "reference": "urn:uuid:97ef1f16-3bed-4505-97c1-0d99ed1870bf"
      },
      "period": {
        "start": "2025-10-30T09:45:22+00:00"
      },
      "consentingParty": [ {
        "reference": "urn:uuid:97ef1f16-3bed-4505-97c1-0d99ed1870bf"
      } ],
      "action": [ {
        "coding": [ {
          "system": "http://snomed.info/sct",
          "code": "425691002",
          "display": "Consent given for electronic record sharing"
        } ],
        "text": "Consent given for electronic record sharing"
      } ],
      "organization": [ {
        "reference": "urn:uuid:521acb71-9073-429b-be50-ec3cf2767fa0"
      } ],
      "policyRule": "http://hl7.org/fhir/ConsentPolicy/opt-out",
      "data": [ {
        "meaning": "related",
        "reference": {
          "reference": "urn:uuid:a118b7c9-b1d2-4dfd-9562-b9d316488945"
        }
      } ]
    }
  }, {
    "fullUrl": "urn:uuid:667a0dd4-48ea-4cdb-871f-951f94f345b1",
    "resource": {
      "resourceType": "Condition",
      "id": "667a0dd4-48ea-4cdb-871f-951f94f345b1",
      "clinicalStatus": "active",
      "verificationStatus": "unknown",
      "subject": {
        "reference": "urn:uuid:97ef1f16-3bed-4505-97c1-0d99ed1870bf"
      },
      "context": {
        "reference": "urn:uuid:a118b7c9-b1d2-4dfd-9562-b9d316488945"
      },
      "evidence": [ {
        "detail": [ {
          "reference": "urn:uuid:db8035b8-64c7-445b-aaed-6944e2c75268"
        } ]
      }, {
        "detail": [ {
          "reference": "urn:uuid:54f9160a-7221-4465-b420-6845ac81b90e"
        } ]
      }, {
        "detail": [ {
          "reference": "urn:uuid:023ab277-4035-4023-ab24-96a5bb0bfd39"
        } ]
      }, {
        "detail": [ {
          "reference": "urn:uuid:0ebebbc5-f229-4828-9108-83728889757b"
        } ]
      }, {
        "detail": [ {
          "reference": "urn:uuid:b7224589-f282-472f-aeab-2b73ed4e7681"
        } ]
      }, {
        "detail": [ {
          "reference": "urn:uuid:5b8d0d95-d4ce-4cf8-9b75-75133ee98a14"
        } ]
      }, {
        "detail": [ {
          "reference": "urn:uuid:a1afc754-5161-4ef5-82c7-b8bcea625767"
        } ]
      }, {
        "detail": [ {
          "reference": "urn:uuid:986b64a9-5287-486c-9011-f861e0708c51"
        } ]
      }, {
        "detail": [ {
          "reference": "urn:uuid:ad5e2aed-26fd-491c-8fc5-3b90580cd2f9"
        } ]
      }, {
        "detail": [ {
          "reference": "urn:uuid:00f82451-6533-4254-9912-3165d6d3d989"
        } ]
      }, {
        "detail": [ {
          "reference": "urn:uuid:0d47e9c3-c528-483b-b00b-fe36860c46cf"
        } ]
      }, {
        "detail": [ {
          "reference": "urn:uuid:1017eb89-bcd2-411e-b2a7-177554b4ad22"
        } ]
      }, {
        "detail": [ {
          "reference": "urn:uuid:e11f679f-f5cb-4a6b-a632-27d5ca8ec798"
        } ]
      }, {
        "detail": [ {
          "reference": "urn:uuid:14c6df70-da37-403b-a62d-db6e9d665676"
        } ]
      }, {
        "detail": [ {
          "reference": "urn:uuid:567af33d-9f06-4e0d-8cc0-951336007b0e"
        } ]
      }, {
        "detail": [ {
          "reference": "urn:uuid:93fdcd7e-0d0c-48e8-b8b6-00176a455b7b"
        } ]
      }, {
        "detail": [ {
          "reference": "urn:uuid:7254ba40-c359-4e52-aa30-0dede9a2a20d"
        } ]
      }, {
        "detail": [ {
          "reference": "urn:uuid:3b50eb69-cc21-4bad-865e-3f698170c4b2"
        } ]
      }, {
        "detail": [ {
          "reference": "urn:uuid:ca426dca-9835-4b86-8050-86fdffb44efa"
        } ]
      }, {
        "detail": [ {
          "reference": "urn:uuid:5e19d5f5-bb9f-424d-947f-429660f23708"
        } ]
      }, {
        "detail": [ {
          "reference": "urn:uuid:19bd85f8-331f-47fe-afbf-237fd1275511"
        } ]
      }, {
        "detail": [ {
          "reference": "urn:uuid:bee5af60-d015-4124-92ed-d3b87e87f24d"
        } ]
      } ]
    }
  }, {
    "fullUrl": "urn:uuid:db8035b8-64c7-445b-aaed-6944e2c75268",
    "resource": {
      "resourceType": "QuestionnaireResponse",
      "id": "db8035b8-64c7-445b-aaed-6944e2c75268",
      "identifier": {
        "value": "1193164"
      },
      "questionnaire": {
        "reference": "urn:uuid:6bb86bda-7028-4e5e-a288-bb7a599b71ee"
      },
      "status": "completed",
      "subject": {
        "reference": "urn:uuid:97ef1f16-3bed-4505-97c1-0d99ed1870bf"
      },
      "context": {
        "reference": "urn:uuid:a118b7c9-b1d2-4dfd-9562-b9d316488945"
      },
      "authored": "2020-10-30T09:45:23+00:00",
      "item": [ {
        "linkId": "Tx220074",
        "text": "What is the reason for the contact?",
        "answer": [ {
          "valueString": "an injury or other health problem"
        } ]
      } ]
    }
  }, {
    "fullUrl": "urn:uuid:6bb86bda-7028-4e5e-a288-bb7a599b71ee",
    "resource": {
      "resourceType": "Questionnaire",
      "id": "6bb86bda-7028-4e5e-a288-bb7a599b71ee",
      "identifier": [ {
        "value": "1193164"
      } ],
      "version": "2020-10-30T09:45:23.026Z",
      "status": "active",
      "experimental": false,
      "date": "2020-10-30T09:45:23+00:00",
      "publisher": "User ID: 'HOLDENR' User name: 'Rachael Holden' User skill set: 'T3'",
      "lastReviewDate": "2020-10-30",
      "subjectType": [ "Patient" ],
      "item": [ {
        "linkId": "1193164",
        "prefix": "5",
        "text": "What is the reason for the contact?",
        "type": "choice",
        "required": true,
        "repeats": false,
        "option": [ {
          "valueString": "an injury or other health problem, Selected: true"
        }, {
          "valueString": "labour or childbirth, Selected: false"
        }, {
          "valueString": "a need to access another healthcare service, Selected: false"
        }, {
          "valueString": "a healthcare professional requesting contact with another clinician, Selected: false"
        }, {
          "valueString": "a report of results or tests, Selected: false"
        }, {
          "valueString": "a possible failure of contraception, Selected: false"
        }, {
          "valueString": "more, Selected: false"
        } ]
      } ]
    }
  }, {
    "fullUrl": "urn:uuid:54f9160a-7221-4465-b420-6845ac81b90e",
    "resource": {
      "resourceType": "QuestionnaireResponse",
      "id": "54f9160a-7221-4465-b420-6845ac81b90e",
      "identifier": {
        "value": "1193164"
      },
      "questionnaire": {
        "reference": "urn:uuid:f735f48a-bdf2-49af-9218-b619a153e32c"
      },
      "status": "completed",
      "subject": {
        "reference": "urn:uuid:97ef1f16-3bed-4505-97c1-0d99ed1870bf"
      },
      "context": {
        "reference": "urn:uuid:a118b7c9-b1d2-4dfd-9562-b9d316488945"
      },
      "authored": "2020-10-30T09:45:23+00:00",
      "item": [ {
        "linkId": "Tx221807",
        "text": "STRING:to'Immediatethreatstolife(SPA/OOHversion)'-'Majorbloodloss'stem",
        "answer": [ {
          "valueString": "\"present\""
        } ]
      } ]
    }
  }, {
    "fullUrl": "urn:uuid:f735f48a-bdf2-49af-9218-b619a153e32c",
    "resource": {
      "resourceType": "Questionnaire",
      "id": "f735f48a-bdf2-49af-9218-b619a153e32c",
      "identifier": [ {
        "value": "1193164"
      } ],
      "version": "2020-10-30T09:45:23.026Z",
      "status": "active",
      "experimental": false,
      "date": "2020-10-30T09:45:23+00:00",
      "publisher": "User ID: 'HOLDENR' User name: 'Rachael Holden' User skill set: 'T3'",
      "lastReviewDate": "2020-10-30",
      "subjectType": [ "Patient" ],
      "item": [ {
        "linkId": "1193164",
        "prefix": "200",
        "text": "STRING:to'Immediatethreatstolife(SPA/OOHversion)'-'Majorbloodloss'stem",
        "type": "choice",
        "required": true,
        "repeats": false,
        "option": [ {
          "valueString": "\"present\", Selected: true"
        } ]
      } ]
    }
  }, {
    "fullUrl": "urn:uuid:023ab277-4035-4023-ab24-96a5bb0bfd39",
    "resource": {
      "resourceType": "QuestionnaireResponse",
      "id": "023ab277-4035-4023-ab24-96a5bb0bfd39",
      "identifier": {
        "value": "1193164"
      },
      "questionnaire": {
        "reference": "urn:uuid:2138bc37-7371-46bb-bda6-e62bccb81cb9"
      },
      "status": "completed",
      "subject": {
        "reference": "urn:uuid:97ef1f16-3bed-4505-97c1-0d99ed1870bf"
      },
      "context": {
        "reference": "urn:uuid:a118b7c9-b1d2-4dfd-9562-b9d316488945"
      },
      "authored": "2020-10-30T09:45:23+00:00"
    }
  }, {
    "fullUrl": "urn:uuid:2138bc37-7371-46bb-bda6-e62bccb81cb9",
    "resource": {
      "resourceType": "Questionnaire",
      "id": "2138bc37-7371-46bb-bda6-e62bccb81cb9",
      "identifier": [ {
        "value": "1193164"
      } ],
      "version": "2020-10-30T09:45:23.026Z",
      "status": "active",
      "experimental": false,
      "date": "2020-10-30T09:45:23+00:00",
      "publisher": "User ID: 'HOLDENR' User name: 'Rachael Holden' User skill set: 'T3'",
      "lastReviewDate": "2020-10-30",
      "subjectType": [ "Patient" ]
    }
  }, {
    "fullUrl": "urn:uuid:0ebebbc5-f229-4828-9108-83728889757b",
    "resource": {
      "resourceType": "QuestionnaireResponse",
      "id": "0ebebbc5-f229-4828-9108-83728889757b",
      "identifier": {
        "value": "1193164"
      },
      "questionnaire": {
        "reference": "urn:uuid:56fc8fea-5d29-4381-bfb1-bf297cc3aea0"
      },
      "status": "completed",
      "subject": {
        "reference": "urn:uuid:97ef1f16-3bed-4505-97c1-0d99ed1870bf"
      },
      "context": {
        "reference": "urn:uuid:a118b7c9-b1d2-4dfd-9562-b9d316488945"
      },
      "authored": "2020-10-30T09:45:23+00:00",
      "item": [ {
        "linkId": "Tx221799",
        "text": "STRING:injury,illnessorlabourestablishedinEntryFlow",
        "answer": [ {
          "valueString": "\"present\""
        } ]
      } ]
    }
  }, {
    "fullUrl": "urn:uuid:56fc8fea-5d29-4381-bfb1-bf297cc3aea0",
    "resource": {
      "resourceType": "Questionnaire",
      "id": "56fc8fea-5d29-4381-bfb1-bf297cc3aea0",
      "identifier": [ {
        "value": "1193164"
      } ],
      "version": "2020-10-30T09:45:23.026Z",
      "status": "active",
      "experimental": false,
      "date": "2020-10-30T09:45:23+00:00",
      "publisher": "User ID: 'HOLDENR' User name: 'Rachael Holden' User skill set: 'T3'",
      "lastReviewDate": "2020-10-30",
      "subjectType": [ "Patient" ],
      "item": [ {
        "linkId": "1193164",
        "prefix": "0",
        "text": "STRING:injury,illnessorlabourestablishedinEntryFlow",
        "type": "choice",
        "required": true,
        "repeats": false,
        "option": [ {
          "valueString": "\"present\", Selected: true"
        } ]
      } ]
    }
  }, {
    "fullUrl": "urn:uuid:b7224589-f282-472f-aeab-2b73ed4e7681",
    "resource": {
      "resourceType": "QuestionnaireResponse",
      "id": "b7224589-f282-472f-aeab-2b73ed4e7681",
      "identifier": {
        "value": "1193164"
      },
      "questionnaire": {
        "reference": "urn:uuid:c395249e-2ecc-4a1e-8893-5263efe0304a"
      },
      "status": "completed",
      "subject": {
        "reference": "urn:uuid:97ef1f16-3bed-4505-97c1-0d99ed1870bf"
      },
      "context": {
        "reference": "urn:uuid:a118b7c9-b1d2-4dfd-9562-b9d316488945"
      },
      "authored": "2020-10-30T09:45:23+00:00",
      "item": [ {
        "linkId": "Tx224120",
        "text": "Have you been bleeding RED BLOOD very heavily IN THE LAST 2 HOURS?",
        "answer": [ {
          "valueString": "no"
        } ]
      } ]
    }
  }, {
    "fullUrl": "urn:uuid:c395249e-2ecc-4a1e-8893-5263efe0304a",
    "resource": {
      "resourceType": "Questionnaire",
      "id": "c395249e-2ecc-4a1e-8893-5263efe0304a",
      "identifier": [ {
        "value": "1193164"
      } ],
      "version": "2020-10-30T09:45:23.026Z",
      "status": "active",
      "experimental": false,
      "date": "2020-10-30T09:45:23+00:00",
      "publisher": "User ID: 'HOLDENR' User name: 'Rachael Holden' User skill set: 'T3'",
      "lastReviewDate": "2020-10-30",
      "subjectType": [ "Patient" ],
      "item": [ {
        "linkId": "1193164",
        "prefix": "10100",
        "text": "Have you been bleeding RED BLOOD very heavily IN THE LAST 2 HOURS?",
        "type": "choice",
        "required": true,
        "repeats": false,
        "option": [ {
          "valueString": "yes, Selected: false"
        }, {
          "valueString": "not sure, Selected: false"
        }, {
          "valueString": "no, Selected: true"
        } ]
      } ]
    }
  }, {
    "fullUrl": "urn:uuid:5b8d0d95-d4ce-4cf8-9b75-75133ee98a14",
    "resource": {
      "resourceType": "QuestionnaireResponse",
      "id": "5b8d0d95-d4ce-4cf8-9b75-75133ee98a14",
      "identifier": {
        "value": "1193164"
      },
      "questionnaire": {
        "reference": "urn:uuid:498955b6-ec3b-46f6-975d-24047f12000b"
      },
      "status": "completed",
      "subject": {
        "reference": "urn:uuid:97ef1f16-3bed-4505-97c1-0d99ed1870bf"
      },
      "context": {
        "reference": "urn:uuid:a118b7c9-b1d2-4dfd-9562-b9d316488945"
      },
      "authored": "2020-10-30T09:45:23+00:00",
      "item": [ {
        "linkId": "Tx221343",
        "text": "SocialConcernsExcluded",
        "answer": [ {
          "valueString": "==\"present\""
        } ]
      } ]
    }
  }, {
    "fullUrl": "urn:uuid:498955b6-ec3b-46f6-975d-24047f12000b",
    "resource": {
      "resourceType": "Questionnaire",
      "id": "498955b6-ec3b-46f6-975d-24047f12000b",
      "identifier": [ {
        "value": "1193164"
      } ],
      "version": "2020-10-30T09:45:23.026Z",
      "status": "active",
      "experimental": false,
      "date": "2020-10-30T09:45:23+00:00",
      "publisher": "User ID: 'HOLDENR' User name: 'Rachael Holden' User skill set: 'T3'",
      "lastReviewDate": "2020-10-30",
      "subjectType": [ "Patient" ],
      "item": [ {
        "linkId": "1193164",
        "prefix": "1100",
        "text": "SocialConcernsExcluded",
        "type": "choice",
        "required": true,
        "repeats": false,
        "option": [ {
          "valueString": "==\"present\", Selected: true"
        }, {
          "valueString": "*, Selected: false"
        } ]
      } ]
    }
  }, {
    "fullUrl": "urn:uuid:a1afc754-5161-4ef5-82c7-b8bcea625767",
    "resource": {
      "resourceType": "QuestionnaireResponse",
      "id": "a1afc754-5161-4ef5-82c7-b8bcea625767",
      "identifier": {
        "value": "1193164"
      },
      "questionnaire": {
        "reference": "urn:uuid:58520a0e-072b-4ae8-92c1-255f304335d1"
      },
      "status": "completed",
      "subject": {
        "reference": "urn:uuid:97ef1f16-3bed-4505-97c1-0d99ed1870bf"
      },
      "context": {
        "reference": "urn:uuid:a118b7c9-b1d2-4dfd-9562-b9d316488945"
      },
      "authored": "2020-10-30T09:45:23+00:00",
      "item": [ {
        "linkId": "Tx130011",
        "text": "What is the main problem?",
        "answer": [ {
          "valueString": "injury (specify)"
        } ]
      } ]
    }
  }, {
    "fullUrl": "urn:uuid:58520a0e-072b-4ae8-92c1-255f304335d1",
    "resource": {
      "resourceType": "Questionnaire",
      "id": "58520a0e-072b-4ae8-92c1-255f304335d1",
      "identifier": [ {
        "value": "1193164"
      } ],
      "version": "2020-10-30T09:45:23.026Z",
      "status": "active",
      "experimental": false,
      "date": "2020-10-30T09:45:23+00:00",
      "publisher": "User ID: 'HOLDENR' User name: 'Rachael Holden' User skill set: 'T3'",
      "lastReviewDate": "2020-10-30",
      "subjectType": [ "Patient" ],
      "item": [ {
        "linkId": "1193164",
        "prefix": "2300",
        "text": "What is the main problem?",
        "type": "choice",
        "required": true,
        "repeats": false,
        "option": [ {
          "valueString": "the individual has been told to follow a particular course of action (specify), Selected: false"
        }, {
          "valueString": "the individual is an identified frequent caller, Selected: false"
        }, {
          "valueString": "injury (specify), Selected: true"
        }, {
          "valueString": "illness or other health problem (specify), Selected: false"
        }, {
          "valueString": "child protection/vulnerable adult concern, Selected: false"
        }, {
          "valueString": "social or domestic emergency, Selected: false"
        }, {
          "valueString": "the environment potentially poses an immediate threat to life (specify), Selected: false"
        } ]
      } ]
    }
  }, {
    "fullUrl": "urn:uuid:986b64a9-5287-486c-9011-f861e0708c51",
    "resource": {
      "resourceType": "QuestionnaireResponse",
      "id": "986b64a9-5287-486c-9011-f861e0708c51",
      "identifier": {
        "value": "1193164"
      },
      "questionnaire": {
        "reference": "urn:uuid:1f77c7e1-9d33-4d16-a15a-799e93716c66"
      },
      "status": "completed",
      "subject": {
        "reference": "urn:uuid:97ef1f16-3bed-4505-97c1-0d99ed1870bf"
      },
      "context": {
        "reference": "urn:uuid:a118b7c9-b1d2-4dfd-9562-b9d316488945"
      },
      "authored": "2020-10-30T09:45:23+00:00",
      "item": [ {
        "linkId": "Tx224119",
        "text": "FROM WHAT YOU HAVE HEARD IS THIS A MINOR INJURY?",
        "answer": [ {
          "valueString": "yes - a minor bite or sting (specify)"
        } ]
      } ]
    }
  }, {
    "fullUrl": "urn:uuid:1f77c7e1-9d33-4d16-a15a-799e93716c66",
    "resource": {
      "resourceType": "Questionnaire",
      "id": "1f77c7e1-9d33-4d16-a15a-799e93716c66",
      "identifier": [ {
        "value": "1193164"
      } ],
      "version": "2020-10-30T09:45:23.026Z",
      "status": "active",
      "experimental": false,
      "date": "2020-10-30T09:45:23+00:00",
      "publisher": "User ID: 'HOLDENR' User name: 'Rachael Holden' User skill set: 'T3'",
      "lastReviewDate": "2020-10-30",
      "subjectType": [ "Patient" ],
      "item": [ {
        "linkId": "1193164",
        "prefix": "15000",
        "text": "FROM WHAT YOU HAVE HEARD IS THIS A MINOR INJURY?",
        "type": "choice",
        "required": true,
        "repeats": false,
        "option": [ {
          "valueString": "yes - a minor bite or sting (specify), Selected: true"
        }, {
          "valueString": "yes - a scratch, graze or minor wound, Selected: false"
        }, {
          "valueString": "yes - skin minor foreign body or skin glued, Selected: false"
        }, {
          "valueString": "yes - trauma blisters, Selected: false"
        }, {
          "valueString": "yes - a single finger or toe injury, Selected: false"
        }, {
          "valueString": "not sure, Selected: false"
        }, {
          "valueString": "no, Selected: false"
        } ]
      } ]
    }
  }, {
    "fullUrl": "urn:uuid:ad5e2aed-26fd-491c-8fc5-3b90580cd2f9",
    "resource": {
      "resourceType": "QuestionnaireResponse",
      "id": "ad5e2aed-26fd-491c-8fc5-3b90580cd2f9",
      "identifier": {
        "value": "1193164"
      },
      "questionnaire": {
        "reference": "urn:uuid:e9eeb265-840a-48c3-8537-92481565a5f4"
      },
      "status": "completed",
      "subject": {
        "reference": "urn:uuid:97ef1f16-3bed-4505-97c1-0d99ed1870bf"
      },
      "context": {
        "reference": "urn:uuid:a118b7c9-b1d2-4dfd-9562-b9d316488945"
      },
      "authored": "2020-10-30T09:45:23+00:00",
      "item": [ {
        "linkId": "Tx225125",
        "text": "SYSTEM_INJURYMODULE",
        "answer": [ {
          "valueString": "==\"injurymodule\""
        } ]
      } ]
    }
  }, {
    "fullUrl": "urn:uuid:e9eeb265-840a-48c3-8537-92481565a5f4",
    "resource": {
      "resourceType": "Questionnaire",
      "id": "e9eeb265-840a-48c3-8537-92481565a5f4",
      "identifier": [ {
        "value": "1193164"
      } ],
      "version": "2020-10-30T09:45:23.026Z",
      "status": "active",
      "experimental": false,
      "date": "2020-10-30T09:45:23+00:00",
      "publisher": "User ID: 'HOLDENR' User name: 'Rachael Holden' User skill set: 'T3'",
      "lastReviewDate": "2020-10-30",
      "subjectType": [ "Patient" ],
      "item": [ {
        "linkId": "1193164",
        "prefix": "23700",
        "text": "SYSTEM_INJURYMODULE",
        "type": "choice",
        "required": true,
        "repeats": false,
        "option": [ {
          "valueString": "==\"injurymodule\", Selected: true"
        }, {
          "valueString": "*, Selected: false"
        } ]
      } ]
    }
  }, {
    "fullUrl": "urn:uuid:00f82451-6533-4254-9912-3165d6d3d989",
    "resource": {
      "resourceType": "QuestionnaireResponse",
      "id": "00f82451-6533-4254-9912-3165d6d3d989",
      "identifier": {
        "value": "1193164"
      },
      "questionnaire": {
        "reference": "urn:uuid:9c3089f6-aa7c-4552-867e-13df4a97907e"
      },
      "status": "completed",
      "subject": {
        "reference": "urn:uuid:97ef1f16-3bed-4505-97c1-0d99ed1870bf"
      },
      "context": {
        "reference": "urn:uuid:a118b7c9-b1d2-4dfd-9562-b9d316488945"
      },
      "authored": "2020-10-30T09:45:23+00:00"
    }
  }, {
    "fullUrl": "urn:uuid:9c3089f6-aa7c-4552-867e-13df4a97907e",
    "resource": {
      "resourceType": "Questionnaire",
      "id": "9c3089f6-aa7c-4552-867e-13df4a97907e",
      "identifier": [ {
        "value": "1193164"
      } ],
      "version": "2020-10-30T09:45:23.026Z",
      "status": "active",
      "experimental": false,
      "date": "2020-10-30T09:45:23+00:00",
      "publisher": "User ID: 'HOLDENR' User name: 'Rachael Holden' User skill set: 'T3'",
      "lastReviewDate": "2020-10-30",
      "subjectType": [ "Patient" ]
    }
  }, {
    "fullUrl": "urn:uuid:0d47e9c3-c528-483b-b00b-fe36860c46cf",
    "resource": {
      "resourceType": "QuestionnaireResponse",
      "id": "0d47e9c3-c528-483b-b00b-fe36860c46cf",
      "identifier": {
        "value": "1193164"
      },
      "questionnaire": {
        "reference": "urn:uuid:bb4b1b71-356f-4ad7-a658-d30738183c1e"
      },
      "status": "completed",
      "subject": {
        "reference": "urn:uuid:97ef1f16-3bed-4505-97c1-0d99ed1870bf"
      },
      "context": {
        "reference": "urn:uuid:a118b7c9-b1d2-4dfd-9562-b9d316488945"
      },
      "authored": "2020-10-30T09:45:23+00:00",
      "item": [ {
        "linkId": "Tx3529",
        "text": "WHAT WAS THE CAUSE?",
        "answer": [ {
          "valueString": "an insect or spider (specify if known)"
        } ]
      } ]
    }
  }, {
    "fullUrl": "urn:uuid:bb4b1b71-356f-4ad7-a658-d30738183c1e",
    "resource": {
      "resourceType": "Questionnaire",
      "id": "bb4b1b71-356f-4ad7-a658-d30738183c1e",
      "identifier": [ {
        "value": "1193164"
      } ],
      "version": "2020-10-30T09:45:23.026Z",
      "status": "active",
      "experimental": false,
      "date": "2020-10-30T09:45:23+00:00",
      "publisher": "User ID: 'HOLDENR' User name: 'Rachael Holden' User skill set: 'T3'",
      "lastReviewDate": "2020-10-30",
      "subjectType": [ "Patient" ],
      "item": [ {
        "linkId": "1193164",
        "prefix": "0",
        "text": "WHAT WAS THE CAUSE?",
        "type": "choice",
        "required": true,
        "repeats": false,
        "option": [ {
          "valueString": "a person, Selected: false"
        }, {
          "valueString": "an animal (specify if known), Selected: false"
        }, {
          "valueString": "a snake (specify if known), Selected: false"
        }, {
          "valueString": "an insect or spider (specify if known), Selected: true"
        }, {
          "valueString": "stung by a water creature (specify if known), Selected: false"
        }, {
          "valueString": "bitten by a water creature (specify if known), Selected: false"
        }, {
          "valueString": "not sure, Selected: false"
        } ]
      } ]
    }
  }, {
    "fullUrl": "urn:uuid:1017eb89-bcd2-411e-b2a7-177554b4ad22",
    "resource": {
      "resourceType": "QuestionnaireResponse",
      "id": "1017eb89-bcd2-411e-b2a7-177554b4ad22",
      "identifier": {
        "value": "1193164"
      },
      "questionnaire": {
        "reference": "urn:uuid:7b14d116-b792-42c9-b016-ea39acd11624"
      },
      "status": "completed",
      "subject": {
        "reference": "urn:uuid:97ef1f16-3bed-4505-97c1-0d99ed1870bf"
      },
      "context": {
        "reference": "urn:uuid:a118b7c9-b1d2-4dfd-9562-b9d316488945"
      },
      "authored": "2020-10-30T09:45:23+00:00"
    }
  }, {
    "fullUrl": "urn:uuid:7b14d116-b792-42c9-b016-ea39acd11624",
    "resource": {
      "resourceType": "Questionnaire",
      "id": "7b14d116-b792-42c9-b016-ea39acd11624",
      "identifier": [ {
        "value": "1193164"
      } ],
      "version": "2020-10-30T09:45:23.026Z",
      "status": "active",
      "experimental": false,
      "date": "2020-10-30T09:45:23+00:00",
      "publisher": "User ID: 'HOLDENR' User name: 'Rachael Holden' User skill set: 'T3'",
      "lastReviewDate": "2020-10-30",
      "subjectType": [ "Patient" ]
    }
  }, {
    "fullUrl": "urn:uuid:e11f679f-f5cb-4a6b-a632-27d5ca8ec798",
    "resource": {
      "resourceType": "QuestionnaireResponse",
      "id": "e11f679f-f5cb-4a6b-a632-27d5ca8ec798",
      "identifier": {
        "value": "1193164"
      },
      "questionnaire": {
        "reference": "urn:uuid:88820e2a-42b6-41d9-be27-9d05fa900b25"
      },
      "status": "completed",
      "subject": {
        "reference": "urn:uuid:97ef1f16-3bed-4505-97c1-0d99ed1870bf"
      },
      "context": {
        "reference": "urn:uuid:a118b7c9-b1d2-4dfd-9562-b9d316488945"
      },
      "authored": "2020-10-30T09:45:23+00:00",
      "item": [ {
        "linkId": "Tx220302",
        "text": "Did it happen WITHIN THE LAST 6 HOURS?",
        "answer": [ {
          "valueString": "no"
        } ]
      } ]
    }
  }, {
    "fullUrl": "urn:uuid:88820e2a-42b6-41d9-be27-9d05fa900b25",
    "resource": {
      "resourceType": "Questionnaire",
      "id": "88820e2a-42b6-41d9-be27-9d05fa900b25",
      "identifier": [ {
        "value": "1193164"
      } ],
      "version": "2020-10-30T09:45:23.026Z",
      "status": "active",
      "experimental": false,
      "date": "2020-10-30T09:45:23+00:00",
      "publisher": "User ID: 'HOLDENR' User name: 'Rachael Holden' User skill set: 'T3'",
      "lastReviewDate": "2020-10-30",
      "subjectType": [ "Patient" ],
      "item": [ {
        "linkId": "1193164",
        "prefix": "0",
        "text": "Did it happen WITHIN THE LAST 6 HOURS?",
        "type": "choice",
        "required": true,
        "repeats": false,
        "option": [ {
          "valueString": "yes, Selected: false"
        }, {
          "valueString": "not sure, Selected: false"
        }, {
          "valueString": "no, Selected: true"
        } ]
      } ]
    }
  }, {
    "fullUrl": "urn:uuid:14c6df70-da37-403b-a62d-db6e9d665676",
    "resource": {
      "resourceType": "QuestionnaireResponse",
      "id": "14c6df70-da37-403b-a62d-db6e9d665676",
      "identifier": {
        "value": "1193164"
      },
      "questionnaire": {
        "reference": "urn:uuid:8f56a84a-a3a0-466e-9683-4fe1143bee7e"
      },
      "status": "completed",
      "subject": {
        "reference": "urn:uuid:97ef1f16-3bed-4505-97c1-0d99ed1870bf"
      },
      "context": {
        "reference": "urn:uuid:a118b7c9-b1d2-4dfd-9562-b9d316488945"
      },
      "authored": "2020-10-30T09:45:23+00:00",
      "item": [ {
        "linkId": "Tx3543",
        "text": "Have you been stung 10 or more times?",
        "answer": [ {
          "valueString": "no"
        } ]
      } ]
    }
  }, {
    "fullUrl": "urn:uuid:8f56a84a-a3a0-466e-9683-4fe1143bee7e",
    "resource": {
      "resourceType": "Questionnaire",
      "id": "8f56a84a-a3a0-466e-9683-4fe1143bee7e",
      "identifier": [ {
        "value": "1193164"
      } ],
      "version": "2020-10-30T09:45:23.026Z",
      "status": "active",
      "experimental": false,
      "date": "2020-10-30T09:45:23+00:00",
      "publisher": "User ID: 'HOLDENR' User name: 'Rachael Holden' User skill set: 'T3'",
      "lastReviewDate": "2020-10-30",
      "subjectType": [ "Patient" ],
      "item": [ {
        "linkId": "1193164",
        "prefix": "2900",
        "text": "Have you been stung 10 or more times?",
        "type": "choice",
        "required": true,
        "repeats": false,
        "option": [ {
          "valueString": "yes, Selected: false"
        }, {
          "valueString": "not sure, Selected: false"
        }, {
          "valueString": "no, Selected: true"
        } ]
      } ]
    }
  }, {
    "fullUrl": "urn:uuid:567af33d-9f06-4e0d-8cc0-951336007b0e",
    "resource": {
      "resourceType": "QuestionnaireResponse",
      "id": "567af33d-9f06-4e0d-8cc0-951336007b0e",
      "identifier": {
        "value": "1193164"
      },
      "questionnaire": {
        "reference": "urn:uuid:2757a8d7-fe97-49ce-b970-c48b214b1b4f"
      },
      "status": "completed",
      "subject": {
        "reference": "urn:uuid:97ef1f16-3bed-4505-97c1-0d99ed1870bf"
      },
      "context": {
        "reference": "urn:uuid:a118b7c9-b1d2-4dfd-9562-b9d316488945"
      },
      "authored": "2020-10-30T09:45:23+00:00",
      "item": [ {
        "linkId": "Tx3557",
        "text": "Have you got nausea or vomiting now?",
        "answer": [ {
          "valueString": "no"
        } ]
      } ]
    }
  }, {
    "fullUrl": "urn:uuid:2757a8d7-fe97-49ce-b970-c48b214b1b4f",
    "resource": {
      "resourceType": "Questionnaire",
      "id": "2757a8d7-fe97-49ce-b970-c48b214b1b4f",
      "identifier": [ {
        "value": "1193164"
      } ],
      "version": "2020-10-30T09:45:23.026Z",
      "status": "active",
      "experimental": false,
      "date": "2020-10-30T09:45:23+00:00",
      "publisher": "User ID: 'HOLDENR' User name: 'Rachael Holden' User skill set: 'T3'",
      "lastReviewDate": "2020-10-30",
      "subjectType": [ "Patient" ],
      "item": [ {
        "linkId": "1193164",
        "prefix": "3000",
        "text": "Have you got nausea or vomiting now?",
        "type": "choice",
        "required": true,
        "repeats": false,
        "option": [ {
          "valueString": "yes, Selected: false"
        }, {
          "valueString": "not sure, Selected: false"
        }, {
          "valueString": "no, Selected: true"
        } ]
      } ]
    }
  }, {
    "fullUrl": "urn:uuid:93fdcd7e-0d0c-48e8-b8b6-00176a455b7b",
    "resource": {
      "resourceType": "QuestionnaireResponse",
      "id": "93fdcd7e-0d0c-48e8-b8b6-00176a455b7b",
      "identifier": {
        "value": "1193164"
      },
      "questionnaire": {
        "reference": "urn:uuid:975b559d-7a99-426c-b5d3-ea69a96b2d7e"
      },
      "status": "completed",
      "subject": {
        "reference": "urn:uuid:97ef1f16-3bed-4505-97c1-0d99ed1870bf"
      },
      "context": {
        "reference": "urn:uuid:a118b7c9-b1d2-4dfd-9562-b9d316488945"
      },
      "authored": "2020-10-30T09:45:23+00:00",
      "item": [ {
        "linkId": "Tx3561",
        "text": "Have you been bitten or stung in any of these areas?",
        "answer": [ {
          "valueString": "no"
        } ]
      } ]
    }
  }, {
    "fullUrl": "urn:uuid:975b559d-7a99-426c-b5d3-ea69a96b2d7e",
    "resource": {
      "resourceType": "Questionnaire",
      "id": "975b559d-7a99-426c-b5d3-ea69a96b2d7e",
      "identifier": [ {
        "value": "1193164"
      } ],
      "version": "2020-10-30T09:45:23.026Z",
      "status": "active",
      "experimental": false,
      "date": "2020-10-30T09:45:23+00:00",
      "publisher": "User ID: 'HOLDENR' User name: 'Rachael Holden' User skill set: 'T3'",
      "lastReviewDate": "2020-10-30",
      "subjectType": [ "Patient" ],
      "item": [ {
        "linkId": "1193164",
        "prefix": "3900",
        "text": "Have you been bitten or stung in any of these areas?",
        "type": "choice",
        "required": true,
        "repeats": false,
        "option": [ {
          "valueString": "the eyeball, Selected: false"
        }, {
          "valueString": "inside the mouth or on the lips, Selected: false"
        }, {
          "valueString": "limb, Selected: false"
        }, {
          "valueString": "not sure, Selected: false"
        }, {
          "valueString": "no, Selected: true"
        } ]
      } ]
    }
  }, {
    "fullUrl": "urn:uuid:7254ba40-c359-4e52-aa30-0dede9a2a20d",
    "resource": {
      "resourceType": "QuestionnaireResponse",
      "id": "7254ba40-c359-4e52-aa30-0dede9a2a20d",
      "identifier": {
        "value": "1193164"
      },
      "questionnaire": {
        "reference": "urn:uuid:7c4c9a58-951e-4ff5-b62d-275b5a870f08"
      },
      "status": "completed",
      "subject": {
        "reference": "urn:uuid:97ef1f16-3bed-4505-97c1-0d99ed1870bf"
      },
      "context": {
        "reference": "urn:uuid:a118b7c9-b1d2-4dfd-9562-b9d316488945"
      },
      "authored": "2020-10-30T09:45:23+00:00",
      "item": [ {
        "linkId": "Tx3544",
        "text": "Is the insect or part of the insect still attached to the skin?",
        "answer": [ {
          "valueString": "no"
        } ]
      } ]
    }
  }, {
    "fullUrl": "urn:uuid:7c4c9a58-951e-4ff5-b62d-275b5a870f08",
    "resource": {
      "resourceType": "Questionnaire",
      "id": "7c4c9a58-951e-4ff5-b62d-275b5a870f08",
      "identifier": [ {
        "value": "1193164"
      } ],
      "version": "2020-10-30T09:45:23.026Z",
      "status": "active",
      "experimental": false,
      "date": "2020-10-30T09:45:23+00:00",
      "publisher": "User ID: 'HOLDENR' User name: 'Rachael Holden' User skill set: 'T3'",
      "lastReviewDate": "2020-10-30",
      "subjectType": [ "Patient" ],
      "item": [ {
        "linkId": "1193164",
        "prefix": "9400",
        "text": "Is the insect or part of the insect still attached to the skin?",
        "type": "choice",
        "required": true,
        "repeats": false,
        "option": [ {
          "valueString": "yes, Selected: false"
        }, {
          "valueString": "not sure, Selected: false"
        }, {
          "valueString": "no, Selected: true"
        } ]
      } ]
    }
  }, {
    "fullUrl": "urn:uuid:3b50eb69-cc21-4bad-865e-3f698170c4b2",
    "resource": {
      "resourceType": "QuestionnaireResponse",
      "id": "3b50eb69-cc21-4bad-865e-3f698170c4b2",
      "identifier": {
        "value": "1193164"
      },
      "questionnaire": {
        "reference": "urn:uuid:1ec4e364-97e3-423c-a779-f14ee2c782c0"
      },
      "status": "completed",
      "subject": {
        "reference": "urn:uuid:97ef1f16-3bed-4505-97c1-0d99ed1870bf"
      },
      "context": {
        "reference": "urn:uuid:a118b7c9-b1d2-4dfd-9562-b9d316488945"
      },
      "authored": "2020-10-30T09:45:23+00:00",
      "item": [ {
        "linkId": "Tx1449",
        "text": "Have you got very severe pain deep inside the affected area?",
        "answer": [ {
          "valueString": "yes"
        } ]
      } ]
    }
  }, {
    "fullUrl": "urn:uuid:1ec4e364-97e3-423c-a779-f14ee2c782c0",
    "resource": {
      "resourceType": "Questionnaire",
      "id": "1ec4e364-97e3-423c-a779-f14ee2c782c0",
      "identifier": [ {
        "value": "1193164"
      } ],
      "version": "2020-10-30T09:45:23.026Z",
      "status": "active",
      "experimental": false,
      "date": "2020-10-30T09:45:23+00:00",
      "publisher": "User ID: 'HOLDENR' User name: 'Rachael Holden' User skill set: 'T3'",
      "lastReviewDate": "2020-10-30",
      "subjectType": [ "Patient" ],
      "item": [ {
        "linkId": "1193164",
        "prefix": "19700",
        "text": "Have you got very severe pain deep inside the affected area?",
        "type": "choice",
        "required": true,
        "repeats": false,
        "option": [ {
          "valueString": "yes, Selected: true"
        }, {
          "valueString": "not sure, Selected: false"
        }, {
          "valueString": "no, Selected: false"
        } ]
      } ]
    }
  }, {
    "fullUrl": "urn:uuid:ca426dca-9835-4b86-8050-86fdffb44efa",
    "resource": {
      "resourceType": "QuestionnaireResponse",
      "id": "ca426dca-9835-4b86-8050-86fdffb44efa",
      "identifier": {
        "value": "1193164"
      },
      "questionnaire": {
        "reference": "urn:uuid:c6d8ffb0-1a10-4c23-b476-e2e973d7844d"
      },
      "status": "completed",
      "subject": {
        "reference": "urn:uuid:97ef1f16-3bed-4505-97c1-0d99ed1870bf"
      },
      "context": {
        "reference": "urn:uuid:a118b7c9-b1d2-4dfd-9562-b9d316488945"
      },
      "authored": "2020-10-30T09:45:23+00:00",
      "item": [ {
        "linkId": "Tx221449",
        "text": "STRING:SDPCFullPrimaryCareassessmentandprescribingcapability",
        "answer": [ {
          "valueString": "\"PC full Primary Care assessment and prescribing capability\""
        } ]
      } ]
    }
  }, {
    "fullUrl": "urn:uuid:c6d8ffb0-1a10-4c23-b476-e2e973d7844d",
    "resource": {
      "resourceType": "Questionnaire",
      "id": "c6d8ffb0-1a10-4c23-b476-e2e973d7844d",
      "identifier": [ {
        "value": "1193164"
      } ],
      "version": "2020-10-30T09:45:23.026Z",
      "status": "active",
      "experimental": false,
      "date": "2020-10-30T09:45:23+00:00",
      "publisher": "User ID: 'HOLDENR' User name: 'Rachael Holden' User skill set: 'T3'",
      "lastReviewDate": "2020-10-30",
      "subjectType": [ "Patient" ],
      "item": [ {
        "linkId": "1193164",
        "prefix": "19900",
        "text": "STRING:SDPCFullPrimaryCareassessmentandprescribingcapability",
        "type": "choice",
        "required": true,
        "repeats": false,
        "option": [ {
          "valueString": "\"PC full Primary Care assessment and prescribing capability\", Selected: true"
        } ]
      } ]
    }
  }, {
    "fullUrl": "urn:uuid:5e19d5f5-bb9f-424d-947f-429660f23708",
    "resource": {
      "resourceType": "QuestionnaireResponse",
      "id": "5e19d5f5-bb9f-424d-947f-429660f23708",
      "identifier": {
        "value": "1193164"
      },
      "questionnaire": {
        "reference": "urn:uuid:c14db33c-5f13-4d7f-993d-9b1d6108c77f"
      },
      "status": "completed",
      "subject": {
        "reference": "urn:uuid:97ef1f16-3bed-4505-97c1-0d99ed1870bf"
      },
      "context": {
        "reference": "urn:uuid:a118b7c9-b1d2-4dfd-9562-b9d316488945"
      },
      "authored": "2020-10-30T09:45:23+00:00"
    }
  }, {
    "fullUrl": "urn:uuid:c14db33c-5f13-4d7f-993d-9b1d6108c77f",
    "resource": {
      "resourceType": "Questionnaire",
      "id": "c14db33c-5f13-4d7f-993d-9b1d6108c77f",
      "identifier": [ {
        "value": "1193164"
      } ],
      "version": "2020-10-30T09:45:23.026Z",
      "status": "active",
      "experimental": false,
      "date": "2020-10-30T09:45:23+00:00",
      "publisher": "User ID: 'HOLDENR' User name: 'Rachael Holden' User skill set: 'T3'",
      "lastReviewDate": "2020-10-30",
      "subjectType": [ "Patient" ]
    }
  }, {
    "fullUrl": "urn:uuid:19bd85f8-331f-47fe-afbf-237fd1275511",
    "resource": {
      "resourceType": "QuestionnaireResponse",
      "id": "19bd85f8-331f-47fe-afbf-237fd1275511",
      "identifier": {
        "value": "1193164"
      },
      "questionnaire": {
        "reference": "urn:uuid:6e527926-242b-4756-9e45-a3eb35a4e1aa"
      },
      "status": "completed",
      "subject": {
        "reference": "urn:uuid:97ef1f16-3bed-4505-97c1-0d99ed1870bf"
      },
      "context": {
        "reference": "urn:uuid:a118b7c9-b1d2-4dfd-9562-b9d316488945"
      },
      "authored": "2020-10-30T09:45:23+00:00"
    }
  }, {
    "fullUrl": "urn:uuid:6e527926-242b-4756-9e45-a3eb35a4e1aa",
    "resource": {
      "resourceType": "Questionnaire",
      "id": "6e527926-242b-4756-9e45-a3eb35a4e1aa",
      "identifier": [ {
        "value": "1193164"
      } ],
      "version": "2020-10-30T09:45:23.026Z",
      "status": "active",
      "experimental": false,
      "date": "2020-10-30T09:45:23+00:00",
      "publisher": "User ID: 'HOLDENR' User name: 'Rachael Holden' User skill set: 'T3'",
      "lastReviewDate": "2020-10-30",
      "subjectType": [ "Patient" ]
    }
  }, {
    "fullUrl": "urn:uuid:bee5af60-d015-4124-92ed-d3b87e87f24d",
    "resource": {
      "resourceType": "QuestionnaireResponse",
      "id": "bee5af60-d015-4124-92ed-d3b87e87f24d",
      "identifier": {
        "value": "1193164"
      },
      "questionnaire": {
        "reference": "urn:uuid:3e443569-7ab9-4c1c-a172-21b681931a4f"
      },
      "status": "completed",
      "subject": {
        "reference": "urn:uuid:97ef1f16-3bed-4505-97c1-0d99ed1870bf"
      },
      "context": {
        "reference": "urn:uuid:a118b7c9-b1d2-4dfd-9562-b9d316488945"
      },
      "authored": "2020-10-30T09:45:23+00:00"
    }
  }, {
    "fullUrl": "urn:uuid:3e443569-7ab9-4c1c-a172-21b681931a4f",
    "resource": {
      "resourceType": "Questionnaire",
      "id": "3e443569-7ab9-4c1c-a172-21b681931a4f",
      "identifier": [ {
        "value": "1193164"
      } ],
      "version": "2020-10-30T09:45:23.026Z",
      "status": "active",
      "experimental": false,
      "date": "2020-10-30T09:45:23+00:00",
      "publisher": "User ID: 'HOLDENR' User name: 'Rachael Holden' User skill set: 'T3'",
      "lastReviewDate": "2020-10-30",
      "subjectType": [ "Patient" ]
    }
  }, {
    "fullUrl": "urn:uuid:6b0f573d-fd31-4975-acfc-c26f2ee6c0e7",
    "resource": {
      "resourceType": "Observation",
      "id": "6b0f573d-fd31-4975-acfc-c26f2ee6c0e7",
      "status": "final",
      "code": {
        "coding": [ {
          "system": "http://snomed.info/sct",
          "code": "33962009",
          "display": "Presenting complaint"
        } ]
      },
      "subject": {
        "reference": "urn:uuid:97ef1f16-3bed-4505-97c1-0d99ed1870bf"
      },
      "context": {
        "reference": "urn:uuid:a118b7c9-b1d2-4dfd-9562-b9d316488945"
      }
    }
  }, {
    "fullUrl": "urn:uuid:bcf6cc4c-cf38-42c0-9d47-3542817e7d77",
    "resource": {
      "resourceType": "PractitionerRole",
      "id": "bcf6cc4c-cf38-42c0-9d47-3542817e7d77",
      "practitioner": {
        "reference": "urn:uuid:bb7c9227-d59b-469e-a98f-41636c815ad2"
      },
      "organization": {
        "reference": "urn:uuid:d2ff0d56-d4b5-4b8f-afa2-480b007ead1d"
      },
      "code": [ {
        "coding": [ {
          "system": "2.16.840.1.113883.2.1.3.2.4.17.339",
          "code": "DOCTOR",
          "display": "Doctor"
        } ]
      } ]
    }
  }, {
    "fullUrl": "urn:uuid:d2ff0d56-d4b5-4b8f-afa2-480b007ead1d",
    "resource": {
      "resourceType": "Organization",
      "id": "d2ff0d56-d4b5-4b8f-afa2-480b007ead1d",
      "identifier": [ {
        "value": "RYA06"
      } ],
      "name": "WMAS - Navigation Point Call Centre (West Midlands Single Instance)"
    }
  }, {
    "fullUrl": "urn:uuid:2a47bb8d-4dfe-4a49-bb17-5a8d06eb5562",
    "resource": {
      "resourceType": "PractitionerRole",
      "id": "2a47bb8d-4dfe-4a49-bb17-5a8d06eb5562",
      "practitioner": {
        "reference": "urn:uuid:2d6b3bda-b155-4fcd-ad92-96eb9e43e94d"
      },
      "organization": {
        "reference": "urn:uuid:30b25d9a-f6bf-4f6f-bf1e-7041b0a4be4c"
      },
      "code": [ {
        "coding": [ {
          "system": "2.16.840.1.113883.2.1.3.2.4.17.196",
          "code": "R0010",
          "display": "Medical Director"
        } ]
      } ]
    }
  }, {
    "fullUrl": "urn:uuid:30b25d9a-f6bf-4f6f-bf1e-7041b0a4be4c",
    "resource": {
      "resourceType": "Organization",
      "id": "30b25d9a-f6bf-4f6f-bf1e-7041b0a4be4c",
      "identifier": [ {
        "value": "RYA06"
      } ],
      "name": "West Midlands Single Instance"
    }
  }, {
    "fullUrl": "urn:uuid:7a0672c6-a445-4452-ad6b-aee8d42349eb",
    "resource": {
      "resourceType": "RelatedPerson",
      "id": "7a0672c6-a445-4452-ad6b-aee8d42349eb",
      "patient": {
        "reference": "urn:uuid:97ef1f16-3bed-4505-97c1-0d99ed1870bf"
      },
      "relationship": {
        "coding": [ {
          "system": "http://hl7.org/fhir/v2/0131",
          "code": "C",
          "display": "Emergency Contact"
        } ]
      },
      "telecom": [ {
        "system": "phone",
        "value": "tel:01204428013"
      } ]
    }
  }, {
    "fullUrl": "urn:uuid:b64a65f7-2c8a-4d73-af73-927db5320edb",
    "resource": {
      "resourceType": "Device",
      "id": "b64a65f7-2c8a-4d73-af73-927db5320edb",
      "model": "111 Adaptor",
      "version": "1.0.1"
    }
  }, {
    "fullUrl": "urn:uuid:fc847d89-8d1a-4f7c-a149-bc7034d41514",
    "resource": {
      "resourceType": "List",
      "id": "fc847d89-8d1a-4f7c-a149-bc7034d41514",
      "status": "current",
      "mode": "working",
      "title": "111 Report List",
      "code": {
        "coding": [ {
          "system": "http://snomed.info/sct",
          "code": "225390008",
          "display": "Triage"
        } ]
      },
      "subject": {
        "reference": "urn:uuid:97ef1f16-3bed-4505-97c1-0d99ed1870bf"
      },
      "encounter": {
        "reference": "urn:uuid:a118b7c9-b1d2-4dfd-9562-b9d316488945"
      },
      "date": "2025-10-30T09:45:22+00:00",
      "source": {
        "reference": "urn:uuid:b64a65f7-2c8a-4d73-af73-927db5320edb"
      },
      "orderedBy": {
        "coding": [ {
          "system": "http://hl7.org/fhir/list-order",
          "code": "event-date",
          "display": "Sorted by Event Date"
        } ]
      },
      "entry": [ {
        "item": {
          "reference": "urn:uuid:7a0672c6-a445-4452-ad6b-aee8d42349eb"
        }
      }, {
        "item": {
          "reference": "urn:uuid:521acb71-9073-429b-be50-ec3cf2767fa0"
        }
      }, {
        "item": {
          "reference": "urn:uuid:6b0f573d-fd31-4975-acfc-c26f2ee6c0e7"
        }
      }, {
        "item": {
          "reference": "urn:uuid:8a132876-15ef-44ea-be46-1c4f46a9fffa"
        }
      }, {
        "item": {
          "reference": "urn:uuid:d4e11601-ac93-4803-a0dc-c40c81a5b5a0"
        }
      }, {
        "item": {
          "reference": "urn:uuid:667a0dd4-48ea-4cdb-871f-951f94f345b1"
        }
      }, {
        "item": {
          "reference": "urn:uuid:bb7c9227-d59b-469e-a98f-41636c815ad2"
        }
      }, {
        "item": {
          "reference": "urn:uuid:30b25d9a-f6bf-4f6f-bf1e-7041b0a4be4c"
        }
      }, {
        "item": {
          "reference": "urn:uuid:2d6b3bda-b155-4fcd-ad92-96eb9e43e94d"
        }
      }, {
        "item": {
          "reference": "urn:uuid:8ae36824-e8c9-463c-a1e3-7a9d764423a8"
        }
      }, {
        "item": {
          "reference": "urn:uuid:d2ff0d56-d4b5-4b8f-afa2-480b007ead1d"
        }
      }, {
        "item": {
          "reference": "urn:uuid:023ab277-4035-4023-ab24-96a5bb0bfd39"
        }
      }, {
        "item": {
          "reference": "urn:uuid:19bd85f8-331f-47fe-afbf-237fd1275511"
        }
      }, {
        "item": {
          "reference": "urn:uuid:00f82451-6533-4254-9912-3165d6d3d989"
        }
      }, {
        "item": {
          "reference": "urn:uuid:c14db33c-5f13-4d7f-993d-9b1d6108c77f"
        }
      }, {
        "item": {
          "reference": "urn:uuid:6bb86bda-7028-4e5e-a288-bb7a599b71ee"
        }
      }, {
        "item": {
          "reference": "urn:uuid:1ec4e364-97e3-423c-a779-f14ee2c782c0"
        }
      }, {
        "item": {
          "reference": "urn:uuid:6e527926-242b-4756-9e45-a3eb35a4e1aa"
        }
      }, {
        "item": {
          "reference": "urn:uuid:9c3089f6-aa7c-4552-867e-13df4a97907e"
        }
      }, {
        "item": {
          "reference": "urn:uuid:b7224589-f282-472f-aeab-2b73ed4e7681"
        }
      }, {
        "item": {
          "reference": "urn:uuid:5b8d0d95-d4ce-4cf8-9b75-75133ee98a14"
        }
      }, {
        "item": {
          "reference": "urn:uuid:88820e2a-42b6-41d9-be27-9d05fa900b25"
        }
      }, {
        "item": {
          "reference": "urn:uuid:e9eeb265-840a-48c3-8537-92481565a5f4"
        }
      }, {
        "item": {
          "reference": "urn:uuid:567af33d-9f06-4e0d-8cc0-951336007b0e"
        }
      }, {
        "item": {
          "reference": "urn:uuid:2138bc37-7371-46bb-bda6-e62bccb81cb9"
        }
      }, {
        "item": {
          "reference": "urn:uuid:54f9160a-7221-4465-b420-6845ac81b90e"
        }
      }, {
        "item": {
          "reference": "urn:uuid:1017eb89-bcd2-411e-b2a7-177554b4ad22"
        }
      }, {
        "item": {
          "reference": "urn:uuid:1f77c7e1-9d33-4d16-a15a-799e93716c66"
        }
      }, {
        "item": {
          "reference": "urn:uuid:bee5af60-d015-4124-92ed-d3b87e87f24d"
        }
      }, {
        "item": {
          "reference": "urn:uuid:db8035b8-64c7-445b-aaed-6944e2c75268"
        }
      }, {
        "item": {
          "reference": "urn:uuid:986b64a9-5287-486c-9011-f861e0708c51"
        }
      }, {
        "item": {
          "reference": "urn:uuid:7b14d116-b792-42c9-b016-ea39acd11624"
        }
      }, {
        "item": {
          "reference": "urn:uuid:3e443569-7ab9-4c1c-a172-21b681931a4f"
        }
      }, {
        "item": {
          "reference": "urn:uuid:14c6df70-da37-403b-a62d-db6e9d665676"
        }
      }, {
        "item": {
          "reference": "urn:uuid:0ebebbc5-f229-4828-9108-83728889757b"
        }
      }, {
        "item": {
          "reference": "urn:uuid:3b50eb69-cc21-4bad-865e-3f698170c4b2"
        }
      }, {
        "item": {
          "reference": "urn:uuid:56fc8fea-5d29-4381-bfb1-bf297cc3aea0"
        }
      }, {
        "item": {
          "reference": "urn:uuid:ca426dca-9835-4b86-8050-86fdffb44efa"
        }
      }, {
        "item": {
          "reference": "urn:uuid:0d47e9c3-c528-483b-b00b-fe36860c46cf"
        }
      }, {
        "item": {
          "reference": "urn:uuid:58520a0e-072b-4ae8-92c1-255f304335d1"
        }
      }, {
        "item": {
          "reference": "urn:uuid:2757a8d7-fe97-49ce-b970-c48b214b1b4f"
        }
      }, {
        "item": {
          "reference": "urn:uuid:7254ba40-c359-4e52-aa30-0dede9a2a20d"
        }
      }, {
        "item": {
          "reference": "urn:uuid:a1afc754-5161-4ef5-82c7-b8bcea625767"
        }
      }, {
        "item": {
          "reference": "urn:uuid:93fdcd7e-0d0c-48e8-b8b6-00176a455b7b"
        }
      }, {
        "item": {
          "reference": "urn:uuid:e11f679f-f5cb-4a6b-a632-27d5ca8ec798"
        }
      }, {
        "item": {
          "reference": "urn:uuid:498955b6-ec3b-46f6-975d-24047f12000b"
        }
      }, {
        "item": {
          "reference": "urn:uuid:f735f48a-bdf2-49af-9218-b619a153e32c"
        }
      }, {
        "item": {
          "reference": "urn:uuid:ad5e2aed-26fd-491c-8fc5-3b90580cd2f9"
        }
      }, {
        "item": {
          "reference": "urn:uuid:bb4b1b71-356f-4ad7-a658-d30738183c1e"
        }
      }, {
        "item": {
          "reference": "urn:uuid:c395249e-2ecc-4a1e-8893-5263efe0304a"
        }
      }, {
        "item": {
          "reference": "urn:uuid:975b559d-7a99-426c-b5d3-ea69a96b2d7e"
        }
      }, {
        "item": {
          "reference": "urn:uuid:c6d8ffb0-1a10-4c23-b476-e2e973d7844d"
        }
      }, {
        "item": {
          "reference": "urn:uuid:8f56a84a-a3a0-466e-9683-4fe1143bee7e"
        }
      }, {
        "item": {
          "reference": "urn:uuid:7c4c9a58-951e-4ff5-b62d-275b5a870f08"
        }
      }, {
        "item": {
          "reference": "urn:uuid:5e19d5f5-bb9f-424d-947f-429660f23708"
        }
      }, {
        "item": {
          "reference": "urn:uuid:e29d4490-4f65-419e-9b3a-0ab9f511896c"
        }
      } ]
    }
  } ]
}