{
  "resourceType": "Bundle",
  "identifier": {
    "type": {
      "text": "ClinicalDocument VersionNumber"
    },
    "value": "1"
  },
  "type": "message",
  "entry": [ {
    "fullUrl": "urn:uuid:2B77B3F5-3016-4A6D-821F-152CE420E58D",
    "resource": {
      "resourceType": "MessageHeader",
      "id": "2B77B3F5-3016-4A6D-821F-152CE420E58D",
      "event": {
        "system": "https://fhir.nhs.uk/STU3/CodeSystem/EventType-1",
        "code": "referral-1",
        "display": "Referral"
      },
      "destination": [ {
        "endpoint": "urn:nhs-uk:addressing:ods:EM396:DOSServiceID:26428"
      } ],
      "timestamp": "2025-10-30T09:45:22.000+00:00",
      "source": {
        "name": "NHS 111 Adaptor",
        "endpoint": "http://localhost:8080/report"
      },
      "reason": {
        "coding": [ {
          "system": "urn:nhs-itk:ns:201005:interaction",
          "code": "urn:nhs-itk:interaction:primaryNHS111RepeatCallerDocumentSet-v1-0"
        } ]
      }
    }
  }, {
    "fullUrl": "urn:uuid:a88efa7c-fb11-4af2-877e-30a2001c3ed4",
    "resource": {
      "resourceType": "Encounter",
      "id": "a88efa7c-fb11-4af2-877e-30a2001c3ed4",
      "identifier": [ {
        "system": "2.16.840.1.113883.2.1.3.2.4.18.34",
        "value": "D47E4F49-D4B8-4913-85B9-64AF5523B268"
      }, {
        "system": "2.16.840.1.113883.2.1.3.2.4.18.35",
        "value": "1193164"
      } ],
      "status": "finished",
      "type": [ {
        "text": "111 Encounter Referral"
      } ],
      "subject": {
        "reference": "urn:uuid:beb2ba43-022e-4b75-a9a0-835a4bdbda95"
      },
      "participant": [ {
        "type": [ {
          "coding": [ {
            "system": "http://hl7.org/fhir/ValueSet/encounter-participant-type",
            "code": "PPRF",
            "display": "Author"
          } ]
        } ],
        "individual": {
          "reference": "urn:uuid:c407ec0f-90ce-48bc-b151-f8b36079e3a4"
        }
      }, {
        "type": [ {
          "coding": [ {
            "system": "http://hl7.org/fhir/ValueSet/encounter-participant-type",
            "code": "ATND",
            "display": "Responsible Party"
          } ]
        } ],
        "individual": {
          "reference": "urn:uuid:6151b56c-ac8b-4f2e-b6e8-8c3c1c831468"
        }
      } ],
      "period": {
        "start": "2025-10-30T09:45:22+00:00"
      },
      "location": [ {
        "location": {
          "reference": "urn:uuid:ee66e56c-a0c6-4d48-8f0f-377fa6b14d37"
        },
        "status": "active"
      }, {
        "location": {
          "reference": "urn:uuid:f2566148-1bdb-4825-b056-7121fe6053cf"
        },
        "status": "completed"
      } ],
      "serviceProvider": {
        "reference": "urn:uuid:2cdc0903-e00d-4a20-ad69-80eb88d19f3f"
      }
    }
  }, {
    "fullUrl": "urn:uuid:2cdc0903-e00d-4a20-ad69-80eb88d19f3f",
    "resource": {
      "resourceType": "Organization",
      "id": "2cdc0903-e00d-4a20-ad69-80eb88d19f3f",
      "active": true,
      "type": [ {
        "text": "CST"
      } ],
      "name": "West Midlands Single Instance"
    }
  }, {
    "fullUrl": "urn:uuid:c407ec0f-90ce-48bc-b151-f8b36079e3a4",
    "resource": {
      "resourceType": "Practitioner",
      "id": "c407ec0f-90ce-48bc-b151-f8b36079e3a4",
      "active": true,
      "name": [ {
        "use": "official"
      } ]
    }
  }, {
    "fullUrl": "urn:uuid:6151b56c-ac8b-4f2e-b6e8-8c3c1c831468",
    "resource": {
      "resourceType": "Practitioner",
      "id": "6151b56c-ac8b-4f2e-b6e8-8c3c1c831468",
      "active": true,
      "name": [ {
        "use": "official",
        "family": "Walker",
        "given": [ "Alison" ]
      } ]
    }
  }, {
    "fullUrl": "urn:uuid:ee66e56c-a0c6-4d48-8f0f-377fa6b14d37",
    "resource": {
      "resourceType": "Location",
      "id": "ee66e56c-a0c6-4d48-8f0f-377fa6b14d37",
      "managingOrganization": {
        "reference": "urn:uuid:e4528d36-4449-4fcd-a516-e7d406240e9b"
      }
    }
  }, {
    "fullUrl": "urn:uuid:e4528d36-4449-4fcd-a516-e7d406240e9b",
    "resource": {
      "resourceType": "Organization",
      "id": "e4528d36-4449-4fcd-a516-e7d406240e9b",
      "identifier": [ {
        "value": "F81718"
      } ],
      "type": [ {
        "text": "GP Practice"
      } ],
      "name": "LYDIA HOUSE PRACTICE"
    }
  }, {
    "fullUrl": "urn:uuid:f2566148-1bdb-4825-b056-7121fe6053cf",
    "resource": {
      "resourceType": "Location",
      "id": "f2566148-1bdb-4825-b056-7121fe6053cf",
      "name": "Incident Location",
      "address": {
        "type": "physical",
        "line": [ "Whitchurch Hospital", "Claypit Street", "Whitchurch", "Shropshire" ],
        "postalCode": "SY13 1NT"
      }
    }
  }, {
    "fullUrl": "urn:uuid:beb2ba43-022e-4b75-a9a0-835a4bdbda95",
    "resource": {
      "resourceType": "Patient",
      "id": "beb2ba43-022e-4b75-a9a0-835a4bdbda95",
      "identifier": [ {
        "extension": [ {
          "url": "https://fhir.hl7.org.uk/STU3/StructureDefinition/Extension-CareConnect-NHSNumberVerificationStatus-1",
          "valueCodeableConcept": {
            "coding": [ {
              "system": "https://fhir.hl7.org.uk/STU3/StructureDefinition/Extension-CareConnect-NHSNumberVerificationStatus-1",
              "code": "01"
            } ]
          }
        } ],
        "system": "https://fhir.nhs.uk/Id/nhs-number",
        "value": "9990238359"
      } ],
      "active": true,
      "name": [ {
        "use": "official",
        "family": "Xxtestpatientdzadn",
        "given": [ "Scrdonotuse" ]
      } ],
      "telecom": [ {
        "system": "phone",
        "value": "tel:01204428013",
        "use": "home"
      }, {
        "system": "phone",
        "value": "tel:01204428013"
      } ],
      "gender": "female",
      "birthDate": "1965-02-17",
      "address": [ {
        "use": "home",
        "line": [ "Test Address", "Captain Lees Road", "Westhoughton", "Bolton", "Greater Manchester" ],
        "postalCode": "BL5 3UB"
      }, {
        "type": "physical",
        "line": [ "Whitchurch Hospital", "Claypit Street", "Whitchurch", "Shropshire" ],
        "postalCode": "SY13 1NT"
      } ],
      "generalPractitioner": [ {
        "reference": "urn:uuid:9049e4d8-f983-4691-a775-5cd761b8ec04"
      } ]
    }
  }, {
    "fullUrl": "urn:uuid:9049e4d8-f983-4691-a775-5cd761b8ec04",
    "resource": {
      "resourceType": "Organization",
      "id": "9049e4d8-f983-4691-a775-5cd761b8ec04",
      "identifier": [ {
        "value": "F81718"
      } ],
      "type": [ {
        "text": "GP Practice"
      } ],
      "name": "LYDIA HOUSE PRACTICE"
    }
  }, {
    "fullUrl": "urn:uuid:55ddc632-6a0d-41a5-84d5-1dac8a3eaf1c",
    "resource": {
      "resourceType": "HealthcareService",
      "id": "55ddc632-6a0d-41a5-84d5-1dac8a3eaf1c",
      "active": true,
      "providedBy": {
        "reference": "urn:uuid:364ec07f-48dd-4557-94d2-42e3dbdadb0a"
      },
      "location": [ {
        "reference": "urn:uuid:a3a7d7b7-4e0f-48b0-a179-553680a8aff0"
      } ],
      "name": "Repeat Caller - Live (v2)"
    }
  }, {
    "fullUrl": "urn:uuid:a3a7d7b7-4e0f-48b0-a179-553680a8aff0",
    "resource": {
      "resourceType": "Location",
      "id": "a3a7d7b7-4e0f-48b0-a179-553680a8aff0",
      "managingOrganization": {
        "reference": "urn:uuid:364ec07f-48dd-4557-94d2-42e3dbdadb0a"
      }
    }
  }, {
    "fullUrl": "urn:uuid:364ec07f-48dd-4557-94d2-42e3dbdadb0a",
    "resource": {
      "resourceType": "Organization",
      "id": "364ec07f-48dd-4557-94d2-42e3dbdadb0a",
      "identifier": [ {
        "value": "RHY25"
      } ],
      "type": [ {
        "coding": [ {
          "code": "PRCP",
          "display": "Repeat Caller - Live (v2)"
        } ]
      } ],
      "name": "Repeat Caller - Live (v2)"
    }
  }, {
    "fullUrl": "urn:uuid:f57e1292-6946-4c3f-8909-d50b191a50d9",
    "resource": {
      "resourceType": "ReferralRequest",
      "id": "f57e1292-6946-4c3f-8909-d50b191a50d9",
      "status": "active",
      "intent": "plan",
      "priority": "routine",
      "subject": {
        "reference": "urn:uuid:beb2ba43-022e-4b75-a9a0-835a4bdbda95"
      },
      "context": {
        "reference": "urn:uuid:a88efa7c-fb11-4af2-877e-30a2001c3ed4"
      },
      "occurrencePeriod": {
        "start": "2021-09-15T09:16:03+00:00",
        "end": "2021-09-15T10:16:03+00:00"
      },
      "authoredOn": "2020-10-30T09:44:13+00:00",
      "requester": {
        "agent": {
          "reference": "urn:uuid:837e326a-9076-4edd-baf0-09071eb78b8b"
        },
        "onBehalfOf": {
          "reference": "urn:uuid:2cdc0903-e00d-4a20-ad69-80eb88d19f3f"
        }
      },
      "recipient": [ {
        "reference": "urn:uuid:55ddc632-6a0d-41a5-84d5-1dac8a3eaf1c"
      } ],
      "reasonReference": [ {
        "reference": "urn:uuid:b5e0f86c-cbea-4822-9033-51c58b5da33a"
      } ],
      "supportingInfo": [ {
        "reference": "urn:uuid:259b7ddc-b1e4-46c1-9e0f-9d74682b9b8c"
      } ]
    }
  }, {
    "fullUrl": "urn:uuid:259b7ddc-b1e4-46c1-9e0f-9d74682b9b8c",
    "resource": {
      "resourceType": "ProcedureRequest",
      "id": "259b7ddc-b1e4-46c1-9e0f-9d74682b9b8c",
      "status": "active",
      "intent": "plan",
      "priority": "routine",
      "doNotPerform": false,
      "code": {
        "coding": [ {
          "system": "2.16.840.1.113883.2.1.3.2.4.17.325",
          "code": "Dx05",
          "display": "To contact a local service within 2 hours"
        } ]
      },
      "subject": {
        "reference": "urn:uuid:beb2ba43-022e-4b75-a9a0-835a4bdbda95"
      },
      "occurrencePeriod": {
        "start": "2021-09-15T09:16:03+00:00",
        "end": "2021-09-15T10:16:03+00:00"
      },
      "reasonReference": [ {
        "reference": "urn:uuid:b5e0f86c-cbea-4822-9033-51c58b5da33a"
      } ]
    }
  }, {
    "fullUrl": "urn:uuid:04674983-f930-4299-9e51-c00593fe391c",
    "resource": {
      "resourceType": "Composition",
      "id": "04674983-f930-4299-9e51-c00593fe391c",
      "identifier": {
        "use": "usual",
        "value": "499BEC45-8F01-498C-A61F-B8AC124ED50E"
      },
      "status": "final",
      "type": {
        "coding": [ {
          "system": "http://snomed.info/sct",
          "code": "371531000",
          "display": "Report of clinical encounter (record artifact)"
        } ]
      },
      "subject": {
        "reference": "urn:uuid:beb2ba43-022e-4b75-a9a0-835a4bdbda95"
      },
      "encounter": {
        "reference": "urn:uuid:a88efa7c-fb11-4af2-877e-30a2001c3ed4"
      },
      "date": "2021-09-15T09:16:03+00:00",
      "author": [ {
        "reference": "urn:uuid:c407ec0f-90ce-48bc-b151-f8b36079e3a4"
      } ],
      "title": "111 Report",
      "confidentiality": "N",
      "section": [ {
        "section": [ {
          "title": "Patient's Reported Condition",
          "text": {
            "status": "generated",
            "div": "<div xmlns=\"http://www.w3.org/1999/xhtml\">&lt;xml-fragment mediaType=&quot;text/x-hl7-text+xml&quot;&gt;\n                                                    &lt;urn:br xmlns:urn=&quot;urn:hl7-org:v3&quot;/&gt;WHITCHURCH MIU TEST&lt;/xml-fragment&gt;</div>"
          }
        }, {
          "title": "Pathways Disposition",
          "text": {
            "status": "generated",
            "div": "<div xmlns=\"http://www.w3.org/1999/xhtml\">&lt;xml-fragment mediaType=&quot;text/x-hl7-text+xml&quot;&gt;\n                                                    &lt;urn:br xmlns:urn=&quot;urn:hl7-org:v3&quot;/&gt;\n                                                    &lt;urn:br xmlns:urn=&quot;urn:hl7-org:v3&quot;/&gt;\n                                                    &lt;urn:br xmlns:urn=&quot;urn:hl7-org:v3&quot;/&gt;To contact a local service within 2 hours (Dx05)\n\n                                                    Selected service: DO NOT BOOK APPOINTMENT - TESTING Whitchurch Minor Injury Unit&lt;/xml-fragment&gt;</div>"
          }
        }, {
          "title": "Consultation Summary",
          "text": {
            "status": "generated",
            "div": "<div xmlns=\"http://www.w3.org/1999/xhtml\">&lt;xml-fragment mediaType=&quot;text/x-hl7-text+xml&quot;&gt;\n                                                    &lt;urn:br xmlns:urn=&quot;urn:hl7-org:v3&quot;/&gt;\n                                                    &lt;urn:br xmlns:urn=&quot;urn:hl7-org:v3&quot;/&gt;\n                                                    &lt;urn:br xmlns:urn=&quot;urn:hl7-org:v3&quot;/&gt;\n                                                    &lt;urn:br xmlns:urn=&quot;urn:hl7-org:v3&quot;/&gt;\n                                                    &lt;urn:br xmlns:urn=&quot;urn:hl7-org:v3&quot;/&gt;InjuryBite or stingInsect or spider biteSting/bite more than 6 hours agoVery severe, deep limb pain&lt;/xml-fragment&gt;</div>"
          }
        }, {
          "title": "Pathways Assessment",
          "text": {
            "status": "generated",
            "div": "<div xmlns=\"http://www.w3.org/1999/xhtml\">&lt;xml-fragment mediaType=&quot;text/x-hl7-text+xml&quot;&gt;\n                                                    &lt;urn:br xmlns:urn=&quot;urn:hl7-org:v3&quot;/&gt;\n                                                    &lt;urn:br xmlns:urn=&quot;urn:hl7-org:v3&quot;/&gt;\n                                                    &lt;urn:br xmlns:urn=&quot;urn:hl7-org:v3&quot;/&gt;\n                                                    &lt;urn:br xmlns:urn=&quot;urn:hl7-org:v3&quot;/&gt;\n                                                    &lt;urn:br xmlns:urn=&quot;urn:hl7-org:v3&quot;/&gt;\n                                                    &lt;urn:br xmlns:urn=&quot;urn:hl7-org:v3&quot;/&gt;\n                                                    &lt;urn:br xmlns:urn=&quot;urn:hl7-org:v3&quot;/&gt;\n                                                    &lt;urn:br xmlns:urn=&quot;urn:hl7-org:v3&quot;/&gt;\n                                                    &lt;urn:br xmlns:urn=&quot;urn:hl7-org:v3&quot;/&gt;\n                                                    &lt;urn:br xmlns:urn=&quot;urn:hl7-org:v3&quot;/&gt;\n                                                    &lt;urn:br xmlns:urn=&quot;urn:hl7-org:v3&quot;/&gt;\n                                                    &lt;urn:br xmlns:urn=&quot;urn:hl7-org:v3&quot;/&gt;\n                                                    &lt;urn:br xmlns:urn=&quot;urn:hl7-org:v3&quot;/&gt;\n                                                    &lt;urn:br xmlns:urn=&quot;urn:hl7-org:v3&quot;/&gt;\n                                                    &lt;urn:br xmlns:urn=&quot;urn:hl7-org:v3&quot;/&gt;\n                                                    &lt;urn:br xmlns:urn=&quot;urn:hl7-org:v3&quot;/&gt;\n                                                    &lt;urn:br xmlns:urn=&quot;urn:hl7-org:v3&quot;/&gt;\n                                                    &lt;urn:br xmlns:urn=&quot;urn:hl7-org:v3&quot;/&gt;An injury or health problem was the reason for the contact.Heavy bleeding had not occurred in the previous 2 hours.An injury or symptom relating to an injury was the main problem.User Comments: TESTThere was a minor injury (a bite or sting).User Comments: TESTPathway selected - Bites and StingsThe bite or sting was caused by an insect or spider.User Comments: TESTThe sting/bite had not occurred within the previous 6 hours.The individual had been stung less than 10 timesThe individual was not experiencing nausea and/or vomiting.The sting did not involve the eyes, mouth or limb.There was no insect/insect part remaining attached to the skinThere was very severe, deep pain.Instructions given were: The individual needs to contact a local service within 2 hours.Directory of Services referral: DO NOT BOOK APPOINTMENT - TESTING Whitchurch Minor Injury UnitAdvice given:\n                                                    Worsening\n                                                &lt;/xml-fragment&gt;</div>"
          }
        }, {
          "title": "Advice Given",
          "text": {
            "status": "generated",
            "div": "<div xmlns=\"http://www.w3.org/1999/xhtml\">&lt;xml-fragment mediaType=&quot;text/x-hl7-text+xml&quot;&gt;\n                                                    &lt;urn:br xmlns:urn=&quot;urn:hl7-org:v3&quot;/&gt;\n                                                    &lt;urn:br xmlns:urn=&quot;urn:hl7-org:v3&quot;/&gt;If there are any new symptoms, or if the condition gets worse, changes or you have any other concerns, call us back.&lt;/xml-fragment&gt;</div>"
          }
        }, {
          "title": "Special Patient Notes",
          "text": {
            "status": "generated",
            "div": "<div xmlns=\"http://www.w3.org/1999/xhtml\">&lt;xml-fragment mediaType=&quot;text/x-hl7-text+xml&quot;&gt;\n                                                    &lt;urn:content styleCode=&quot;bold&quot; xmlns:urn=&quot;urn:hl7-org:v3&quot;&gt;Note:&lt;/urn:content&gt;\n                                                    &lt;urn:br xmlns:urn=&quot;urn:hl7-org:v3&quot;/&gt;\n                                                    &lt;urn:content xmlns:urn=&quot;urn:hl7-org:v3&quot;&gt;TEST NOTE West Midlands Single Instance&lt;/urn:content&gt;\n                                                    &lt;urn:br xmlns:urn=&quot;urn:hl7-org:v3&quot;/&gt;\n                                                    &lt;urn:br xmlns:urn=&quot;urn:hl7-org:v3&quot;/&gt;Special Notes from an external system were flagged as being present for this patient.&lt;/xml-fragment&gt;</div>"
          }
        } ]
      }, {
        "title": "ReferralRequest",
        "entry": [ {
          "reference": "urn:uuid:f57e1292-6946-4c3f-8909-d50b191a50d9"
        } ]
      }, {
        "title": "QuestionnaireResponse",
        "entry": [ {
          "reference": "urn:uuid:cd4d30b1-fa71-42dd-aeb5-e511e2a14060"
        } ]
      }, {
        "title": "QuestionnaireResponse",
        "entry": [ {
          "reference": "urn:uuid:3efca093-0c39-4afc-9532-68eea24e36ea"
        } ]
      }, {
        "title": "QuestionnaireResponse",
        "entry": [ {
          "reference": "urn:uuid:3ae9e28b-5fba-4682-b1bf-af124ef83ff8"
        } ]
      }, {
        "title": "QuestionnaireResponse",
        "entry": [ {
          "reference": "urn:uuid:96df580e-1685-4427-adbc-7deea735b615"
        } ]
      }, {
        "title": "QuestionnaireResponse",
        "entry": [ {
          "reference": "urn:uuid:e2f10d3d-58b7-4911-aaac-5962062ae524"
        } ]
      }, {
        "title": "QuestionnaireResponse",
        "entry": [ {
          "reference": "urn:uuid:d4dfd159-d6d3-424b-aca3-a317834d698d"
        } ]
      }, {
        "title": "QuestionnaireResponse",
        "entry": [ {
          "reference": "urn:uuid:ad884434-c441-4f40-9de3-ef80a27f9312"
        } ]
      }, {
        "title": "QuestionnaireResponse",
        "entry": [ {
          "reference": "urn:uuid:af3bced4-5052-4679-9a96-89de3827874a"
        } ]
      }, {
        "title": "QuestionnaireResponse",
        "entry": [ {
          "reference": "urn:uuid:6d281e69-a23a-49f2-9dc3-266958288943"
        } ]
      }, {
        "title": "QuestionnaireResponse",
        "entry": [ {
          "reference": "urn:uuid:58b29938-6aac-4b75-a94c-0ad5a50dddf4"
        } ]
      }, {
        "title": "QuestionnaireResponse",
        "entry": [ {
          "reference": "urn:uuid:b06ff3ec-9d1f-4686-a284-ce3c1f371d5e"
        } ]
      }, {
        "title": "QuestionnaireResponse",
        "entry": [ {
          "reference": "urn:uuid:175950c8-cb0d-4884-b660-51f21a727af5"
        } ]
      }, {
        "title": "QuestionnaireResponse",
        "entry": [ {
          "reference": "urn:uuid:53c4cf31-9eb8-4996-8540-8ab03cc55f0b"
        } ]
      }, {
        "title": "QuestionnaireResponse",
        "entry": [ {
          "reference": "urn:uuid:32b93357-397d-4535-a12a-6bdc8b724684"
        } ]
      }, {
        "title": "QuestionnaireResponse",
        "entry": [ {
          "reference": "urn:uuid:478e63cb-7c23-42c3-97b3-5f2414472177"
        } ]
      }, {
        "title": "QuestionnaireResponse",
        "entry": [ {
          "reference": "urn:uuid:2719da89-095b-4008-bccf-33a4d86169d1"
        } ]
      }, {
        "title": "QuestionnaireResponse",
        "entry": [ {
          "reference": "urn:uuid:0195a37c-5033-4571-9ce2-b4d9bae974ab"
        } ]
      }, {
        "title": "QuestionnaireResponse",
        "entry": [ {
          "reference": "urn:uuid:32523d9a-e11e-43aa-bf34-917a732dbe79"
        } ]
      }, {
        "title": "QuestionnaireResponse",
        "entry": [ {
          "reference": "urn:uuid:dabcc7f6-4451-49e3-b4d2-4b2e9f69b277"
        } ]
      }, {
        "title": "QuestionnaireResponse",
        "entry": [ {
          "reference": "urn:uuid:4a05e594-5b5c-4c52-8b8a-9eba41286c70"
        } ]
      }, {
        "title": "QuestionnaireResponse",
        "entry": [ {
          "reference": "urn:uuid:75dd0502-5af7-4bf9-a4cb-fa3634749272"
        } ]
      }, {
        "title": "QuestionnaireResponse",
        "entry": [ {
          "reference": "urn:uuid:d6364f17-a3bb-4922-b005-95685546e1a0"
        } ]
      } ]
    }
  }, {
    "fullUrl": "urn:uuid:35371975-ac83-479d-aa09-848909df82f2",
    "resource": {
      "resourceType": "Consent",
      "id": "35371975-ac83-479d-aa09-848909df82f2",
      "identifier": {
        "use": "usual",
        "value": "499BEC45-8F01-498C-A61F-B8AC124ED50E"
      },
      "status": "active",
      "patient": {
        "reference": "urn:uuid:beb2ba43-022e-4b75-a9a0-835a4bdbda95"
      },
      "period": {
        "start": "2025-10-30T09:45:22+00:00"
      },
      "consentingParty": [ {
        "reference": "urn:uuid:beb2ba43-022e-4b75-a9a0-835a4bdbda95"
      } ],
      "action": [ {
        "coding": [ {
          "system": "http://snomed.info/sct",
          "code": "425691002",
          "display": "Consent given for electronic record sharing"
        } ],
        "text": "Consent given for electronic record sharing"
      } ],
      "organization": [ {
        "reference": "urn:uuid:2cdc0903-e00d-4a20-ad69-80eb88d19f3f"
      } ],
      "policyRule": "http://hl7.org/fhir/ConsentPolicy/opt-out",
      "data": [ {
        "meaning": "related",
        "reference": {
          "reference": "urn:uuid:a88efa7c-fb11-4af2-877e-30a2001c3ed4"
        }
      } ]
    }
  }, {
    "fullUrl": "urn:uuid:b5e0f86c-cbea-4822-9033-51c58b5da33a",
    "resource": {
      "resourceType": "Condition",
      "id": "b5e0f86c-cbea-4822-9033-51c58b5da33a",
      "clinicalStatus": "active",
      "verificationStatus": "unknown",
      "subject": {
        "reference": "urn:uuid:beb2ba43-022e-4b75-a9a0-835a4bdbda95"
      },
      "context": {
        "reference": "urn:uuid:a88efa7c-fb11-4af2-877e-30a2001c3ed4"
      },
      "evidence": [ {
        "detail": [ {
          "reference": "urn:uuid:cd4d30b1-fa71-42dd-aeb5-e511e2a14060"
        } ]
      }, {
        "detail": [ {
          "reference": "urn:uuid:3efca093-0c39-4afc-9532-68eea24e36ea"
        } ]
      }, {
        "detail": [ {
          "reference": "urn:uuid:3ae9e28b-5fba-4682-b1bf-af124ef83ff8"
        } ]
      }, {
        "detail": [ {
          "reference": "urn:uuid:96df580e-1685-4427-adbc-7deea735b615"
        } ]
      }, {
        "detail": [ {
          "reference": "urn:uuid:e2f10d3d-58b7-4911-aaac-5962062ae524"
        } ]
      }, {
        "detail": [ {
          "reference": "urn:uuid:d4dfd159-d6d3-424b-aca3-a317834d698d"
        } ]
      }, {
        "detail": [ {
          "reference": "urn:uuid:ad884434-c441-4f40-9de3-ef80a27f9312"
        } ]
      }, {
        "detail": [ {
          "reference": "urn:uuid:af3bced4-5052-4679-9a96-89de3827874a"
        } ]
      }, {
        "detail": [ {
          "reference": "urn:uuid:6d281e69-a23a-49f2-9dc3-266958288943"
        } ]
      }, {
        "detail": [ {
          "reference": "urn:uuid:58b29938-6aac-4b75-a94c-0ad5a50dddf4"
        } ]
      }, {
        "detail": [ {
          "reference": "urn:uuid:b06ff3ec-9d1f-4686-a284-ce3c1f371d5e"
        } ]
      }, {
        "detail": [ {
          "reference": "urn:uuid:175950c8-cb0d-4884-b660-51f21a727af5"
        } ]
      }, {
        "detail": [ {
          "reference": "urn:uuid:53c4cf31-9eb8-4996-8540-8ab03cc55f0b"
        } ]
      }, {
        "detail": [ {
          "reference": "urn:uuid:32b93357-397d-4535-a12a-6bdc8b724684"
        } ]
      }, {
        "detail": [ {
          "reference": "urn:uuid:478e63cb-7c23-42c3-97b3-5f2414472177"
        } ]
      }, {
        "detail": [ {
          "reference": "urn:uuid:2719da89-095b-4008-bccf-33a4d86169d1"
        } ]
      }, {
        "detail": [ {
          "reference": "urn:uuid:0195a37c-5033-4571-9ce2-b4d9bae974ab"
        } ]
      }, {
        "detail": [ {
          "reference": "urn:uuid:32523d9a-e11e-43aa-bf34-917a732dbe79"
        } ]
      }, {
        "detail": [ {
          "reference": "urn:uuid:dabcc7f6-4451-49e3-b4d2-4b2e9f69b277"
        } ]
      }, {
        "detail": [ {
          "reference": "urn:uuid:4a05e594-5b5c-4c52-8b8a-9eba41286c70"
        } ]
      }, {
        "detail": [ {
          "reference": "urn:uuid:75dd0502-5af7-4bf9-a4cb-fa3634749272"
        } ]
      }, {
        "detail": [ {
          "reference": "urn:uuid:d6364f17-a3bb-4922-b005-95685546e1a0"
        } ]
      } ]
    }
  }, {
    "fullUrl": "urn:uuid:cd4d30b1-fa71-42dd-aeb5-e511e2a14060",
    "resource": {
      "resourceType": "QuestionnaireResponse",
      "id": "cd4d30b1-fa71-42dd-aeb5-e511e2a14060",
      "identifier": {
        "value": "1193164"
      },
      "questionnaire": {
        "reference": "urn:uuid:e7d00052-a71a-40d9-8af7-4e6731bbbbf6"
      },
      "status": "completed",
      "subject": {
        "reference": "urn:uuid:beb2ba43-022e-4b75-a9a0-835a4bdbda95"
      },
      "context": {
        "reference": "urn:uuid:a88efa7c-fb11-4af2-877e-30a2001c3ed4"
      },
      "authored": "2020-10-30T09:45:23+00:00",
      "item": [ {
        "linkId": "Tx220074",
        "text": "What is the reason for the contact?",
        "answer": [ {
          "valueString": "an injury or other health problem"
        } ]
      } ]
    }
  }, {
    "fullUrl": "urn:uuid:e7d00052-a71a-40d9-8af7-4e6731bbbbf6",
    "resource": {
      "resourceType": "Questionnaire",
      "id": "e7d00052-a71a-40d9-8af7-4e6731bbbbf6",
      "identifier": [ {
        "value": "1193164"
      } ],
      "version": "2020-10-30T09:45:23.026Z",
      "status": "active",
      "experimental": false,
      "date": "2020-10-30T09:45:23+00:00",
      "publisher": "User ID: 'HOLDENR' User name: 'Rachael Holden' User skill set: 'T3'",
      "lastReviewDate": "2020-10-30",
      "subjectType": [ "Patient" ],
      "item": [ {
        "linkId": "1193164",
        "prefix": "5",
        "text": "What is the reason for the contact?",
        "type": "choice",
        "required": true,
        "repeats": false,
        "option": [ {
          "valueString": "an injury or other health problem, Selected: true"
        }, {
          "valueString": "labour or childbirth, Selected: false"
        }, {
          "valueString": "a need to access another healthcare service, Selected: false"
        }, {
          "valueString": "a healthcare professional requesting contact with another clinician, Selected: false"
        }, {
          "valueString": "a report of results or tests, Selected: false"
        }, {
          "valueString": "a possible failure of contraception, Selected: false"
        }, {
          "valueString": "more, Selected: false"
        } ]
      } ]
    }
  }, {
    "fullUrl": "urn:uuid:3efca093-0c39-4afc-9532-68eea24e36ea",
    "resource": {
      "resourceType": "QuestionnaireResponse",
      "id": "3efca093-0c39-4afc-9532-68eea24e36ea",
      "identifier": {
        "value": "1193164"
      },
      "questionnaire": {
        "reference": "urn:uuid:d8c507ba-63be-4363-bfd8-4ac285a4a996"
      },
      "status": "completed",
      "subject": {
        "reference": "urn:uuid:beb2ba43-022e-4b75-a9a0-835a4bdbda95"
      },
      "context": {
        "reference": "urn:uuid:a88efa7c-fb11-4af2-877e-30a2001c3ed4"
      },
      "authored": "2020-10-30T09:45:23+00:00",
      "item": [ {
        "linkId": "Tx221807",
        "text": "STRING:to'Immediatethreatstolife(SPA/OOHversion)'-'Majorbloodloss'stem",
        "answer": [ {
          "valueString": "\"present\""
        } ]
      } ]
    }
  }, {
    "fullUrl": "urn:uuid:d8c507ba-63be-4363-bfd8-4ac285a4a996",
    "resource": {
      "resourceType": "Questionnaire",
      "id": "d8c507ba-63be-4363-bfd8-4ac285a4a996",
      "identifier": [ {
        "value": "1193164"
      } ],
      "version": "2020-10-30T09:45:23.026Z",
      "status": "active",
      "experimental": false,
      "date": "2020-10-30T09:45:23+00:00",
      "publisher": "User ID: 'HOLDENR' User name: 'Rachael Holden' User skill set: 'T3'",
      "lastReviewDate": "2020-10-30",
      "subjectType": [ "Patient" ],
      "item": [ {
        "linkId": "1193164",
        "prefix": "200",
        "text": "STRING:to'Immediatethreatstolife(SPA/OOHversion)'-'Majorbloodloss'stem",
        "type": "choice",
        "required": true,
        "repeats": false,
        "option": [ {
          "valueString": "\"present\", Selected: true"
        } ]
      } ]
    }
  }, {
    "fullUrl": "urn:uuid:3ae9e28b-5fba-4682-b1bf-af124ef83ff8",
    "resource": {
      "resourceType": "QuestionnaireResponse",
      "id": "3ae9e28b-5fba-4682-b1bf-af124ef83ff8",
      "identifier": {
        "value": "1193164"
      },
      "questionnaire": {
        "reference": "urn:uuid:0350778f-d88b-43c0-84dd-228ee3670bdf"
      },
      "status": "completed",
      "subject": {
        "reference": "urn:uuid:beb2ba43-022e-4b75-a9a0-835a4bdbda95"
      },
      "context": {
        "reference": "urn:uuid:a88efa7c-fb11-4af2-877e-30a2001c3ed4"
      },
      "authored": "2020-10-30T09:45:23+00:00"
    }
  }, {
    "fullUrl": "urn:uuid:0350778f-d88b-43c0-84dd-228ee3670bdf",
    "resource": {
      "resourceType": "Questionnaire",
      "id": "0350778f-d88b-43c0-84dd-228ee3670bdf",
      "identifier": [ {
        "value": "1193164"
      } ],
      "version": "2020-10-30T09:45:23.026Z",
      "status": "active",
      "experimental": false,
      "date": "2020-10-30T09:45:23+00:00",
      "publisher": "User ID: 'HOLDENR' User name: 'Rachael Holden' User skill set: 'T3'",
      "lastReviewDate": "2020-10-30",
      "subjectType": [ "Patient" ]
    }
  }, {
    "fullUrl": "urn:uuid:96df580e-1685-4427-adbc-7deea735b615",
    "resource": {
      "resourceType": "QuestionnaireResponse",
      "id": "96df580e-1685-4427-adbc-7deea735b615",
      "identifier": {
        "value": "1193164"
      },
      "questionnaire": {
        "reference": "urn:uuid:e0b601e0-79a6-4cc0-b835-7094a5c99fd7"
      },
      "status": "completed",
      "subject": {
        "reference": "urn:uuid:beb2ba43-022e-4b75-a9a0-835a4bdbda95"
      },
      "context": {
        "reference": "urn:uuid:a88efa7c-fb11-4af2-877e-30a2001c3ed4"
      },
      "authored": "2020-10-30T09:45:23+00:00",
      "item": [ {
        "linkId": "Tx221799",
        "text": "STRING:injury,illnessorlabourestablishedinEntryFlow",
        "answer": [ {
          "valueString": "\"present\""
        } ]
      } ]
    }
  }, {
    "fullUrl": "urn:uuid:e0b601e0-79a6-4cc0-b835-7094a5c99fd7",
    "resource": {
      "resourceType": "Questionnaire",
      "id": "e0b601e0-79a6-4cc0-b835-7094a5c99fd7",
      "identifier": [ {
        "value": "1193164"
      } ],
      "version": "2020-10-30T09:45:23.026Z",
      "status": "active",
      "experimental": false,
      "date": "2020-10-30T09:45:23+00:00",
      "publisher": "User ID: 'HOLDENR' User name: 'Rachael Holden' User skill set: 'T3'",
      "lastReviewDate": "2020-10-30",
      "subjectType": [ "Patient" ],
      "item": [ {
        "linkId": "1193164",
        "prefix": "0",
        "text": "STRING:injury,illnessorlabourestablishedinEntryFlow",
        "type": "choice",
        "required": true,
        "repeats": false,
        "option": [ {
          "valueString": "\"present\", Selected: true"
        } ]
      } ]
    }
  }, {
    "fullUrl": "urn:uuid:e2f10d3d-58b7-4911-aaac-5962062ae524",
    "resource": {
      "resourceType": "QuestionnaireResponse",
      "id": "e2f10d3d-58b7-4911-aaac-5962062ae524",
      "identifier": {
        "value": "1193164"
      },
      "questionnaire": {
        "reference": "urn:uuid:9f36212e-27d7-4d41-a43e-b9cc5aec5744"
      },
      "status": "completed",
      "subject": {
        "reference": "urn:uuid:beb2ba43-022e-4b75-a9a0-835a4bdbda95"
      },
      "context": {
        "reference": "urn:uuid:a88efa7c-fb11-4af2-877e-30a2001c3ed4"
      },
      "authored": "2020-10-30T09:45:23+00:00",
      "item": [ {
        "linkId": "Tx224120",
        "text": "Have you been bleeding RED BLOOD very heavily IN THE LAST 2 HOURS?",
        "answer": [ {
          "valueString": "no"
        } ]
      } ]
    }
  }, {
    "fullUrl": "urn:uuid:9f36212e-27d7-4d41-a43e-b9cc5aec5744",
    "resource": {
      "resourceType": "Questionnaire",
      "id": "9f36212e-27d7-4d41-a43e-b9cc5aec5744",
      "identifier": [ {
        "value": "1193164"
      } ],
      "version": "2020-10-30T09:45:23.026Z",
      "status": "active",
      "experimental": false,
      "date": "2020-10-30T09:45:23+00:00",
      "publisher": "User ID: 'HOLDENR' User name: 'Rachael Holden' User skill set: 'T3'",
      "lastReviewDate": "2020-10-30",
      "subjectType": [ "Patient" ],
      "item": [ {
        "linkId": "1193164",
        "prefix": "10100",
        "text": "Have you been bleeding RED BLOOD very heavily IN THE LAST 2 HOURS?",
        "type": "choice",
        "required": true,
        "repeats": false,
        "option": [ {
          "valueString": "yes, Selected: false"
        }, {
          "valueString": "not sure, Selected: false"
        }, {
          "valueString": "no, Selected: true"
        } ]
      } ]
    }
  }, {
    "fullUrl": "urn:uuid:d4dfd159-d6d3-424b-aca3-a317834d698d",
    "resource": {
      "resourceType": "QuestionnaireResponse",
      "id": "d4dfd159-d6d3-424b-aca3-a317834d698d",
      "identifier": {
        "value": "1193164"
      },
      "questionnaire": {
        "reference": "urn:uuid:14f087ca-a961-4d4b-bffe-30d746f7da91"
      },
      "status": "completed",
      "subject": {
        "reference": "urn:uuid:beb2ba43-022e-4b75-a9a0-835a4bdbda95"
      },
      "context": {
        "reference": "urn:uuid:a88efa7c-fb11-4af2-877e-30a2001c3ed4"
      },
      "authored": "2020-10-30T09:45:23+00:00",
      "item": [ {
        "linkId": "Tx221343",
        "text": "SocialConcernsExcluded",
        "answer": [ {
          "valueString": "==\"present\""
        } ]
      } ]
    }
  }, {
    "fullUrl": "urn:uuid:14f087ca-a961-4d4b-bffe-30d746f7da91",
    "resource": {
      "resourceType": "Questionnaire",
      "id": "14f087ca-a961-4d4b-bffe-30d746f7da91",
      "identifier": [ {
        "value": "1193164"
      } ],
      "version": "2020-10-30T09:45:23.026Z",
      "status": "active",
      "experimental": false,
      "date": "2020-10-30T09:45:23+00:00",
      "publisher": "User ID: 'HOLDENR' User name: 'Rachael Holden' User skill set: 'T3'",
      "lastReviewDate": "2020-10-30",
      "subjectType": [ "Patient" ],
      "item": [ {
        "linkId": "1193164",
        "prefix": "1100",
        "text": "SocialConcernsExcluded",
        "type": "choice",
        "required": true,
        "repeats": false,
        "option": [ {
          "valueString": "==\"present\", Selected: true"
        }, {
          "valueString": "*, Selected: false"
        } ]
      } ]
    }
  }, {
    "fullUrl": "urn:uuid:ad884434-c441-4f40-9de3-ef80a27f9312",
    "resource": {
      "resourceType": "QuestionnaireResponse",
      "id": "ad884434-c441-4f40-9de3-ef80a27f9312",
      "identifier": {
        "value": "1193164"
      },
      "questionnaire": {
        "reference": "urn:uuid:c31bea46-f234-4015-9d18-fdf59898aaa1"
      },
      "status": "completed",
      "subject": {
        "reference": "urn:uuid:beb2ba43-022e-4b75-a9a0-835a4bdbda95"
      },
      "context": {
        "reference": "urn:uuid:a88efa7c-fb11-4af2-877e-30a2001c3ed4"
      },
      "authored": "2020-10-30T09:45:23+00:00",
      "item": [ {
        "linkId": "Tx130011",
        "text": "What is the main problem?",
        "answer": [ {
          "valueString": "injury (specify)"
        } ]
      } ]
    }
  }, {
    "fullUrl": "urn:uuid:c31bea46-f234-4015-9d18-fdf59898aaa1",
    "resource": {
      "resourceType": "Questionnaire",
      "id": "c31bea46-f234-4015-9d18-fdf59898aaa1",
      "identifier": [ {
        "value": "1193164"
      } ],
      "version": "2020-10-30T09:45:23.026Z",
      "status": "active",
      "experimental": false,
      "date": "2020-10-30T09:45:23+00:00",
      "publisher": "User ID: 'HOLDENR' User name: 'Rachael Holden' User skill set: 'T3'",
      "lastReviewDate": "2020-10-30",
      "subjectType": [ "Patient" ],
      "item": [ {
        "linkId": "1193164",
        "prefix": "2300",
        "text": "What is the main problem?",
        "type": "choice",
        "required": true,
        "repeats": false,
        "option": [ {
          "valueString": "the individual has been told to follow a particular course of action (specify), Selected: false"
        }, {
          "valueString": "the individual is an identified frequent caller, Selected: false"
        }, {
          "valueString": "injury (specify), Selected: true"
        }, {
          "valueString": "illness or other health problem (specify), Selected: false"
        }, {
          "valueString": "child protection/vulnerable adult concern, Selected: false"
        }, {
          "valueString": "social or domestic emergency, Selected: false"
        }, {
          "valueString": "the environment potentially poses an immediate threat to life (specify), Selected: false"
        } ]
      } ]
    }
  }, {
    "fullUrl": "urn:uuid:af3bced4-5052-4679-9a96-89de3827874a",
    "resource": {
      "resourceType": "QuestionnaireResponse",
      "id": "af3bced4-5052-4679-9a96-89de3827874a",
      "identifier": {
        "value": "1193164"
      },
      "questionnaire": {
        "reference": "urn:uuid:1539c94c-9ec8-4b90-9a5a-474649a68a4f"
      },
      "status": "completed",
      "subject": {
        "reference": "urn:uuid:beb2ba43-022e-4b75-a9a0-835a4bdbda95"
      },
      "context": {
        "reference": "urn:uuid:a88efa7c-fb11-4af2-877e-30a2001c3ed4"
      },
      "authored": "2020-10-30T09:45:23+00:00",
      "item": [ {
        "linkId": "Tx224119",
        "text": "FROM WHAT YOU HAVE HEARD IS THIS A MINOR INJURY?",
        "answer": [ {
          "valueString": "yes - a minor bite or sting (specify)"
        } ]
      } ]
    }
  }, {
    "fullUrl": "urn:uuid:1539c94c-9ec8-4b90-9a5a-474649a68a4f",
    "resource": {
      "resourceType": "Questionnaire",
      "id": "1539c94c-9ec8-4b90-9a5a-474649a68a4f",
      "identifier": [ {
        "value": "1193164"
      } ],
      "version": "2020-10-30T09:45:23.026Z",
      "status": "active",
      "experimental": false,
      "date": "2020-10-30T09:45:23+00:00",
      "publisher": "User ID: 'HOLDENR' User name: 'Rachael Holden' User skill set: 'T3'",
      "lastReviewDate": "2020-10-30",
      "subjectType": [ "Patient" ],
      "item": [ {
        "linkId": "1193164",
        "prefix": "15000",
        "text": "FROM WHAT YOU HAVE HEARD IS THIS A MINOR INJURY?",
        "type": "choice",
        "required": true,
        "repeats": false,
        "option": [ {
          "valueString": "yes - a minor bite or sting (specify), Selected: true"
        }, {
          "valueString": "yes - a scratch, graze or minor wound, Selected: false"
        }, {
          "valueString": "yes - skin minor foreign body or skin glued, Selected: false"
        }, {
          "valueString": "yes - trauma blisters, Selected: false"
        }, {
          "valueString": "yes - a single finger or toe injury, Selected: false"
        }, {
          "valueString": "not sure, Selected: false"
        }, {
          "valueString": "no, Selected: false"
        } ]
      } ]
    }
  }, {
    "fullUrl": "urn:uuid:6d281e69-a23a-49f2-9dc3-266958288943",
    "resource": {
      "resourceType": "QuestionnaireResponse",
      "id": "6d281e69-a23a-49f2-9dc3-266958288943",
      "identifier": {
        "value": "1193164"
      },
      "questionnaire": {
        "reference": "urn:uuid:b5f7d024-72dd-4ffc-9d4c-2b7f32630c47"
      },
      "status": "completed",
      "subject": {
        "reference": "urn:uuid:beb2ba43-022e-4b75-a9a0-835a4bdbda95"
      },
      "context": {
        "reference": "urn:uuid:a88efa7c-fb11-4af2-877e-30a2001c3ed4"
      },
      "authored": "2020-10-30T09:45:23+00:00",
      "item": [ {
        "linkId": "Tx225125",
        "text": "SYSTEM_INJURYMODULE",
        "answer": [ {
          "valueString": "==\"injurymodule\""
        } ]
      } ]
    }
  }, {
    "fullUrl": "urn:uuid:b5f7d024-72dd-4ffc-9d4c-2b7f32630c47",
    "resource": {
      "resourceType": "Questionnaire",
      "id": "b5f7d024-72dd-4ffc-9d4c-2b7f32630c47",
      "identifier": [ {
        "value": "1193164"
      } ],
      "version": "2020-10-30T09:45:23.026Z",
      "status": "active",
      "experimental": false,
      "date": "2020-10-30T09:45:23+00:00",
      "publisher": "User ID: 'HOLDENR' User name: 'Rachael Holden' User skill set: 'T3'",
      "lastReviewDate": "2020-10-30",
      "subjectType": [ "Patient" ],
      "item": [ {
        "linkId": "1193164",
        "prefix": "23700",
        "text": "SYSTEM_INJURYMODULE",
        "type": "choice",
        "required": true,
        "repeats": false,
        "option": [ {
          "valueString": "==\"injurymodule\", Selected: true"
        }, {
          "valueString": "*, Selected: false"
        } ]
      } ]
    }
  }, {
    "fullUrl": "urn:uuid:58b29938-6aac-4b75-a94c-0ad5a50dddf4",
    "resource": {
      "resourceType": "QuestionnaireResponse",
      "id": "58b29938-6aac-4b75-a94c-0ad5a50dddf4",
      "identifier": {
        "value": "1193164"
      },
      "questionnaire": {
        "reference": "urn:uuid:2b9823fb-32e2-4400-9ce1-d578044e2a21"
      },
      "status": "completed",
      "subject": {
        "reference": "urn:uuid:beb2ba43-022e-4b75-a9a0-835a4bdbda95"
      },
      "context": {
        "reference": "urn:uuid:a88efa7c-fb11-4af2-877e-30a2001c3ed4"
      },
      "authored": "2020-10-30T09:45:23+00:00"
    }
  }, {
    "fullUrl": "urn:uuid:2b9823fb-32e2-4400-9ce1-d578044e2a21",
    "resource": {
      "resourceType": "Questionnaire",
      "id": "2b9823fb-32e2-4400-9ce1-d578044e2a21",
      "identifier": [ {
        "value": "1193164"
      } ],
      "version": "2020-10-30T09:45:23.026Z",
      "status": "active",
      "experimental": false,
      "date": "2020-10-30T09:45:23+00:00",
      "publisher": "User ID: 'HOLDENR' User name: 'Rachael Holden' User skill set: 'T3'",
      "lastReviewDate": "2020-10-30",
      "subjectType": [ "Patient" ]
    }
  }, {
    "fullUrl": "urn:uuid:b06ff3ec-9d1f-4686-a284-ce3c1f371d5e",
    "resource": {
      "resourceType": "QuestionnaireResponse",
      "id": "b06ff3ec-9d1f-4686-a284-ce3c1f371d5e",
      "identifier": {
        "value": "1193164"
      },
      "questionnaire": {
        "reference": "urn:uuid:7522c8ba-942e-4036-9e54-73dc62d52edc"
      },
      "status": "completed",
      "subject": {
        "reference": "urn:uuid:beb2ba43-022e-4b75-a9a0-835a4bdbda95"
      },
      "context": {
        "reference": "urn:uuid:a88efa7c-fb11-4af2-877e-30a2001c3ed4"
      },
      "authored": "2020-10-30T09:45:23+00:00",
      "item": [ {
        "linkId": "Tx3529",
        "text": "WHAT WAS THE CAUSE?",
        "answer": [ {
          "valueString": "an insect or spider (specify if known)"
        } ]
      } ]
    }
  }, {
    "fullUrl": "urn:uuid:7522c8ba-942e-4036-9e54-73dc62d52edc",
    "resource": {
      "resourceType": "Questionnaire",
      "id": "7522c8ba-942e-4036-9e54-73dc62d52edc",
      "identifier": [ {
        "value": "1193164"
      } ],
      "version": "2020-10-30T09:45:23.026Z",
      "status": "active",
      "experimental": false,
      "date": "2020-10-30T09:45:23+00:00",
      "publisher": "User ID: 'HOLDENR' User name: 'Rachael Holden' User skill set: 'T3'",
      "lastReviewDate": "2020-10-30",
      "subjectType": [ "Patient" ],
      "item": [ {
        "linkId": "1193164",
        "prefix": "0",
        "text": "WHAT WAS THE CAUSE?",
        "type": "choice",
        "required": true,
        "repeats": false,
        "option": [ {
          "valueString": "a person, Selected: false"
        }, {
          "valueString": "an animal (specify if known), Selected: false"
        }, {
          "valueString": "a snake (specify if known), Selected: false"
        }, {
          "valueString": "an insect or spider (specify if known), Selected: true"
        }, {
          "valueString": "stung by a water creature (specify if known), Selected: false"
        }, {
          "valueString": "bitten by a water creature (specify if known), Selected: false"
        }, {
          "valueString": "not sure, Selected: false"
        } ]
      } ]
    }
  }, {
    "fullUrl": "urn:uuid:175950c8-cb0d-4884-b660-51f21a727af5",
    "resource": {
      "resourceType": "QuestionnaireResponse",
      "id": "175950c8-cb0d-4884-b660-51f21a727af5",
      "identifier": {
        "value": "1193164"
      },
      "questionnaire": {
        "reference": "urn:uuid:3eb83fe6-155b-4e77-bb62-15013d56a033"
      },
      "status": "completed",
      "subject": {
        "reference": "urn:uuid:beb2ba43-022e-4b75-a9a0-835a4bdbda95"
      },
      "context": {
        "reference": "urn:uuid:a88efa7c-fb11-4af2-877e-30a2001c3ed4"
      },
      "authored": "2020-10-30T09:45:23+00:00"
    }
  }, {
    "fullUrl": "urn:uuid:3eb83fe6-155b-4e77-bb62-15013d56a033",
    "resource": {
      "resourceType": "Questionnaire",
      "id": "3eb83fe6-155b-4e77-bb62-15013d56a033",
      "identifier": [ {
        "value": "1193164"
      } ],
      "version": "2020-10-30T09:45:23.026Z",
      "status": "active",
      "experimental": false,
      "date": "2020-10-30T09:45:23+00:00",
      "publisher": "User ID: 'HOLDENR' User name: 'Rachael Holden' User skill set: 'T3'",
      "lastReviewDate": "2020-10-30",
      "subjectType": [ "Patient" ]
    }
  }, {
    "fullUrl": "urn:uuid:53c4cf31-9eb8-4996-8540-8ab03cc55f0b",
    "resource": {
      "resourceType": "QuestionnaireResponse",
      "id": "53c4cf31-9eb8-4996-8540-8ab03cc55f0b",
      "identifier": {
        "value": "1193164"
      },
      "questionnaire": {
        "reference": "urn:uuid:866b3f08-6cf7-4577-95f6-74848d10b736"
      },
      "status": "completed",
      "subject": {
        "reference": "urn:uuid:beb2ba43-022e-4b75-a9a0-835a4bdbda95"
      },
      "context": {
        "reference": "urn:uuid:a88efa7c-fb11-4af2-877e-30a2001c3ed4"
      },
      "authored": "2020-10-30T09:45:23+00:00",
      "item": [ {
        "linkId": "Tx220302",
        "text": "Did it happen WITHIN THE LAST 6 HOURS?",
        "answer": [ {
          "valueString": "no"
        } ]
      } ]
    }
  }, {
    "fullUrl": "urn:uuid:866b3f08-6cf7-4577-95f6-74848d10b736",
    "resource": {
      "resourceType": "Questionnaire",
      "id": "866b3f08-6cf7-4577-95f6-74848d10b736",
      "identifier": [ {
        "value": "1193164"
      } ],
      "version": "2020-10-30T09:45:23.026Z",
      "status": "active",
      "experimental": false,
      "date": "2020-10-30T09:45:23+00:00",
      "publisher": "User ID: 'HOLDENR' User name: 'Rachael Holden' User skill set: 'T3'",
      "lastReviewDate": "2020-10-30",
      "subjectType": [ "Patient" ],
      "item": [ {
        "linkId": "1193164",
        "prefix": "0",
        "text": "Did it happen WITHIN THE LAST 6 HOURS?",
        "type": "choice",
        "required": true,
        "repeats": false,
        "option": [ {
          "valueString": "yes, Selected: false"
        }, {
          "valueString": "not sure, Selected: false"
        }, {
          "valueString": "no, Selected: true"
        } ]
      } ]
    }
  }, {
    "fullUrl": "urn:uuid:32b93357-397d-4535-a12a-6bdc8b724684",
    "resource": {
      "resourceType": "QuestionnaireResponse",
      "id": "32b93357-397d-4535-a12a-6bdc8b724684",
      "identifier": {
        "value": "1193164"
      },
      "questionnaire": {
        "reference": "urn:uuid:19058f88-ad37-4733-9980-8fc8a1e06490"
      },
      "status": "completed",
      "subject": {
        "reference": "urn:uuid:beb2ba43-022e-4b75-a9a0-835a4bdbda95"
      },
      "context": {
        "reference": "urn:uuid:a88efa7c-fb11-4af2-877e-30a2001c3ed4"
      },
      "authored": "2020-10-30T09:45:23+00:00",
      "item": [ {
        "linkId": "Tx3543",
        "text": "Have you been stung 10 or more times?",
        "answer": [ {
          "valueString": "no"
        } ]
      } ]
    }
  }, {
    "fullUrl": "urn:uuid:19058f88-ad37-4733-9980-8fc8a1e06490",
    "resource": {
      "resourceType": "Questionnaire",
      "id": "19058f88-ad37-4733-9980-8fc8a1e06490",
      "identifier": [ {
        "value": "1193164"
      } ],
      "version": "2020-10-30T09:45:23.026Z",
      "status": "active",
      "experimental": false,
      "date": "2020-10-30T09:45:23+00:00",
      "publisher": "User ID: 'HOLDENR' User name: 'Rachael Holden' User skill set: 'T3'",
      "lastReviewDate": "2020-10-30",
      "subjectType": [ "Patient" ],
      "item": [ {
        "linkId": "1193164",
        "prefix": "2900",
        "text": "Have you been stung 10 or more times?",
        "type": "choice",
        "required": true,
        "repeats": false,
        "option": [ {
          "valueString": "yes, Selected: false"
        }, {
          "valueString": "not sure, Selected: false"
        }, {
          "valueString": "no, Selected: true"
        } ]
      } ]
    }
  }, {
    "fullUrl": "urn:uuid:478e63cb-7c23-42c3-97b3-5f2414472177",
    "resource": {
      "resourceType": "QuestionnaireResponse",
      "id": "478e63cb-7c23-42c3-97b3-5f2414472177",
      "identifier": {
        "value": "1193164"
      },
      "questionnaire": {
        "reference": "urn:uuid:5aca00f4-2947-470e-a26a-8def779c1788"
      },
      "status": "completed",
      "subject": {
        "reference": "urn:uuid:beb2ba43-022e-4b75-a9a0-835a4bdbda95"
      },
      "context": {
        "reference": "urn:uuid:a88efa7c-fb11-4af2-877e-30a2001c3ed4"
      },
      "authored": "2020-10-30T09:45:23+00:00",
      "item": [ {
        "linkId": "Tx3557",
        "text": "Have you got nausea or vomiting now?",
        "answer": [ {
          "valueString": "no"
        } ]
      } ]
    }
  }, {
    "fullUrl": "urn:uuid:5aca00f4-2947-470e-a26a-8def779c1788",
    "resource": {
      "resourceType": "Questionnaire",
      "id": "5aca00f4-2947-470e-a26a-8def779c1788",
      "identifier": [ {
        "value": "1193164"
      } ],
      "version": "2020-10-30T09:45:23.026Z",
      "status": "active",
      "experimental": false,
      "date": "2020-10-30T09:45:23+00:00",
      "publisher": "User ID: 'HOLDENR' User name: 'Rachael Holden' User skill set: 'T3'",
      "lastReviewDate": "2020-10-30",
      "subjectType": [ "Patient" ],
      "item": [ {
        "linkId": "1193164",
        "prefix": "3000",
        "text": "Have you got nausea or vomiting now?",
        "type": "choice",
        "required": true,
        "repeats": false,
        "option": [ {
          "valueString": "yes, Selected: false"
        }, {
          "valueString": "not sure, Selected: false"
        }, {
          "valueString": "no, Selected: true"
        } ]
      } ]
    }
  }, {
    "fullUrl": "urn:uuid:2719da89-095b-4008-bccf-33a4d86169d1",
    "resource": {
      "resourceType": "QuestionnaireResponse",
      "id": "2719da89-095b-4008-bccf-33a4d86169d1",
      "identifier": {
        "value": "1193164"
      },
      "questionnaire": {
        "reference": "urn:uuid:c95f26ae-c96a-40ca-ac33-da7098154074"
      },
      "status": "completed",
      "subject": {
        "reference": "urn:uuid:beb2ba43-022e-4b75-a9a0-835a4bdbda95"
      },
      "context": {
        "reference": "urn:uuid:a88efa7c-fb11-4af2-877e-30a2001c3ed4"
      },
      "authored": "2020-10-30T09:45:23+00:00",
      "item": [ {
        "linkId": "Tx3561",
        "text": "Have you been bitten or stung in any of these areas?",
        "answer": [ {
          "valueString": "no"
        } ]
      } ]
    }
  }, {
    "fullUrl": "urn:uuid:c95f26ae-c96a-40ca-ac33-da7098154074",
    "resource": {
      "resourceType": "Questionnaire",
      "id": "c95f26ae-c96a-40ca-ac33-da7098154074",
      "identifier": [ {
        "value": "1193164"
      } ],
      "version": "2020-10-30T09:45:23.026Z",
      "status": "active",
      "experimental": false,
      "date": "2020-10-30T09:45:23+00:00",
      "publisher": "User ID: 'HOLDENR' User name: 'Rachael Holden' User skill set: 'T3'",
      "lastReviewDate": "2020-10-30",
      "subjectType": [ "Patient" ],
      "item": [ {
        "linkId": "1193164",
        "prefix": "3900",
        "text": "Have you been bitten or stung in any of these areas?",
        "type": "choice",
        "required": true,
        "repeats": false,
        "option": [ {
          "valueString": "the eyeball, Selected: false"
        }, {
          "valueString": "inside the mouth or on the lips, Selected: false"
        }, {
          "valueString": "limb, Selected: false"
        }, {
          "valueString": "not sure, Selected: false"
        }, {
          "valueString": "no, Selected: true"
        } ]
      } ]
    }
  }, {
    "fullUrl": "urn:uuid:0195a37c-5033-4571-9ce2-b4d9bae974ab",
    "resource": {
      "resourceType": "QuestionnaireResponse",
      "id": "0195a37c-5033-4571-9ce2-b4d9bae974ab",
      "identifier": {
        "value": "1193164"
      },
      "questionnaire": {
        "reference": "urn:uuid:185d1311-e920-4580-8b0b-b6994a5f8f51"
      },
      "status": "completed",
      "subject": {
        "reference": "urn:uuid:beb2ba43-022e-4b75-a9a0-835a4bdbda95"
      },
      "context": {
        "reference": "urn:uuid:a88efa7c-fb11-4af2-877e-30a2001c3ed4"
      },
      "authored": "2020-10-30T09:45:23+00:00",
      "item": [ {
        "linkId": "Tx3544",
        "text": "Is the insect or part of the insect still attached to the skin?",
        "answer": [ {
          "valueString": "no"
        } ]
      } ]
    }
  }, {
    "fullUrl": "urn:uuid:185d1311-e920-4580-8b0b-b6994a5f8f51",
    "resource": {
      "resourceType": "Questionnaire",
      "id": "185d1311-e920-4580-8b0b-b6994a5f8f51",
      "identifier": [ {
        "value": "1193164"
      } ],
      "version": "2020-10-30T09:45:23.026Z",
      "status": "active",
      "experimental": false,
      "date": "2020-10-30T09:45:23+00:00",
      "publisher": "User ID: 'HOLDENR' User name: 'Rachael Holden' User skill set: 'T3'",
      "lastReviewDate": "2020-10-30",
      "subjectType": [ "Patient" ],
      "item": [ {
        "linkId": "1193164",
        "prefix": "9400",
        "text": "Is the insect or part of the insect still attached to the skin?",
        "type": "choice",
        "required": true,
        "repeats": false,
        "option": [ {
          "valueString": "yes, Selected: false"
        }, {
          "valueString": "not sure, Selected: false"
        }, {
          "valueString": "no, Selected: true"
        } ]
      } ]
    }
  }, {
    "fullUrl": "urn:uuid:32523d9a-e11e-43aa-bf34-917a732dbe79",
    "resource": {
      "resourceType": "QuestionnaireResponse",
      "id": "32523d9a-e11e-43aa-bf34-917a732dbe79",
      "identifier": {
        "value": "1193164"
      },
      "questionnaire": {
        "reference": "urn:uuid:683c278f-b80c-4f14-aac2-c9e75b1f26d8"
      },
      "status": "completed",
      "subject": {
        "reference": "urn:uuid:beb2ba43-022e-4b75-a9a0-835a4bdbda95"
      },
      "context": {
        "reference": "urn:uuid:a88efa7c-fb11-4af2-877e-30a2001c3ed4"
      },
      "authored": "2020-10-30T09:45:23+00:00",
      "item": [ {
        "linkId": "Tx1449",
        "text": "Have you got very severe pain deep inside the affected area?",
        "answer": [ {
          "valueString": "yes"
        } ]
      } ]
    }
  }, {
    "fullUrl": "urn:uuid:683c278f-b80c-4f14-aac2-c9e75b1f26d8",
    "resource": {
      "resourceType": "Questionnaire",
      "id": "683c278f-b80c-4f14-aac2-c9e75b1f26d8",
      "identifier": [ {
        "value": "1193164"
      } ],
      "version": "2020-10-30T09:45:23.026Z",
      "status": "active",
      "experimental": false,
      "date": "2020-10-30T09:45:23+00:00",
      "publisher": "User ID: 'HOLDENR' User name: 'Rachael Holden' User skill set: 'T3'",
      "lastReviewDate": "2020-10-30",
      "subjectType": [ "Patient" ],
      "item": [ {
        "linkId": "1193164",
        "prefix": "19700",
        "text": "Have you got very severe pain deep inside the affected area?",
        "type": "choice",
        "required": true,
        "repeats": false,
        "option": [ {
          "valueString": "yes, Selected: true"
        }, {
          "valueString": "not sure, Selected: false"
        }, {
          "valueString": "no, Selected: false"
        } ]
      } ]
    }
  }, {
    "fullUrl": "urn:uuid:dabcc7f6-4451-49e3-b4d2-4b2e9f69b277",
    "resource": {
      "resourceType": "QuestionnaireResponse",
      "id": "dabcc7f6-4451-49e3-b4d2-4b2e9f69b277",
      "identifier": {
        "value": "1193164"
      },
      "questionnaire": {
        "reference": "urn:uuid:c72ce419-97b0-49b9-8343-59e20c19108e"
      },
      "status": "completed",
      "subject": {
        "reference": "urn:uuid:beb2ba43-022e-4b75-a9a0-835a4bdbda95"
      },
      "context": {
        "reference": "urn:uuid:a88efa7c-fb11-4af2-877e-30a2001c3ed4"
      },
      "authored": "2020-10-30T09:45:23+00:00",
      "item": [ {
        "linkId": "Tx221449",
        "text": "STRING:SDPCFullPrimaryCareassessmentandprescribingcapability",
        "answer": [ {
          "valueString": "\"PC full Primary Care assessment and prescribing capability\""
        } ]
      } ]
    }
  }, {
    "fullUrl": "urn:uuid:c72ce419-97b0-49b9-8343-59e20c19108e",
    "resource": {
      "resourceType": "Questionnaire",
      "id": "c72ce419-97b0-49b9-8343-59e20c19108e",
      "identifier": [ {
        "value": "1193164"
      } ],
      "version": "2020-10-30T09:45:23.026Z",
      "status": "active",
      "experimental": false,
      "date": "2020-10-30T09:45:23+00:00",
      "publisher": "User ID: 'HOLDENR' User name: 'Rachael Holden' User skill set: 'T3'",
      "lastReviewDate": "2020-10-30",
      "subjectType": [ "Patient" ],
      "item": [ {
        "linkId": "1193164",
        "prefix": "19900",
        "text": "STRING:SDPCFullPrimaryCareassessmentandprescribingcapability",
        "type": "choice",
        "required": true,
        "repeats": false,
        "option": [ {
          "valueString": "\"PC full Primary Care assessment and prescribing capability\", Selected: true"
        } ]
      } ]
    }
  }, {
    "fullUrl": "urn:uuid:4a05e594-5b5c-4c52-8b8a-9eba41286c70",
    "resource": {
      "resourceType": "QuestionnaireResponse",
      "id": "4a05e594-5b5c-4c52-8b8a-9eba41286c70",
      "identifier": {
        "value": "1193164"
      },
      "questionnaire": {
        "reference": "urn:uuid:480fa524-03a6-4082-bde9-94e61c0f22a4"
      },
      "status": "completed",
      "subject": {
        "reference": "urn:uuid:beb2ba43-022e-4b75-a9a0-835a4bdbda95"
      },
      "context": {
        "reference": "urn:uuid:a88efa7c-fb11-4af2-877e-30a2001c3ed4"
      },
      "authored": "2020-10-30T09:45:23+00:00"
    }
  }, {
    "fullUrl": "urn:uuid:480fa524-03a6-4082-bde9-94e61c0f22a4",
    "resource": {
      "resourceType": "Questionnaire",
      "id": "480fa524-03a6-4082-bde9-94e61c0f22a4",
      "identifier": [ {
        "value": "1193164"
      } ],
      "version": "2020-10-30T09:45:23.026Z",
      "status": "active",
      "experimental": false,
      "date": "2020-10-30T09:45:23+00:00",
      "publisher": "User ID: 'HOLDENR' User name: 'Rachael Holden' User skill set: 'T3'",
      "lastReviewDate": "2020-10-30",
      "subjectType": [ "Patient" ]
    }
  }, {
    "fullUrl": "urn:uuid:75dd0502-5af7-4bf9-a4cb-fa3634749272",
    "resource": {
      "resourceType": "QuestionnaireResponse",
      "id": "75dd0502-5af7-4bf9-a4cb-fa3634749272",
      "identifier": {
        "value": "1193164"
      },
      "questionnaire": {
        "reference": "urn:uuid:12cff43e-e1b3-4515-87aa-146d2a8b7a5a"
      },
      "status": "completed",
      "subject": {
        "reference": "urn:uuid:beb2ba43-022e-4b75-a9a0-835a4bdbda95"
      },
      "context": {
        "reference": "urn:uuid:a88efa7c-fb11-4af2-877e-30a2001c3ed4"
      },
      "authored": "2020-10-30T09:45:23+00:00"
    }
  }, {
    "fullUrl": "urn:uuid:12cff43e-e1b3-4515-87aa-146d2a8b7a5a",
    "resource": {
      "resourceType": "Questionnaire",
      "id": "12cff43e-e1b3-4515-87aa-146d2a8b7a5a",
      "identifier": [ {
        "value": "1193164"
      } ],
      "version": "2020-10-30T09:45:23.026Z",
      "status": "active",
      "experimental": false,
      "date": "2020-10-30T09:45:23+00:00",
      "publisher": "User ID: 'HOLDENR' User name: 'Rachael Holden' User skill set: 'T3'",
      "lastReviewDate": "2020-10-30",
      "subjectType": [ "Patient" ]
    }
  }, {
    "fullUrl": "urn:uuid:d6364f17-a3bb-4922-b005-95685546e1a0",
    "resource": {
      "resourceType": "QuestionnaireResponse",
      "id": "d6364f17-a3bb-4922-b005-95685546e1a0",
      "identifier": {
        "value": "1193164"
      },
      "questionnaire": {
        "reference": "urn:uuid:b85c4354-a94d-46e3-aa54-58cc46415646"
      },
      "status": "completed",
      "subject": {
        "reference": "urn:uuid:beb2ba43-022e-4b75-a9a0-835a4bdbda95"
      },
      "context": {
        "reference": "urn:uuid:a88efa7c-fb11-4af2-877e-30a2001c3ed4"
      },
      "authored": "2020-10-30T09:45:23+00:00"
    }
  }, {
    "fullUrl": "urn:uuid:b85c4354-a94d-46e3-aa54-58cc46415646",
    "resource": {
      "resourceType": "Questionnaire",
      "id": "b85c4354-a94d-46e3-aa54-58cc46415646",
      "identifier": [ {
        "value": "1193164"
      } ],
      "version": "2020-10-30T09:45:23.026Z",
      "status": "active",
      "experimental": false,
      "date": "2020-10-30T09:45:23+00:00",
      "publisher": "User ID: 'HOLDENR' User name: 'Rachael Holden' User skill set: 'T3'",
      "lastReviewDate": "2020-10-30",
      "subjectType": [ "Patient" ]
    }
  }, {
    "fullUrl": "urn:uuid:9d9ee459-24b4-4fd4-8b99-1b9277743012",
    "resource": {
      "resourceType": "Observation",
      "id": "9d9ee459-24b4-4fd4-8b99-1b9277743012",
      "status": "final",
      "code": {
        "coding": [ {
          "system": "http://snomed.info/sct",
          "code": "33962009",
          "display": "Presenting complaint"
        } ]
      },
      "subject": {
        "reference": "urn:uuid:beb2ba43-022e-4b75-a9a0-835a4bdbda95"
      },
      "context": {
        "reference": "urn:uuid:a88efa7c-fb11-4af2-877e-30a2001c3ed4"
      }
    }
  }, {
    "fullUrl": "urn:uuid:6b886b17-589e-4ebd-8bb7-eb6c23f578ec",
    "resource": {
      "resourceType": "PractitionerRole",
      "id": "6b886b17-589e-4ebd-8bb7-eb6c23f578ec",
      "practitioner": {
        "reference": "urn:uuid:c407ec0f-90ce-48bc-b151-f8b36079e3a4"
      },
      "organization": {
        "reference": "urn:uuid:3ee0df6b-7303-41f0-9847-4db5364d02f5"
      },
      "code": [ {
        "coding": [ {
          "system": "2.16.840.1.113883.2.1.3.2.4.17.339",
          "code": "DOCTOR",
          "display": "Doctor"
        } ]
      } ]
    }
  }, {
    "fullUrl": "urn:uuid:3ee0df6b-7303-41f0-9847-4db5364d02f5",
    "resource": {
      "resourceType": "Organization",
      "id": "3ee0df6b-7303-41f0-9847-4db5364d02f5",
      "identifier": [ {
        "value": "RYA06"
      } ],
      "name": "WMAS - Navigation Point Call Centre (West Midlands Single Instance)"
    }
  }, {
    "fullUrl": "urn:uuid:f742fd13-9768-401f-9f26-7353d95c5261",
    "resource": {
      "resourceType": "PractitionerRole",
      "id": "f742fd13-9768-401f-9f26-7353d95c5261",
      "practitioner": {
        "reference": "urn:uuid:6151b56c-ac8b-4f2e-b6e8-8c3c1c831468"
      },
      "organization": {
        "reference": "urn:uuid:ff5cab5a-34c5-4b7d-b36b-d7886d9e3f54"
      },
      "code": [ {
        "coding": [ {
          "system": "2.16.840.1.113883.2.1.3.2.4.17.196",
          "code": "R0010",
          "display": "Medical Director"
        } ]
      } ]
    }
  }, {
    "fullUrl": "urn:uuid:ff5cab5a-34c5-4b7d-b36b-d7886d9e3f54",
    "resource": {
      "resourceType": "Organization",
      "id": "ff5cab5a-34c5-4b7d-b36b-d7886d9e3f54",
      "identifier": [ {
        "value": "RYA06"
      } ],
      "name": "West Midlands Single Instance"
    }
  }, {
    "fullUrl": "urn:uuid:bce61d06-f4a0-4e68-802b-bc24667f8cca",
    "resource": {
      "resourceType": "RelatedPerson",
      "id": "bce61d06-f4a0-4e68-802b-bc24667f8cca",
      "patient": {
        "reference": "urn:uuid:beb2ba43-022e-4b75-a9a0-835a4bdbda95"
      },
      "relationship": {
        "coding": [ {
          "system": "http://hl7.org/fhir/v2/0131",
          "code": "C",
          "display": "Emergency Contact"
        } ]
      },
      "telecom": [ {
        "system": "phone",
        "value": "tel:01204428013"
      } ]
    }
  }, {
    "fullUrl": "urn:uuid:837e326a-9076-4edd-baf0-09071eb78b8b",
    "resource": {
      "resourceType": "Device",
      "id": "837e326a-9076-4edd-baf0-09071eb78b8b",
      "model": "111 Adaptor",
      "version": "0.9.0"
    }
  }, {
    "fullUrl": "urn:uuid:071ed87c-1b51-4892-8c13-adecb5cdccd7",
    "resource": {
      "resourceType": "List",
      "id": "071ed87c-1b51-4892-8c13-adecb5cdccd7",
      "status": "current",
      "mode": "working",
      "title": "111 Report List",
      "code": {
        "coding": [ {
          "system": "http://snomed.info/sct",
          "code": "225390008",
          "display": "Triage"
        } ]
      },
      "subject": {
        "reference": "urn:uuid:beb2ba43-022e-4b75-a9a0-835a4bdbda95"
      },
      "encounter": {
        "reference": "urn:uuid:a88efa7c-fb11-4af2-877e-30a2001c3ed4"
      },
      "date": "2021-09-15T09:16:03+00:00",
      "source": {
        "reference": "urn:uuid:837e326a-9076-4edd-baf0-09071eb78b8b"
      },
      "orderedBy": {
        "coding": [ {
          "system": "http://hl7.org/fhir/list-order",
          "code": "event-date",
          "display": "Sorted by Event Date"
        } ]
      },
      "entry": [ {
        "item": {
          "reference": "urn:uuid:3ee0df6b-7303-41f0-9847-4db5364d02f5"
        }
      }, {
        "item": {
          "reference": "urn:uuid:b5e0f86c-cbea-4822-9033-51c58b5da33a"
        }
      }, {
        "item": {
          "reference": "urn:uuid:c407ec0f-90ce-48bc-b151-f8b36079e3a4"
        }
      }, {
        "item": {
          "reference": "urn:uuid:364ec07f-48dd-4557-94d2-42e3dbdadb0a"
        }
      }, {
        "item": {
          "reference": "urn:uuid:6151b56c-ac8b-4f2e-b6e8-8c3c1c831468"
        }
      }, {
        "item": {
          "reference": "urn:uuid:e4528d36-4449-4fcd-a516-e7d406240e9b"
        }
      }, {
        "item": {
          "reference": "urn:uuid:9049e4d8-f983-4691-a775-5cd761b8ec04"
        }
      }, {
        "item": {
          "reference": "urn:uuid:bce61d06-f4a0-4e68-802b-bc24667f8cca"
        }
      }, {
        "item": {
          "reference": "urn:uuid:9d9ee459-24b4-4fd4-8b99-1b9277743012"
        }
      }, {
        "item": {
          "reference": "urn:uuid:2cdc0903-e00d-4a20-ad69-80eb88d19f3f"
        }
      }, {
        "item": {
          "reference": "urn:uuid:ff5cab5a-34c5-4b7d-b36b-d7886d9e3f54"
        }
      }, {
        "item": {
          "reference": "urn:uuid:53c4cf31-9eb8-4996-8540-8ab03cc55f0b"
        }
      }, {
        "item": {
          "reference": "urn:uuid:ad884434-c441-4f40-9de3-ef80a27f9312"
        }
      }, {
        "item": {
          "reference": "urn:uuid:b5f7d024-72dd-4ffc-9d4c-2b7f32630c47"
        }
      }, {
        "item": {
          "reference": "urn:uuid:af3bced4-5052-4679-9a96-89de3827874a"
        }
      }, {
        "item": {
          "reference": "urn:uuid:e2f10d3d-58b7-4911-aaac-5962062ae524"
        }
      }, {
        "item": {
          "reference": "urn:uuid:96df580e-1685-4427-adbc-7deea735b615"
        }
      }, {
        "item": {
          "reference": "urn:uuid:75dd0502-5af7-4bf9-a4cb-fa3634749272"
        }
      }, {
        "item": {
          "reference": "urn:uuid:6d281e69-a23a-49f2-9dc3-266958288943"
        }
      }, {
        "item": {
          "reference": "urn:uuid:5aca00f4-2947-470e-a26a-8def779c1788"
        }
      }, {
        "item": {
          "reference": "urn:uuid:0350778f-d88b-43c0-84dd-228ee3670bdf"
        }
      }, {
        "item": {
          "reference": "urn:uuid:dabcc7f6-4451-49e3-b4d2-4b2e9f69b277"
        }
      }, {
        "item": {
          "reference": "urn:uuid:12cff43e-e1b3-4515-87aa-146d2a8b7a5a"
        }
      }, {
        "item": {
          "reference": "urn:uuid:3ae9e28b-5fba-4682-b1bf-af124ef83ff8"
        }
      }, {
        "item": {
          "reference": "urn:uuid:32b93357-397d-4535-a12a-6bdc8b724684"
        }
      }, {
        "item": {
          "reference": "urn:uuid:19058f88-ad37-4733-9980-8fc8a1e06490"
        }
      }, {
        "item": {
          "reference": "urn:uuid:d6364f17-a3bb-4922-b005-95685546e1a0"
        }
      }, {
        "item": {
          "reference": "urn:uuid:683c278f-b80c-4f14-aac2-c9e75b1f26d8"
        }
      }, {
        "item": {
          "reference": "urn:uuid:0195a37c-5033-4571-9ce2-b4d9bae974ab"
        }
      }, {
        "item": {
          "reference": "urn:uuid:d4dfd159-d6d3-424b-aca3-a317834d698d"
        }
      }, {
        "item": {
          "reference": "urn:uuid:175950c8-cb0d-4884-b660-51f21a727af5"
        }
      }, {
        "item": {
          "reference": "urn:uuid:3eb83fe6-155b-4e77-bb62-15013d56a033"
        }
      }, {
        "item": {
          "reference": "urn:uuid:2719da89-095b-4008-bccf-33a4d86169d1"
        }
      }, {
        "item": {
          "reference": "urn:uuid:58b29938-6aac-4b75-a94c-0ad5a50dddf4"
        }
      }, {
        "item": {
          "reference": "urn:uuid:e7d00052-a71a-40d9-8af7-4e6731bbbbf6"
        }
      }, {
        "item": {
          "reference": "urn:uuid:c31bea46-f234-4015-9d18-fdf59898aaa1"
        }
      }, {
        "item": {
          "reference": "urn:uuid:d8c507ba-63be-4363-bfd8-4ac285a4a996"
        }
      }, {
        "item": {
          "reference": "urn:uuid:4a05e594-5b5c-4c52-8b8a-9eba41286c70"
        }
      }, {
        "item": {
          "reference": "urn:uuid:185d1311-e920-4580-8b0b-b6994a5f8f51"
        }
      }, {
        "item": {
          "reference": "urn:uuid:866b3f08-6cf7-4577-95f6-74848d10b736"
        }
      }, {
        "item": {
          "reference": "urn:uuid:3efca093-0c39-4afc-9532-68eea24e36ea"
        }
      }, {
        "item": {
          "reference": "urn:uuid:7522c8ba-942e-4036-9e54-73dc62d52edc"
        }
      }, {
        "item": {
          "reference": "urn:uuid:480fa524-03a6-4082-bde9-94e61c0f22a4"
        }
      }, {
        "item": {
          "reference": "urn:uuid:b85c4354-a94d-46e3-aa54-58cc46415646"
        }
      }, {
        "item": {
          "reference": "urn:uuid:32523d9a-e11e-43aa-bf34-917a732dbe79"
        }
      }, {
        "item": {
          "reference": "urn:uuid:c95f26ae-c96a-40ca-ac33-da7098154074"
        }
      }, {
        "item": {
          "reference": "urn:uuid:14f087ca-a961-4d4b-bffe-30d746f7da91"
        }
      }, {
        "item": {
          "reference": "urn:uuid:b06ff3ec-9d1f-4686-a284-ce3c1f371d5e"
        }
      }, {
        "item": {
          "reference": "urn:uuid:9f36212e-27d7-4d41-a43e-b9cc5aec5744"
        }
      }, {
        "item": {
          "reference": "urn:uuid:c72ce419-97b0-49b9-8343-59e20c19108e"
        }
      }, {
        "item": {
          "reference": "urn:uuid:cd4d30b1-fa71-42dd-aeb5-e511e2a14060"
        }
      }, {
        "item": {
          "reference": "urn:uuid:1539c94c-9ec8-4b90-9a5a-474649a68a4f"
        }
      }, {
        "item": {
          "reference": "urn:uuid:e0b601e0-79a6-4cc0-b835-7094a5c99fd7"
        }
      }, {
        "item": {
          "reference": "urn:uuid:478e63cb-7c23-42c3-97b3-5f2414472177"
        }
      }, {
        "item": {
          "reference": "urn:uuid:2b9823fb-32e2-4400-9ce1-d578044e2a21"
        }
      }, {
        "item": {
          "reference": "urn:uuid:f57e1292-6946-4c3f-8909-d50b191a50d9"
        }
      } ]
    }
  } ]
}