{
  "resourceType": "Bundle",
  "identifier": {
    "type": {
      "text": "ClinicalDocument VersionNumber"
    },
    "value": "1"
  },
  "type": "message",
  "entry": [ {
    "fullUrl": "urn:uuid:2B77B3F5-3016-4A6D-821F-152CE420E58D",
    "resource": {
      "resourceType": "MessageHeader",
      "id": "2B77B3F5-3016-4A6D-821F-152CE420E58D",
      "event": {
        "system": "https://fhir.nhs.uk/STU3/CodeSystem/EventType-1",
        "code": "referral-1",
        "display": "Referral"
      },
      "destination": [ {
        "endpoint": "urn:nhs-uk:addressing:ods:EM396:DOSServiceID:26428"
      } ],
      "timestamp": "2025-10-30T09:45:22.000+00:00",
      "source": {
        "name": "NHS 111 Adaptor",
        "endpoint": "http://localhost:8080/report"
      },
      "reason": {
        "coding": [ {
          "system": "urn:nhs-itk:ns:201005:interaction",
          "code": "urn:nhs-itk:interaction:primaryNHS111RepeatCallerDocumentSet-v1-0"
        } ]
      }
    }
  }, {
    "fullUrl": "urn:uuid:c9aa178a-c411-4fb4-91c8-8a8d9661cb61",
    "resource": {
      "resourceType": "Encounter",
      "id": "c9aa178a-c411-4fb4-91c8-8a8d9661cb61",
      "identifier": [ {
        "system": "2.16.840.1.113883.2.1.3.2.4.18.34",
        "value": "D47E4F49-D4B8-4913-85B9-64AF5523B268"
      }, {
        "system": "2.16.840.1.113883.2.1.3.2.4.18.35",
        "value": "1193164"
      } ],
      "status": "finished",
      "type": [ {
        "text": "111 Encounter Referral"
      } ],
      "subject": {
        "reference": "urn:uuid:55de463b-4f9b-4c2c-be70-86d468b2e9ec"
      },
      "participant": [ {
        "type": [ {
          "coding": [ {
            "system": "http://hl7.org/fhir/ValueSet/encounter-participant-type",
            "code": "PPRF",
            "display": "Author"
          } ]
        } ],
        "individual": {
          "reference": "urn:uuid:36b110f7-61f7-4443-b1c9-b373a12246f2"
        }
      }, {
        "type": [ {
          "coding": [ {
            "system": "http://hl7.org/fhir/ValueSet/encounter-participant-type",
            "code": "ATND",
            "display": "Responsible Party"
          } ]
        } ],
        "individual": {
          "reference": "urn:uuid:f0aaf459-2859-4bf6-83e7-49a1e10ed690"
        }
      } ],
      "period": {
        "start": "2025-10-30T09:45:22+00:00"
      },
      "location": [ {
        "location": {
          "reference": "urn:uuid:e61f1afc-ba0c-425d-bf8e-75f407710141"
        },
        "status": "active"
      }, {
        "location": {
          "reference": "urn:uuid:ab5463c3-ba5a-47c5-9bb1-f7ab9b6e1e04"
        },
        "status": "completed"
      } ],
      "serviceProvider": {
        "reference": "urn:uuid:26ed286a-1abd-44ed-9bdf-ca52a83f302b"
      }
    }
  }, {
    "fullUrl": "urn:uuid:26ed286a-1abd-44ed-9bdf-ca52a83f302b",
    "resource": {
      "resourceType": "Organization",
      "id": "26ed286a-1abd-44ed-9bdf-ca52a83f302b",
      "active": true,
      "type": [ {
        "text": "CST"
      } ],
      "name": "West Midlands Single Instance"
    }
  }, {
    "fullUrl": "urn:uuid:36b110f7-61f7-4443-b1c9-b373a12246f2",
    "resource": {
      "resourceType": "Practitioner",
      "id": "36b110f7-61f7-4443-b1c9-b373a12246f2",
      "active": true,
      "name": [ {
        "use": "official"
      } ]
    }
  }, {
    "fullUrl": "urn:uuid:f0aaf459-2859-4bf6-83e7-49a1e10ed690",
    "resource": {
      "resourceType": "Practitioner",
      "id": "f0aaf459-2859-4bf6-83e7-49a1e10ed690",
      "active": true,
      "name": [ {
        "use": "official",
        "family": "Walker",
        "given": [ "Alison" ]
      } ]
    }
  }, {
    "fullUrl": "urn:uuid:e61f1afc-ba0c-425d-bf8e-75f407710141",
    "resource": {
      "resourceType": "Location",
      "id": "e61f1afc-ba0c-425d-bf8e-75f407710141",
      "managingOrganization": {
        "reference": "urn:uuid:f7a28d4b-d3f5-4b30-b3aa-1b46d0aa3d05"
      }
    }
  }, {
    "fullUrl": "urn:uuid:f7a28d4b-d3f5-4b30-b3aa-1b46d0aa3d05",
    "resource": {
      "resourceType": "Organization",
      "id": "f7a28d4b-d3f5-4b30-b3aa-1b46d0aa3d05",
      "identifier": [ {
        "value": "F81718"
      } ],
      "type": [ {
        "text": "GP Practice"
      } ],
      "name": "LYDIA HOUSE PRACTICE"
    }
  }, {
    "fullUrl": "urn:uuid:ab5463c3-ba5a-47c5-9bb1-f7ab9b6e1e04",
    "resource": {
      "resourceType": "Location",
      "id": "ab5463c3-ba5a-47c5-9bb1-f7ab9b6e1e04",
      "name": "Incident Location",
      "address": {
        "type": "physical",
        "line": [ "Whitchurch Hospital", "Claypit Street", "Whitchurch", "Shropshire" ],
        "postalCode": "SY13 1NT"
      }
    }
  }, {
    "fullUrl": "urn:uuid:55de463b-4f9b-4c2c-be70-86d468b2e9ec",
    "resource": {
      "resourceType": "Patient",
      "id": "55de463b-4f9b-4c2c-be70-86d468b2e9ec",
      "identifier": [ {
        "extension": [ {
          "url": "https://fhir.hl7.org.uk/STU3/StructureDefinition/Extension-CareConnect-NHSNumberVerificationStatus-1",
          "valueCodeableConcept": {
            "coding": [ {
              "system": "https://fhir.hl7.org.uk/STU3/StructureDefinition/Extension-CareConnect-NHSNumberVerificationStatus-1",
              "code": "01"
            } ]
          }
        } ],
        "system": "https://fhir.nhs.uk/Id/nhs-number",
        "value": "9990238359"
      } ],
      "active": true,
      "name": [ {
        "use": "official",
        "family": "Xxtestpatientdzadn",
        "given": [ "Scrdonotuse" ]
      } ],
      "telecom": [ {
        "system": "phone",
        "value": "tel:01204428013",
        "use": "home"
      }, {
        "system": "phone",
        "value": "tel:01204428013"
      } ],
      "gender": "female",
      "birthDate": "1965-02-17",
      "address": [ {
        "use": "home",
        "line": [ "Test Address", "Captain Lees Road", "Westhoughton", "Bolton", "Greater Manchester" ],
        "postalCode": "BL5 3UB"
      }, {
        "type": "physical",
        "line": [ "Whitchurch Hospital", "Claypit Street", "Whitchurch", "Shropshire" ],
        "postalCode": "SY13 1NT"
      } ],
      "generalPractitioner": [ {
        "reference": "urn:uuid:7529dd01-de71-42c7-9503-9f353c783628"
      } ]
    }
  }, {
    "fullUrl": "urn:uuid:7529dd01-de71-42c7-9503-9f353c783628",
    "resource": {
      "resourceType": "Organization",
      "id": "7529dd01-de71-42c7-9503-9f353c783628",
      "identifier": [ {
        "value": "F81718"
      } ],
      "type": [ {
        "text": "GP Practice"
      } ],
      "name": "LYDIA HOUSE PRACTICE"
    }
  }, {
    "fullUrl": "urn:uuid:df3c14f8-b16b-4bc7-a838-6f9d5b5b71e1",
    "resource": {
      "resourceType": "HealthcareService",
      "id": "df3c14f8-b16b-4bc7-a838-6f9d5b5b71e1",
      "active": true,
      "providedBy": {
        "reference": "urn:uuid:8762fbec-8991-401b-92aa-afe9efdc7367"
      },
      "location": [ {
        "reference": "urn:uuid:43c91fb1-b3a5-43a7-8155-f5d68be5004a"
      } ],
      "name": "Repeat Caller - Live (v2)"
    }
  }, {
    "fullUrl": "urn:uuid:43c91fb1-b3a5-43a7-8155-f5d68be5004a",
    "resource": {
      "resourceType": "Location",
      "id": "43c91fb1-b3a5-43a7-8155-f5d68be5004a",
      "managingOrganization": {
        "reference": "urn:uuid:8762fbec-8991-401b-92aa-afe9efdc7367"
      }
    }
  }, {
    "fullUrl": "urn:uuid:8762fbec-8991-401b-92aa-afe9efdc7367",
    "resource": {
      "resourceType": "Organization",
      "id": "8762fbec-8991-401b-92aa-afe9efdc7367",
      "identifier": [ {
        "value": "RHY25"
      } ],
      "type": [ {
        "coding": [ {
          "code": "PRCP",
          "display": "Repeat Caller - Live (v2)"
        } ]
      } ],
      "name": "Repeat Caller - Live (v2)"
    }
  }, {
    "fullUrl": "urn:uuid:4562c96c-6546-4f4e-a170-55416d6fa9b8",
    "resource": {
      "resourceType": "ReferralRequest",
      "id": "4562c96c-6546-4f4e-a170-55416d6fa9b8",
      "status": "active",
      "intent": "plan",
      "priority": "routine",
      "subject": {
        "reference": "urn:uuid:55de463b-4f9b-4c2c-be70-86d468b2e9ec"
      },
      "context": {
        "reference": "urn:uuid:c9aa178a-c411-4fb4-91c8-8a8d9661cb61"
      },
      "occurrencePeriod": {
        "start": "2021-09-14T09:23:23+00:00",
        "end": "2021-09-14T10:23:23+00:00"
      },
      "authoredOn": "2020-10-30T09:44:13+00:00",
      "requester": {
        "agent": {
          "reference": "urn:uuid:82d710a8-6adb-4cbb-bcac-4d28a11b962b"
        },
        "onBehalfOf": {
          "reference": "urn:uuid:26ed286a-1abd-44ed-9bdf-ca52a83f302b"
        }
      },
      "recipient": [ {
        "reference": "urn:uuid:df3c14f8-b16b-4bc7-a838-6f9d5b5b71e1"
      } ],
      "reasonReference": [ {
        "reference": "urn:uuid:998662f4-e9d8-44d6-9d88-a35fd7d43602"
      } ],
      "supportingInfo": [ {
        "reference": "urn:uuid:bf96ecbb-a3a5-47e8-8c88-f405b5da6bde"
      } ]
    }
  }, {
    "fullUrl": "urn:uuid:bf96ecbb-a3a5-47e8-8c88-f405b5da6bde",
    "resource": {
      "resourceType": "ProcedureRequest",
      "id": "bf96ecbb-a3a5-47e8-8c88-f405b5da6bde",
      "status": "active",
      "intent": "plan",
      "priority": "routine",
      "doNotPerform": false,
      "code": {
        "coding": [ {
          "system": "2.16.840.1.113883.2.1.3.2.4.17.325",
          "code": "Dx05",
          "display": "To contact a local service within 2 hours"
        } ]
      },
      "subject": {
        "reference": "urn:uuid:55de463b-4f9b-4c2c-be70-86d468b2e9ec"
      },
      "occurrencePeriod": {
        "start": "2021-09-14T09:23:23+00:00",
        "end": "2021-09-14T10:23:23+00:00"
      },
      "reasonReference": [ {
        "reference": "urn:uuid:998662f4-e9d8-44d6-9d88-a35fd7d43602"
      } ]
    }
  }, {
    "fullUrl": "urn:uuid:24e7478b-548e-45a0-967c-9c0ad8516953",
    "resource": {
      "resourceType": "Composition",
      "id": "24e7478b-548e-45a0-967c-9c0ad8516953",
      "identifier": {
        "use": "usual",
        "value": "499BEC45-8F01-498C-A61F-B8AC124ED50E"
      },
      "status": "final",
      "type": {
        "coding": [ {
          "system": "http://snomed.info/sct",
          "code": "371531000",
          "display": "Report of clinical encounter (record artifact)"
        } ]
      },
      "subject": {
        "reference": "urn:uuid:55de463b-4f9b-4c2c-be70-86d468b2e9ec"
      },
      "encounter": {
        "reference": "urn:uuid:c9aa178a-c411-4fb4-91c8-8a8d9661cb61"
      },
      "date": "2021-09-14T09:23:23+00:00",
      "author": [ {
        "reference": "urn:uuid:36b110f7-61f7-4443-b1c9-b373a12246f2"
      } ],
      "title": "111 Report",
      "confidentiality": "N",
      "section": [ {
        "section": [ {
          "title": "Patient's Reported Condition",
          "text": {
            "status": "generated",
            "div": "<div xmlns=\"http://www.w3.org/1999/xhtml\">&lt;xml-fragment mediaType=&quot;text/x-hl7-text+xml&quot;&gt;\n                                                    &lt;urn:br xmlns:urn=&quot;urn:hl7-org:v3&quot;/&gt;WHITCHURCH MIU TEST&lt;/xml-fragment&gt;</div>"
          }
        }, {
          "title": "Pathways Disposition",
          "text": {
            "status": "generated",
            "div": "<div xmlns=\"http://www.w3.org/1999/xhtml\">&lt;xml-fragment mediaType=&quot;text/x-hl7-text+xml&quot;&gt;\n                                                    &lt;urn:br xmlns:urn=&quot;urn:hl7-org:v3&quot;/&gt;\n                                                    &lt;urn:br xmlns:urn=&quot;urn:hl7-org:v3&quot;/&gt;\n                                                    &lt;urn:br xmlns:urn=&quot;urn:hl7-org:v3&quot;/&gt;To contact a local service within 2 hours (Dx05)\n\n                                                    Selected service: DO NOT BOOK APPOINTMENT - TESTING Whitchurch Minor Injury Unit&lt;/xml-fragment&gt;</div>"
          }
        }, {
          "title": "Consultation Summary",
          "text": {
            "status": "generated",
            "div": "<div xmlns=\"http://www.w3.org/1999/xhtml\">&lt;xml-fragment mediaType=&quot;text/x-hl7-text+xml&quot;&gt;\n                                                    &lt;urn:br xmlns:urn=&quot;urn:hl7-org:v3&quot;/&gt;\n                                                    &lt;urn:br xmlns:urn=&quot;urn:hl7-org:v3&quot;/&gt;\n                                                    &lt;urn:br xmlns:urn=&quot;urn:hl7-org:v3&quot;/&gt;\n                                                    &lt;urn:br xmlns:urn=&quot;urn:hl7-org:v3&quot;/&gt;\n                                                    &lt;urn:br xmlns:urn=&quot;urn:hl7-org:v3&quot;/&gt;InjuryBite or stingInsect or spider biteSting/bite more than 6 hours agoVery severe, deep limb pain&lt;/xml-fragment&gt;</div>"
          }
        }, {
          "title": "Pathways Assessment",
          "text": {
            "status": "generated",
            "div": "<div xmlns=\"http://www.w3.org/1999/xhtml\">&lt;xml-fragment mediaType=&quot;text/x-hl7-text+xml&quot;&gt;\n                                                    &lt;urn:br xmlns:urn=&quot;urn:hl7-org:v3&quot;/&gt;\n                                                    &lt;urn:br xmlns:urn=&quot;urn:hl7-org:v3&quot;/&gt;\n                                                    &lt;urn:br xmlns:urn=&quot;urn:hl7-org:v3&quot;/&gt;\n                                                    &lt;urn:br xmlns:urn=&quot;urn:hl7-org:v3&quot;/&gt;\n                                                    &lt;urn:br xmlns:urn=&quot;urn:hl7-org:v3&quot;/&gt;\n                                                    &lt;urn:br xmlns:urn=&quot;urn:hl7-org:v3&quot;/&gt;\n                                                    &lt;urn:br xmlns:urn=&quot;urn:hl7-org:v3&quot;/&gt;\n                                                    &lt;urn:br xmlns:urn=&quot;urn:hl7-org:v3&quot;/&gt;\n                                                    &lt;urn:br xmlns:urn=&quot;urn:hl7-org:v3&quot;/&gt;\n                                                    &lt;urn:br xmlns:urn=&quot;urn:hl7-org:v3&quot;/&gt;\n                                                    &lt;urn:br xmlns:urn=&quot;urn:hl7-org:v3&quot;/&gt;\n                                                    &lt;urn:br xmlns:urn=&quot;urn:hl7-org:v3&quot;/&gt;\n                                                    &lt;urn:br xmlns:urn=&quot;urn:hl7-org:v3&quot;/&gt;\n                                                    &lt;urn:br xmlns:urn=&quot;urn:hl7-org:v3&quot;/&gt;\n                                                    &lt;urn:br xmlns:urn=&quot;urn:hl7-org:v3&quot;/&gt;\n                                                    &lt;urn:br xmlns:urn=&quot;urn:hl7-org:v3&quot;/&gt;\n                                                    &lt;urn:br xmlns:urn=&quot;urn:hl7-org:v3&quot;/&gt;\n                                                    &lt;urn:br xmlns:urn=&quot;urn:hl7-org:v3&quot;/&gt;An injury or health problem was the reason for the contact.Heavy bleeding had not occurred in the previous 2 hours.An injury or symptom relating to an injury was the main problem.User Comments: TESTThere was a minor injury (a bite or sting).User Comments: TESTPathway selected - Bites and StingsThe bite or sting was caused by an insect or spider.User Comments: TESTThe sting/bite had not occurred within the previous 6 hours.The individual had been stung less than 10 timesThe individual was not experiencing nausea and/or vomiting.The sting did not involve the eyes, mouth or limb.There was no insect/insect part remaining attached to the skinThere was very severe, deep pain.Instructions given were: The individual needs to contact a local service within 2 hours.Directory of Services referral: DO NOT BOOK APPOINTMENT - TESTING Whitchurch Minor Injury UnitAdvice given:\n                                                    Worsening\n                                                &lt;/xml-fragment&gt;</div>"
          }
        }, {
          "title": "Advice Given",
          "text": {
            "status": "generated",
            "div": "<div xmlns=\"http://www.w3.org/1999/xhtml\">&lt;xml-fragment mediaType=&quot;text/x-hl7-text+xml&quot;&gt;\n                                                    &lt;urn:br xmlns:urn=&quot;urn:hl7-org:v3&quot;/&gt;\n                                                    &lt;urn:br xmlns:urn=&quot;urn:hl7-org:v3&quot;/&gt;If there are any new symptoms, or if the condition gets worse, changes or you have any other concerns, call us back.&lt;/xml-fragment&gt;</div>"
          }
        }, {
          "title": "Special Patient Notes",
          "text": {
            "status": "generated",
            "div": "<div xmlns=\"http://www.w3.org/1999/xhtml\">&lt;xml-fragment mediaType=&quot;text/x-hl7-text+xml&quot;&gt;\n                                                    &lt;urn:content styleCode=&quot;bold&quot; xmlns:urn=&quot;urn:hl7-org:v3&quot;&gt;Note:&lt;/urn:content&gt;\n                                                    &lt;urn:br xmlns:urn=&quot;urn:hl7-org:v3&quot;/&gt;\n                                                    &lt;urn:content xmlns:urn=&quot;urn:hl7-org:v3&quot;&gt;TEST NOTE West Midlands Single Instance&lt;/urn:content&gt;\n                                                    &lt;urn:br xmlns:urn=&quot;urn:hl7-org:v3&quot;/&gt;\n                                                    &lt;urn:br xmlns:urn=&quot;urn:hl7-org:v3&quot;/&gt;Special Notes from an external system were flagged as being present for this patient.&lt;/xml-fragment&gt;</div>"
          }
        } ]
      }, {
        "title": "ReferralRequest",
        "entry": [ {
          "reference": "urn:uuid:4562c96c-6546-4f4e-a170-55416d6fa9b8"
        } ]
      }, {
        "title": "QuestionnaireResponse",
        "entry": [ {
          "reference": "urn:uuid:e79aeb9f-e70d-4452-a222-5cbf82be44cd"
        } ]
      }, {
        "title": "QuestionnaireResponse",
        "entry": [ {
          "reference": "urn:uuid:ecae4a84-55c1-4a25-b2af-215fe4521b0d"
        } ]
      }, {
        "title": "QuestionnaireResponse",
        "entry": [ {
          "reference": "urn:uuid:b49a9077-aa57-4ae4-a649-667bd5e38f0d"
        } ]
      }, {
        "title": "QuestionnaireResponse",
        "entry": [ {
          "reference": "urn:uuid:aea45873-3079-433d-a078-9a33a0fede21"
        } ]
      }, {
        "title": "QuestionnaireResponse",
        "entry": [ {
          "reference": "urn:uuid:cdb0a149-7cce-4a57-8fed-62fa90981aac"
        } ]
      }, {
        "title": "QuestionnaireResponse",
        "entry": [ {
          "reference": "urn:uuid:d59024da-6ddf-41e8-b10d-c1ecd5b6c478"
        } ]
      }, {
        "title": "QuestionnaireResponse",
        "entry": [ {
          "reference": "urn:uuid:7465a87c-5feb-4ad2-9ec3-41df600aba65"
        } ]
      }, {
        "title": "QuestionnaireResponse",
        "entry": [ {
          "reference": "urn:uuid:9bcd8bab-311f-4d77-9d8f-72a66ebe2087"
        } ]
      }, {
        "title": "QuestionnaireResponse",
        "entry": [ {
          "reference": "urn:uuid:b8d8ffd0-06bd-4731-b385-285fdd3262e3"
        } ]
      }, {
        "title": "QuestionnaireResponse",
        "entry": [ {
          "reference": "urn:uuid:31033b03-183c-4f06-a7f9-39e30f4ce5e6"
        } ]
      }, {
        "title": "QuestionnaireResponse",
        "entry": [ {
          "reference": "urn:uuid:325d0ed3-a7a2-4210-a2e1-b1dd06f2c225"
        } ]
      }, {
        "title": "QuestionnaireResponse",
        "entry": [ {
          "reference": "urn:uuid:e09630ef-e6e8-4b33-a96f-9437ce445522"
        } ]
      }, {
        "title": "QuestionnaireResponse",
        "entry": [ {
          "reference": "urn:uuid:c4d228c5-d97e-4663-9d5a-3111569f902a"
        } ]
      }, {
        "title": "QuestionnaireResponse",
        "entry": [ {
          "reference": "urn:uuid:ea31ec2c-71cd-4ac9-a67f-98259fe745ae"
        } ]
      }, {
        "title": "QuestionnaireResponse",
        "entry": [ {
          "reference": "urn:uuid:77762372-ecca-4b44-b453-17ac1315a8fe"
        } ]
      }, {
        "title": "QuestionnaireResponse",
        "entry": [ {
          "reference": "urn:uuid:7a06f6fc-99d2-46f7-ae61-bbdcdfe1f967"
        } ]
      }, {
        "title": "QuestionnaireResponse",
        "entry": [ {
          "reference": "urn:uuid:bbcc9017-50df-4bfc-85b3-950b6dcf28de"
        } ]
      }, {
        "title": "QuestionnaireResponse",
        "entry": [ {
          "reference": "urn:uuid:b3f83f0b-c3a6-4e05-92b5-04c8775f8e7f"
        } ]
      }, {
        "title": "QuestionnaireResponse",
        "entry": [ {
          "reference": "urn:uuid:cb03cc1e-5667-4b66-8cff-501ec2016398"
        } ]
      }, {
        "title": "QuestionnaireResponse",
        "entry": [ {
          "reference": "urn:uuid:105562ea-8d4b-4f06-bd25-624ac277dcf9"
        } ]
      }, {
        "title": "QuestionnaireResponse",
        "entry": [ {
          "reference": "urn:uuid:c2c74c2c-9127-4698-bd46-b3615163bacd"
        } ]
      }, {
        "title": "QuestionnaireResponse",
        "entry": [ {
          "reference": "urn:uuid:5b4b263e-343a-41f7-9184-c020235b2f4e"
        } ]
      } ]
    }
  }, {
    "fullUrl": "urn:uuid:bc407c50-e3eb-4886-b14e-1fecc230132d",
    "resource": {
      "resourceType": "Consent",
      "id": "bc407c50-e3eb-4886-b14e-1fecc230132d",
      "identifier": {
        "use": "usual",
        "value": "499BEC45-8F01-498C-A61F-B8AC124ED50E"
      },
      "status": "active",
      "patient": {
        "reference": "urn:uuid:55de463b-4f9b-4c2c-be70-86d468b2e9ec"
      },
      "period": {
        "start": "2025-10-30T09:45:22+00:00"
      },
      "consentingParty": [ {
        "reference": "urn:uuid:55de463b-4f9b-4c2c-be70-86d468b2e9ec"
      } ],
      "action": [ {
        "coding": [ {
          "system": "http://snomed.info/sct",
          "code": "425691002",
          "display": "Consent given for electronic record sharing"
        } ],
        "text": "Consent given for electronic record sharing"
      } ],
      "organization": [ {
        "reference": "urn:uuid:26ed286a-1abd-44ed-9bdf-ca52a83f302b"
      } ],
      "policyRule": "http://hl7.org/fhir/ConsentPolicy/opt-out",
      "data": [ {
        "meaning": "related",
        "reference": {
          "reference": "urn:uuid:c9aa178a-c411-4fb4-91c8-8a8d9661cb61"
        }
      } ]
    }
  }, {
    "fullUrl": "urn:uuid:998662f4-e9d8-44d6-9d88-a35fd7d43602",
    "resource": {
      "resourceType": "Condition",
      "id": "998662f4-e9d8-44d6-9d88-a35fd7d43602",
      "clinicalStatus": "active",
      "verificationStatus": "unknown",
      "subject": {
        "reference": "urn:uuid:55de463b-4f9b-4c2c-be70-86d468b2e9ec"
      },
      "context": {
        "reference": "urn:uuid:c9aa178a-c411-4fb4-91c8-8a8d9661cb61"
      },
      "evidence": [ {
        "detail": [ {
          "reference": "urn:uuid:e79aeb9f-e70d-4452-a222-5cbf82be44cd"
        } ]
      }, {
        "detail": [ {
          "reference": "urn:uuid:ecae4a84-55c1-4a25-b2af-215fe4521b0d"
        } ]
      }, {
        "detail": [ {
          "reference": "urn:uuid:b49a9077-aa57-4ae4-a649-667bd5e38f0d"
        } ]
      }, {
        "detail": [ {
          "reference": "urn:uuid:aea45873-3079-433d-a078-9a33a0fede21"
        } ]
      }, {
        "detail": [ {
          "reference": "urn:uuid:cdb0a149-7cce-4a57-8fed-62fa90981aac"
        } ]
      }, {
        "detail": [ {
          "reference": "urn:uuid:d59024da-6ddf-41e8-b10d-c1ecd5b6c478"
        } ]
      }, {
        "detail": [ {
          "reference": "urn:uuid:7465a87c-5feb-4ad2-9ec3-41df600aba65"
        } ]
      }, {
        "detail": [ {
          "reference": "urn:uuid:9bcd8bab-311f-4d77-9d8f-72a66ebe2087"
        } ]
      }, {
        "detail": [ {
          "reference": "urn:uuid:b8d8ffd0-06bd-4731-b385-285fdd3262e3"
        } ]
      }, {
        "detail": [ {
          "reference": "urn:uuid:31033b03-183c-4f06-a7f9-39e30f4ce5e6"
        } ]
      }, {
        "detail": [ {
          "reference": "urn:uuid:325d0ed3-a7a2-4210-a2e1-b1dd06f2c225"
        } ]
      }, {
        "detail": [ {
          "reference": "urn:uuid:e09630ef-e6e8-4b33-a96f-9437ce445522"
        } ]
      }, {
        "detail": [ {
          "reference": "urn:uuid:c4d228c5-d97e-4663-9d5a-3111569f902a"
        } ]
      }, {
        "detail": [ {
          "reference": "urn:uuid:ea31ec2c-71cd-4ac9-a67f-98259fe745ae"
        } ]
      }, {
        "detail": [ {
          "reference": "urn:uuid:77762372-ecca-4b44-b453-17ac1315a8fe"
        } ]
      }, {
        "detail": [ {
          "reference": "urn:uuid:7a06f6fc-99d2-46f7-ae61-bbdcdfe1f967"
        } ]
      }, {
        "detail": [ {
          "reference": "urn:uuid:bbcc9017-50df-4bfc-85b3-950b6dcf28de"
        } ]
      }, {
        "detail": [ {
          "reference": "urn:uuid:b3f83f0b-c3a6-4e05-92b5-04c8775f8e7f"
        } ]
      }, {
        "detail": [ {
          "reference": "urn:uuid:cb03cc1e-5667-4b66-8cff-501ec2016398"
        } ]
      }, {
        "detail": [ {
          "reference": "urn:uuid:105562ea-8d4b-4f06-bd25-624ac277dcf9"
        } ]
      }, {
        "detail": [ {
          "reference": "urn:uuid:c2c74c2c-9127-4698-bd46-b3615163bacd"
        } ]
      }, {
        "detail": [ {
          "reference": "urn:uuid:5b4b263e-343a-41f7-9184-c020235b2f4e"
        } ]
      } ]
    }
  }, {
    "fullUrl": "urn:uuid:e79aeb9f-e70d-4452-a222-5cbf82be44cd",
    "resource": {
      "resourceType": "QuestionnaireResponse",
      "id": "e79aeb9f-e70d-4452-a222-5cbf82be44cd",
      "identifier": {
        "value": "1193164"
      },
      "questionnaire": {
        "reference": "urn:uuid:5205fc41-982d-465c-81fe-74c0a6a7ebe0"
      },
      "status": "completed",
      "subject": {
        "reference": "urn:uuid:55de463b-4f9b-4c2c-be70-86d468b2e9ec"
      },
      "context": {
        "reference": "urn:uuid:c9aa178a-c411-4fb4-91c8-8a8d9661cb61"
      },
      "authored": "2020-10-30T09:45:23+00:00",
      "item": [ {
        "linkId": "Tx220074",
        "text": "What is the reason for the contact?",
        "answer": [ {
          "valueString": "an injury or other health problem"
        } ]
      } ]
    }
  }, {
    "fullUrl": "urn:uuid:5205fc41-982d-465c-81fe-74c0a6a7ebe0",
    "resource": {
      "resourceType": "Questionnaire",
      "id": "5205fc41-982d-465c-81fe-74c0a6a7ebe0",
      "identifier": [ {
        "value": "1193164"
      } ],
      "version": "2020-10-30T09:45:23.026Z",
      "status": "active",
      "experimental": false,
      "date": "2020-10-30T09:45:23+00:00",
      "publisher": "User ID: 'HOLDENR' User name: 'Rachael Holden' User skill set: 'T3'",
      "lastReviewDate": "2020-10-30",
      "subjectType": [ "Patient" ],
      "item": [ {
        "linkId": "1193164",
        "prefix": "5",
        "text": "What is the reason for the contact?",
        "type": "choice",
        "required": true,
        "repeats": false,
        "option": [ {
          "valueString": "an injury or other health problem, Selected: true"
        }, {
          "valueString": "labour or childbirth, Selected: false"
        }, {
          "valueString": "a need to access another healthcare service, Selected: false"
        }, {
          "valueString": "a healthcare professional requesting contact with another clinician, Selected: false"
        }, {
          "valueString": "a report of results or tests, Selected: false"
        }, {
          "valueString": "a possible failure of contraception, Selected: false"
        }, {
          "valueString": "more, Selected: false"
        } ]
      } ]
    }
  }, {
    "fullUrl": "urn:uuid:ecae4a84-55c1-4a25-b2af-215fe4521b0d",
    "resource": {
      "resourceType": "QuestionnaireResponse",
      "id": "ecae4a84-55c1-4a25-b2af-215fe4521b0d",
      "identifier": {
        "value": "1193164"
      },
      "questionnaire": {
        "reference": "urn:uuid:c09783f3-346f-4fca-aaf3-42c2cb2e9e31"
      },
      "status": "completed",
      "subject": {
        "reference": "urn:uuid:55de463b-4f9b-4c2c-be70-86d468b2e9ec"
      },
      "context": {
        "reference": "urn:uuid:c9aa178a-c411-4fb4-91c8-8a8d9661cb61"
      },
      "authored": "2020-10-30T09:45:23+00:00",
      "item": [ {
        "linkId": "Tx221807",
        "text": "STRING:to'Immediatethreatstolife(SPA/OOHversion)'-'Majorbloodloss'stem",
        "answer": [ {
          "valueString": "\"present\""
        } ]
      } ]
    }
  }, {
    "fullUrl": "urn:uuid:c09783f3-346f-4fca-aaf3-42c2cb2e9e31",
    "resource": {
      "resourceType": "Questionnaire",
      "id": "c09783f3-346f-4fca-aaf3-42c2cb2e9e31",
      "identifier": [ {
        "value": "1193164"
      } ],
      "version": "2020-10-30T09:45:23.026Z",
      "status": "active",
      "experimental": false,
      "date": "2020-10-30T09:45:23+00:00",
      "publisher": "User ID: 'HOLDENR' User name: 'Rachael Holden' User skill set: 'T3'",
      "lastReviewDate": "2020-10-30",
      "subjectType": [ "Patient" ],
      "item": [ {
        "linkId": "1193164",
        "prefix": "200",
        "text": "STRING:to'Immediatethreatstolife(SPA/OOHversion)'-'Majorbloodloss'stem",
        "type": "choice",
        "required": true,
        "repeats": false,
        "option": [ {
          "valueString": "\"present\", Selected: true"
        } ]
      } ]
    }
  }, {
    "fullUrl": "urn:uuid:b49a9077-aa57-4ae4-a649-667bd5e38f0d",
    "resource": {
      "resourceType": "QuestionnaireResponse",
      "id": "b49a9077-aa57-4ae4-a649-667bd5e38f0d",
      "identifier": {
        "value": "1193164"
      },
      "questionnaire": {
        "reference": "urn:uuid:ef4912b2-8b80-4dda-abc0-410bc497a4fa"
      },
      "status": "completed",
      "subject": {
        "reference": "urn:uuid:55de463b-4f9b-4c2c-be70-86d468b2e9ec"
      },
      "context": {
        "reference": "urn:uuid:c9aa178a-c411-4fb4-91c8-8a8d9661cb61"
      },
      "authored": "2020-10-30T09:45:23+00:00"
    }
  }, {
    "fullUrl": "urn:uuid:ef4912b2-8b80-4dda-abc0-410bc497a4fa",
    "resource": {
      "resourceType": "Questionnaire",
      "id": "ef4912b2-8b80-4dda-abc0-410bc497a4fa",
      "identifier": [ {
        "value": "1193164"
      } ],
      "version": "2020-10-30T09:45:23.026Z",
      "status": "active",
      "experimental": false,
      "date": "2020-10-30T09:45:23+00:00",
      "publisher": "User ID: 'HOLDENR' User name: 'Rachael Holden' User skill set: 'T3'",
      "lastReviewDate": "2020-10-30",
      "subjectType": [ "Patient" ]
    }
  }, {
    "fullUrl": "urn:uuid:aea45873-3079-433d-a078-9a33a0fede21",
    "resource": {
      "resourceType": "QuestionnaireResponse",
      "id": "aea45873-3079-433d-a078-9a33a0fede21",
      "identifier": {
        "value": "1193164"
      },
      "questionnaire": {
        "reference": "urn:uuid:f1547c51-a43f-48ab-8171-5a647375169f"
      },
      "status": "completed",
      "subject": {
        "reference": "urn:uuid:55de463b-4f9b-4c2c-be70-86d468b2e9ec"
      },
      "context": {
        "reference": "urn:uuid:c9aa178a-c411-4fb4-91c8-8a8d9661cb61"
      },
      "authored": "2020-10-30T09:45:23+00:00",
      "item": [ {
        "linkId": "Tx221799",
        "text": "STRING:injury,illnessorlabourestablishedinEntryFlow",
        "answer": [ {
          "valueString": "\"present\""
        } ]
      } ]
    }
  }, {
    "fullUrl": "urn:uuid:f1547c51-a43f-48ab-8171-5a647375169f",
    "resource": {
      "resourceType": "Questionnaire",
      "id": "f1547c51-a43f-48ab-8171-5a647375169f",
      "identifier": [ {
        "value": "1193164"
      } ],
      "version": "2020-10-30T09:45:23.026Z",
      "status": "active",
      "experimental": false,
      "date": "2020-10-30T09:45:23+00:00",
      "publisher": "User ID: 'HOLDENR' User name: 'Rachael Holden' User skill set: 'T3'",
      "lastReviewDate": "2020-10-30",
      "subjectType": [ "Patient" ],
      "item": [ {
        "linkId": "1193164",
        "prefix": "0",
        "text": "STRING:injury,illnessorlabourestablishedinEntryFlow",
        "type": "choice",
        "required": true,
        "repeats": false,
        "option": [ {
          "valueString": "\"present\", Selected: true"
        } ]
      } ]
    }
  }, {
    "fullUrl": "urn:uuid:cdb0a149-7cce-4a57-8fed-62fa90981aac",
    "resource": {
      "resourceType": "QuestionnaireResponse",
      "id": "cdb0a149-7cce-4a57-8fed-62fa90981aac",
      "identifier": {
        "value": "1193164"
      },
      "questionnaire": {
        "reference": "urn:uuid:f7622835-d9bf-4be5-949d-f0ce39c3e7da"
      },
      "status": "completed",
      "subject": {
        "reference": "urn:uuid:55de463b-4f9b-4c2c-be70-86d468b2e9ec"
      },
      "context": {
        "reference": "urn:uuid:c9aa178a-c411-4fb4-91c8-8a8d9661cb61"
      },
      "authored": "2020-10-30T09:45:23+00:00",
      "item": [ {
        "linkId": "Tx224120",
        "text": "Have you been bleeding RED BLOOD very heavily IN THE LAST 2 HOURS?",
        "answer": [ {
          "valueString": "no"
        } ]
      } ]
    }
  }, {
    "fullUrl": "urn:uuid:f7622835-d9bf-4be5-949d-f0ce39c3e7da",
    "resource": {
      "resourceType": "Questionnaire",
      "id": "f7622835-d9bf-4be5-949d-f0ce39c3e7da",
      "identifier": [ {
        "value": "1193164"
      } ],
      "version": "2020-10-30T09:45:23.026Z",
      "status": "active",
      "experimental": false,
      "date": "2020-10-30T09:45:23+00:00",
      "publisher": "User ID: 'HOLDENR' User name: 'Rachael Holden' User skill set: 'T3'",
      "lastReviewDate": "2020-10-30",
      "subjectType": [ "Patient" ],
      "item": [ {
        "linkId": "1193164",
        "prefix": "10100",
        "text": "Have you been bleeding RED BLOOD very heavily IN THE LAST 2 HOURS?",
        "type": "choice",
        "required": true,
        "repeats": false,
        "option": [ {
          "valueString": "yes, Selected: false"
        }, {
          "valueString": "not sure, Selected: false"
        }, {
          "valueString": "no, Selected: true"
        } ]
      } ]
    }
  }, {
    "fullUrl": "urn:uuid:d59024da-6ddf-41e8-b10d-c1ecd5b6c478",
    "resource": {
      "resourceType": "QuestionnaireResponse",
      "id": "d59024da-6ddf-41e8-b10d-c1ecd5b6c478",
      "identifier": {
        "value": "1193164"
      },
      "questionnaire": {
        "reference": "urn:uuid:8297e30a-0543-4636-be57-ecd6e9bf1e0d"
      },
      "status": "completed",
      "subject": {
        "reference": "urn:uuid:55de463b-4f9b-4c2c-be70-86d468b2e9ec"
      },
      "context": {
        "reference": "urn:uuid:c9aa178a-c411-4fb4-91c8-8a8d9661cb61"
      },
      "authored": "2020-10-30T09:45:23+00:00",
      "item": [ {
        "linkId": "Tx221343",
        "text": "SocialConcernsExcluded",
        "answer": [ {
          "valueString": "==\"present\""
        } ]
      } ]
    }
  }, {
    "fullUrl": "urn:uuid:8297e30a-0543-4636-be57-ecd6e9bf1e0d",
    "resource": {
      "resourceType": "Questionnaire",
      "id": "8297e30a-0543-4636-be57-ecd6e9bf1e0d",
      "identifier": [ {
        "value": "1193164"
      } ],
      "version": "2020-10-30T09:45:23.026Z",
      "status": "active",
      "experimental": false,
      "date": "2020-10-30T09:45:23+00:00",
      "publisher": "User ID: 'HOLDENR' User name: 'Rachael Holden' User skill set: 'T3'",
      "lastReviewDate": "2020-10-30",
      "subjectType": [ "Patient" ],
      "item": [ {
        "linkId": "1193164",
        "prefix": "1100",
        "text": "SocialConcernsExcluded",
        "type": "choice",
        "required": true,
        "repeats": false,
        "option": [ {
          "valueString": "==\"present\", Selected: true"
        }, {
          "valueString": "*, Selected: false"
        } ]
      } ]
    }
  }, {
    "fullUrl": "urn:uuid:7465a87c-5feb-4ad2-9ec3-41df600aba65",
    "resource": {
      "resourceType": "QuestionnaireResponse",
      "id": "7465a87c-5feb-4ad2-9ec3-41df600aba65",
      "identifier": {
        "value": "1193164"
      },
      "questionnaire": {
        "reference": "urn:uuid:e96cc401-813a-4f05-959e-aa7e4724589b"
      },
      "status": "completed",
      "subject": {
        "reference": "urn:uuid:55de463b-4f9b-4c2c-be70-86d468b2e9ec"
      },
      "context": {
        "reference": "urn:uuid:c9aa178a-c411-4fb4-91c8-8a8d9661cb61"
      },
      "authored": "2020-10-30T09:45:23+00:00",
      "item": [ {
        "linkId": "Tx130011",
        "text": "What is the main problem?",
        "answer": [ {
          "valueString": "injury (specify)"
        } ]
      } ]
    }
  }, {
    "fullUrl": "urn:uuid:e96cc401-813a-4f05-959e-aa7e4724589b",
    "resource": {
      "resourceType": "Questionnaire",
      "id": "e96cc401-813a-4f05-959e-aa7e4724589b",
      "identifier": [ {
        "value": "1193164"
      } ],
      "version": "2020-10-30T09:45:23.026Z",
      "status": "active",
      "experimental": false,
      "date": "2020-10-30T09:45:23+00:00",
      "publisher": "User ID: 'HOLDENR' User name: 'Rachael Holden' User skill set: 'T3'",
      "lastReviewDate": "2020-10-30",
      "subjectType": [ "Patient" ],
      "item": [ {
        "linkId": "1193164",
        "prefix": "2300",
        "text": "What is the main problem?",
        "type": "choice",
        "required": true,
        "repeats": false,
        "option": [ {
          "valueString": "the individual has been told to follow a particular course of action (specify), Selected: false"
        }, {
          "valueString": "the individual is an identified frequent caller, Selected: false"
        }, {
          "valueString": "injury (specify), Selected: true"
        }, {
          "valueString": "illness or other health problem (specify), Selected: false"
        }, {
          "valueString": "child protection/vulnerable adult concern, Selected: false"
        }, {
          "valueString": "social or domestic emergency, Selected: false"
        }, {
          "valueString": "the environment potentially poses an immediate threat to life (specify), Selected: false"
        } ]
      } ]
    }
  }, {
    "fullUrl": "urn:uuid:9bcd8bab-311f-4d77-9d8f-72a66ebe2087",
    "resource": {
      "resourceType": "QuestionnaireResponse",
      "id": "9bcd8bab-311f-4d77-9d8f-72a66ebe2087",
      "identifier": {
        "value": "1193164"
      },
      "questionnaire": {
        "reference": "urn:uuid:4d4d6236-c371-4b67-9c9e-f4d0d1f4a4fb"
      },
      "status": "completed",
      "subject": {
        "reference": "urn:uuid:55de463b-4f9b-4c2c-be70-86d468b2e9ec"
      },
      "context": {
        "reference": "urn:uuid:c9aa178a-c411-4fb4-91c8-8a8d9661cb61"
      },
      "authored": "2020-10-30T09:45:23+00:00",
      "item": [ {
        "linkId": "Tx224119",
        "text": "FROM WHAT YOU HAVE HEARD IS THIS A MINOR INJURY?",
        "answer": [ {
          "valueString": "yes - a minor bite or sting (specify)"
        } ]
      } ]
    }
  }, {
    "fullUrl": "urn:uuid:4d4d6236-c371-4b67-9c9e-f4d0d1f4a4fb",
    "resource": {
      "resourceType": "Questionnaire",
      "id": "4d4d6236-c371-4b67-9c9e-f4d0d1f4a4fb",
      "identifier": [ {
        "value": "1193164"
      } ],
      "version": "2020-10-30T09:45:23.026Z",
      "status": "active",
      "experimental": false,
      "date": "2020-10-30T09:45:23+00:00",
      "publisher": "User ID: 'HOLDENR' User name: 'Rachael Holden' User skill set: 'T3'",
      "lastReviewDate": "2020-10-30",
      "subjectType": [ "Patient" ],
      "item": [ {
        "linkId": "1193164",
        "prefix": "15000",
        "text": "FROM WHAT YOU HAVE HEARD IS THIS A MINOR INJURY?",
        "type": "choice",
        "required": true,
        "repeats": false,
        "option": [ {
          "valueString": "yes - a minor bite or sting (specify), Selected: true"
        }, {
          "valueString": "yes - a scratch, graze or minor wound, Selected: false"
        }, {
          "valueString": "yes - skin minor foreign body or skin glued, Selected: false"
        }, {
          "valueString": "yes - trauma blisters, Selected: false"
        }, {
          "valueString": "yes - a single finger or toe injury, Selected: false"
        }, {
          "valueString": "not sure, Selected: false"
        }, {
          "valueString": "no, Selected: false"
        } ]
      } ]
    }
  }, {
    "fullUrl": "urn:uuid:b8d8ffd0-06bd-4731-b385-285fdd3262e3",
    "resource": {
      "resourceType": "QuestionnaireResponse",
      "id": "b8d8ffd0-06bd-4731-b385-285fdd3262e3",
      "identifier": {
        "value": "1193164"
      },
      "questionnaire": {
        "reference": "urn:uuid:1b0fc498-8a37-4a95-a5a4-3e5e7cfd449e"
      },
      "status": "completed",
      "subject": {
        "reference": "urn:uuid:55de463b-4f9b-4c2c-be70-86d468b2e9ec"
      },
      "context": {
        "reference": "urn:uuid:c9aa178a-c411-4fb4-91c8-8a8d9661cb61"
      },
      "authored": "2020-10-30T09:45:23+00:00",
      "item": [ {
        "linkId": "Tx225125",
        "text": "SYSTEM_INJURYMODULE",
        "answer": [ {
          "valueString": "==\"injurymodule\""
        } ]
      } ]
    }
  }, {
    "fullUrl": "urn:uuid:1b0fc498-8a37-4a95-a5a4-3e5e7cfd449e",
    "resource": {
      "resourceType": "Questionnaire",
      "id": "1b0fc498-8a37-4a95-a5a4-3e5e7cfd449e",
      "identifier": [ {
        "value": "1193164"
      } ],
      "version": "2020-10-30T09:45:23.026Z",
      "status": "active",
      "experimental": false,
      "date": "2020-10-30T09:45:23+00:00",
      "publisher": "User ID: 'HOLDENR' User name: 'Rachael Holden' User skill set: 'T3'",
      "lastReviewDate": "2020-10-30",
      "subjectType": [ "Patient" ],
      "item": [ {
        "linkId": "1193164",
        "prefix": "23700",
        "text": "SYSTEM_INJURYMODULE",
        "type": "choice",
        "required": true,
        "repeats": false,
        "option": [ {
          "valueString": "==\"injurymodule\", Selected: true"
        }, {
          "valueString": "*, Selected: false"
        } ]
      } ]
    }
  }, {
    "fullUrl": "urn:uuid:31033b03-183c-4f06-a7f9-39e30f4ce5e6",
    "resource": {
      "resourceType": "QuestionnaireResponse",
      "id": "31033b03-183c-4f06-a7f9-39e30f4ce5e6",
      "identifier": {
        "value": "1193164"
      },
      "questionnaire": {
        "reference": "urn:uuid:65ef7d7c-7bb1-430d-8e01-d27112ef6a6d"
      },
      "status": "completed",
      "subject": {
        "reference": "urn:uuid:55de463b-4f9b-4c2c-be70-86d468b2e9ec"
      },
      "context": {
        "reference": "urn:uuid:c9aa178a-c411-4fb4-91c8-8a8d9661cb61"
      },
      "authored": "2020-10-30T09:45:23+00:00"
    }
  }, {
    "fullUrl": "urn:uuid:65ef7d7c-7bb1-430d-8e01-d27112ef6a6d",
    "resource": {
      "resourceType": "Questionnaire",
      "id": "65ef7d7c-7bb1-430d-8e01-d27112ef6a6d",
      "identifier": [ {
        "value": "1193164"
      } ],
      "version": "2020-10-30T09:45:23.026Z",
      "status": "active",
      "experimental": false,
      "date": "2020-10-30T09:45:23+00:00",
      "publisher": "User ID: 'HOLDENR' User name: 'Rachael Holden' User skill set: 'T3'",
      "lastReviewDate": "2020-10-30",
      "subjectType": [ "Patient" ]
    }
  }, {
    "fullUrl": "urn:uuid:325d0ed3-a7a2-4210-a2e1-b1dd06f2c225",
    "resource": {
      "resourceType": "QuestionnaireResponse",
      "id": "325d0ed3-a7a2-4210-a2e1-b1dd06f2c225",
      "identifier": {
        "value": "1193164"
      },
      "questionnaire": {
        "reference": "urn:uuid:fdbc61fc-878c-4955-83ed-77612a9b9326"
      },
      "status": "completed",
      "subject": {
        "reference": "urn:uuid:55de463b-4f9b-4c2c-be70-86d468b2e9ec"
      },
      "context": {
        "reference": "urn:uuid:c9aa178a-c411-4fb4-91c8-8a8d9661cb61"
      },
      "authored": "2020-10-30T09:45:23+00:00",
      "item": [ {
        "linkId": "Tx3529",
        "text": "WHAT WAS THE CAUSE?",
        "answer": [ {
          "valueString": "an insect or spider (specify if known)"
        } ]
      } ]
    }
  }, {
    "fullUrl": "urn:uuid:fdbc61fc-878c-4955-83ed-77612a9b9326",
    "resource": {
      "resourceType": "Questionnaire",
      "id": "fdbc61fc-878c-4955-83ed-77612a9b9326",
      "identifier": [ {
        "value": "1193164"
      } ],
      "version": "2020-10-30T09:45:23.026Z",
      "status": "active",
      "experimental": false,
      "date": "2020-10-30T09:45:23+00:00",
      "publisher": "User ID: 'HOLDENR' User name: 'Rachael Holden' User skill set: 'T3'",
      "lastReviewDate": "2020-10-30",
      "subjectType": [ "Patient" ],
      "item": [ {
        "linkId": "1193164",
        "prefix": "0",
        "text": "WHAT WAS THE CAUSE?",
        "type": "choice",
        "required": true,
        "repeats": false,
        "option": [ {
          "valueString": "a person, Selected: false"
        }, {
          "valueString": "an animal (specify if known), Selected: false"
        }, {
          "valueString": "a snake (specify if known), Selected: false"
        }, {
          "valueString": "an insect or spider (specify if known), Selected: true"
        }, {
          "valueString": "stung by a water creature (specify if known), Selected: false"
        }, {
          "valueString": "bitten by a water creature (specify if known), Selected: false"
        }, {
          "valueString": "not sure, Selected: false"
        } ]
      } ]
    }
  }, {
    "fullUrl": "urn:uuid:e09630ef-e6e8-4b33-a96f-9437ce445522",
    "resource": {
      "resourceType": "QuestionnaireResponse",
      "id": "e09630ef-e6e8-4b33-a96f-9437ce445522",
      "identifier": {
        "value": "1193164"
      },
      "questionnaire": {
        "reference": "urn:uuid:7d3905b1-cc7e-4295-b167-00b39b5100b4"
      },
      "status": "completed",
      "subject": {
        "reference": "urn:uuid:55de463b-4f9b-4c2c-be70-86d468b2e9ec"
      },
      "context": {
        "reference": "urn:uuid:c9aa178a-c411-4fb4-91c8-8a8d9661cb61"
      },
      "authored": "2020-10-30T09:45:23+00:00"
    }
  }, {
    "fullUrl": "urn:uuid:7d3905b1-cc7e-4295-b167-00b39b5100b4",
    "resource": {
      "resourceType": "Questionnaire",
      "id": "7d3905b1-cc7e-4295-b167-00b39b5100b4",
      "identifier": [ {
        "value": "1193164"
      } ],
      "version": "2020-10-30T09:45:23.026Z",
      "status": "active",
      "experimental": false,
      "date": "2020-10-30T09:45:23+00:00",
      "publisher": "User ID: 'HOLDENR' User name: 'Rachael Holden' User skill set: 'T3'",
      "lastReviewDate": "2020-10-30",
      "subjectType": [ "Patient" ]
    }
  }, {
    "fullUrl": "urn:uuid:c4d228c5-d97e-4663-9d5a-3111569f902a",
    "resource": {
      "resourceType": "QuestionnaireResponse",
      "id": "c4d228c5-d97e-4663-9d5a-3111569f902a",
      "identifier": {
        "value": "1193164"
      },
      "questionnaire": {
        "reference": "urn:uuid:099fcf38-cb2f-4587-a8fc-c2bd5fa893db"
      },
      "status": "completed",
      "subject": {
        "reference": "urn:uuid:55de463b-4f9b-4c2c-be70-86d468b2e9ec"
      },
      "context": {
        "reference": "urn:uuid:c9aa178a-c411-4fb4-91c8-8a8d9661cb61"
      },
      "authored": "2020-10-30T09:45:23+00:00",
      "item": [ {
        "linkId": "Tx220302",
        "text": "Did it happen WITHIN THE LAST 6 HOURS?",
        "answer": [ {
          "valueString": "no"
        } ]
      } ]
    }
  }, {
    "fullUrl": "urn:uuid:099fcf38-cb2f-4587-a8fc-c2bd5fa893db",
    "resource": {
      "resourceType": "Questionnaire",
      "id": "099fcf38-cb2f-4587-a8fc-c2bd5fa893db",
      "identifier": [ {
        "value": "1193164"
      } ],
      "version": "2020-10-30T09:45:23.026Z",
      "status": "active",
      "experimental": false,
      "date": "2020-10-30T09:45:23+00:00",
      "publisher": "User ID: 'HOLDENR' User name: 'Rachael Holden' User skill set: 'T3'",
      "lastReviewDate": "2020-10-30",
      "subjectType": [ "Patient" ],
      "item": [ {
        "linkId": "1193164",
        "prefix": "0",
        "text": "Did it happen WITHIN THE LAST 6 HOURS?",
        "type": "choice",
        "required": true,
        "repeats": false,
        "option": [ {
          "valueString": "yes, Selected: false"
        }, {
          "valueString": "not sure, Selected: false"
        }, {
          "valueString": "no, Selected: true"
        } ]
      } ]
    }
  }, {
    "fullUrl": "urn:uuid:ea31ec2c-71cd-4ac9-a67f-98259fe745ae",
    "resource": {
      "resourceType": "QuestionnaireResponse",
      "id": "ea31ec2c-71cd-4ac9-a67f-98259fe745ae",
      "identifier": {
        "value": "1193164"
      },
      "questionnaire": {
        "reference": "urn:uuid:9512dad1-8896-4029-94d1-e736ca28d58e"
      },
      "status": "completed",
      "subject": {
        "reference": "urn:uuid:55de463b-4f9b-4c2c-be70-86d468b2e9ec"
      },
      "context": {
        "reference": "urn:uuid:c9aa178a-c411-4fb4-91c8-8a8d9661cb61"
      },
      "authored": "2020-10-30T09:45:23+00:00",
      "item": [ {
        "linkId": "Tx3543",
        "text": "Have you been stung 10 or more times?",
        "answer": [ {
          "valueString": "no"
        } ]
      } ]
    }
  }, {
    "fullUrl": "urn:uuid:9512dad1-8896-4029-94d1-e736ca28d58e",
    "resource": {
      "resourceType": "Questionnaire",
      "id": "9512dad1-8896-4029-94d1-e736ca28d58e",
      "identifier": [ {
        "value": "1193164"
      } ],
      "version": "2020-10-30T09:45:23.026Z",
      "status": "active",
      "experimental": false,
      "date": "2020-10-30T09:45:23+00:00",
      "publisher": "User ID: 'HOLDENR' User name: 'Rachael Holden' User skill set: 'T3'",
      "lastReviewDate": "2020-10-30",
      "subjectType": [ "Patient" ],
      "item": [ {
        "linkId": "1193164",
        "prefix": "2900",
        "text": "Have you been stung 10 or more times?",
        "type": "choice",
        "required": true,
        "repeats": false,
        "option": [ {
          "valueString": "yes, Selected: false"
        }, {
          "valueString": "not sure, Selected: false"
        }, {
          "valueString": "no, Selected: true"
        } ]
      } ]
    }
  }, {
    "fullUrl": "urn:uuid:77762372-ecca-4b44-b453-17ac1315a8fe",
    "resource": {
      "resourceType": "QuestionnaireResponse",
      "id": "77762372-ecca-4b44-b453-17ac1315a8fe",
      "identifier": {
        "value": "1193164"
      },
      "questionnaire": {
        "reference": "urn:uuid:7e991923-3ff6-4cfc-9bf1-e01cca90d8cb"
      },
      "status": "completed",
      "subject": {
        "reference": "urn:uuid:55de463b-4f9b-4c2c-be70-86d468b2e9ec"
      },
      "context": {
        "reference": "urn:uuid:c9aa178a-c411-4fb4-91c8-8a8d9661cb61"
      },
      "authored": "2020-10-30T09:45:23+00:00",
      "item": [ {
        "linkId": "Tx3557",
        "text": "Have you got nausea or vomiting now?",
        "answer": [ {
          "valueString": "no"
        } ]
      } ]
    }
  }, {
    "fullUrl": "urn:uuid:7e991923-3ff6-4cfc-9bf1-e01cca90d8cb",
    "resource": {
      "resourceType": "Questionnaire",
      "id": "7e991923-3ff6-4cfc-9bf1-e01cca90d8cb",
      "identifier": [ {
        "value": "1193164"
      } ],
      "version": "2020-10-30T09:45:23.026Z",
      "status": "active",
      "experimental": false,
      "date": "2020-10-30T09:45:23+00:00",
      "publisher": "User ID: 'HOLDENR' User name: 'Rachael Holden' User skill set: 'T3'",
      "lastReviewDate": "2020-10-30",
      "subjectType": [ "Patient" ],
      "item": [ {
        "linkId": "1193164",
        "prefix": "3000",
        "text": "Have you got nausea or vomiting now?",
        "type": "choice",
        "required": true,
        "repeats": false,
        "option": [ {
          "valueString": "yes, Selected: false"
        }, {
          "valueString": "not sure, Selected: false"
        }, {
          "valueString": "no, Selected: true"
        } ]
      } ]
    }
  }, {
    "fullUrl": "urn:uuid:7a06f6fc-99d2-46f7-ae61-bbdcdfe1f967",
    "resource": {
      "resourceType": "QuestionnaireResponse",
      "id": "7a06f6fc-99d2-46f7-ae61-bbdcdfe1f967",
      "identifier": {
        "value": "1193164"
      },
      "questionnaire": {
        "reference": "urn:uuid:203470ef-f3ba-45f3-bee7-6b014aae53bf"
      },
      "status": "completed",
      "subject": {
        "reference": "urn:uuid:55de463b-4f9b-4c2c-be70-86d468b2e9ec"
      },
      "context": {
        "reference": "urn:uuid:c9aa178a-c411-4fb4-91c8-8a8d9661cb61"
      },
      "authored": "2020-10-30T09:45:23+00:00",
      "item": [ {
        "linkId": "Tx3561",
        "text": "Have you been bitten or stung in any of these areas?",
        "answer": [ {
          "valueString": "no"
        } ]
      } ]
    }
  }, {
    "fullUrl": "urn:uuid:203470ef-f3ba-45f3-bee7-6b014aae53bf",
    "resource": {
      "resourceType": "Questionnaire",
      "id": "203470ef-f3ba-45f3-bee7-6b014aae53bf",
      "identifier": [ {
        "value": "1193164"
      } ],
      "version": "2020-10-30T09:45:23.026Z",
      "status": "active",
      "experimental": false,
      "date": "2020-10-30T09:45:23+00:00",
      "publisher": "User ID: 'HOLDENR' User name: 'Rachael Holden' User skill set: 'T3'",
      "lastReviewDate": "2020-10-30",
      "subjectType": [ "Patient" ],
      "item": [ {
        "linkId": "1193164",
        "prefix": "3900",
        "text": "Have you been bitten or stung in any of these areas?",
        "type": "choice",
        "required": true,
        "repeats": false,
        "option": [ {
          "valueString": "the eyeball, Selected: false"
        }, {
          "valueString": "inside the mouth or on the lips, Selected: false"
        }, {
          "valueString": "limb, Selected: false"
        }, {
          "valueString": "not sure, Selected: false"
        }, {
          "valueString": "no, Selected: true"
        } ]
      } ]
    }
  }, {
    "fullUrl": "urn:uuid:bbcc9017-50df-4bfc-85b3-950b6dcf28de",
    "resource": {
      "resourceType": "QuestionnaireResponse",
      "id": "bbcc9017-50df-4bfc-85b3-950b6dcf28de",
      "identifier": {
        "value": "1193164"
      },
      "questionnaire": {
        "reference": "urn:uuid:de935c1d-a4b7-4c02-a021-b234dcab6d0e"
      },
      "status": "completed",
      "subject": {
        "reference": "urn:uuid:55de463b-4f9b-4c2c-be70-86d468b2e9ec"
      },
      "context": {
        "reference": "urn:uuid:c9aa178a-c411-4fb4-91c8-8a8d9661cb61"
      },
      "authored": "2020-10-30T09:45:23+00:00",
      "item": [ {
        "linkId": "Tx3544",
        "text": "Is the insect or part of the insect still attached to the skin?",
        "answer": [ {
          "valueString": "no"
        } ]
      } ]
    }
  }, {
    "fullUrl": "urn:uuid:de935c1d-a4b7-4c02-a021-b234dcab6d0e",
    "resource": {
      "resourceType": "Questionnaire",
      "id": "de935c1d-a4b7-4c02-a021-b234dcab6d0e",
      "identifier": [ {
        "value": "1193164"
      } ],
      "version": "2020-10-30T09:45:23.026Z",
      "status": "active",
      "experimental": false,
      "date": "2020-10-30T09:45:23+00:00",
      "publisher": "User ID: 'HOLDENR' User name: 'Rachael Holden' User skill set: 'T3'",
      "lastReviewDate": "2020-10-30",
      "subjectType": [ "Patient" ],
      "item": [ {
        "linkId": "1193164",
        "prefix": "9400",
        "text": "Is the insect or part of the insect still attached to the skin?",
        "type": "choice",
        "required": true,
        "repeats": false,
        "option": [ {
          "valueString": "yes, Selected: false"
        }, {
          "valueString": "not sure, Selected: false"
        }, {
          "valueString": "no, Selected: true"
        } ]
      } ]
    }
  }, {
    "fullUrl": "urn:uuid:b3f83f0b-c3a6-4e05-92b5-04c8775f8e7f",
    "resource": {
      "resourceType": "QuestionnaireResponse",
      "id": "b3f83f0b-c3a6-4e05-92b5-04c8775f8e7f",
      "identifier": {
        "value": "1193164"
      },
      "questionnaire": {
        "reference": "urn:uuid:ad988caa-eac9-4af7-b730-838f1d2519a3"
      },
      "status": "completed",
      "subject": {
        "reference": "urn:uuid:55de463b-4f9b-4c2c-be70-86d468b2e9ec"
      },
      "context": {
        "reference": "urn:uuid:c9aa178a-c411-4fb4-91c8-8a8d9661cb61"
      },
      "authored": "2020-10-30T09:45:23+00:00",
      "item": [ {
        "linkId": "Tx1449",
        "text": "Have you got very severe pain deep inside the affected area?",
        "answer": [ {
          "valueString": "yes"
        } ]
      } ]
    }
  }, {
    "fullUrl": "urn:uuid:ad988caa-eac9-4af7-b730-838f1d2519a3",
    "resource": {
      "resourceType": "Questionnaire",
      "id": "ad988caa-eac9-4af7-b730-838f1d2519a3",
      "identifier": [ {
        "value": "1193164"
      } ],
      "version": "2020-10-30T09:45:23.026Z",
      "status": "active",
      "experimental": false,
      "date": "2020-10-30T09:45:23+00:00",
      "publisher": "User ID: 'HOLDENR' User name: 'Rachael Holden' User skill set: 'T3'",
      "lastReviewDate": "2020-10-30",
      "subjectType": [ "Patient" ],
      "item": [ {
        "linkId": "1193164",
        "prefix": "19700",
        "text": "Have you got very severe pain deep inside the affected area?",
        "type": "choice",
        "required": true,
        "repeats": false,
        "option": [ {
          "valueString": "yes, Selected: true"
        }, {
          "valueString": "not sure, Selected: false"
        }, {
          "valueString": "no, Selected: false"
        } ]
      } ]
    }
  }, {
    "fullUrl": "urn:uuid:cb03cc1e-5667-4b66-8cff-501ec2016398",
    "resource": {
      "resourceType": "QuestionnaireResponse",
      "id": "cb03cc1e-5667-4b66-8cff-501ec2016398",
      "identifier": {
        "value": "1193164"
      },
      "questionnaire": {
        "reference": "urn:uuid:ed169232-6e02-449b-94e9-61fa6aeeaa22"
      },
      "status": "completed",
      "subject": {
        "reference": "urn:uuid:55de463b-4f9b-4c2c-be70-86d468b2e9ec"
      },
      "context": {
        "reference": "urn:uuid:c9aa178a-c411-4fb4-91c8-8a8d9661cb61"
      },
      "authored": "2020-10-30T09:45:23+00:00",
      "item": [ {
        "linkId": "Tx221449",
        "text": "STRING:SDPCFullPrimaryCareassessmentandprescribingcapability",
        "answer": [ {
          "valueString": "\"PC full Primary Care assessment and prescribing capability\""
        } ]
      } ]
    }
  }, {
    "fullUrl": "urn:uuid:ed169232-6e02-449b-94e9-61fa6aeeaa22",
    "resource": {
      "resourceType": "Questionnaire",
      "id": "ed169232-6e02-449b-94e9-61fa6aeeaa22",
      "identifier": [ {
        "value": "1193164"
      } ],
      "version": "2020-10-30T09:45:23.026Z",
      "status": "active",
      "experimental": false,
      "date": "2020-10-30T09:45:23+00:00",
      "publisher": "User ID: 'HOLDENR' User name: 'Rachael Holden' User skill set: 'T3'",
      "lastReviewDate": "2020-10-30",
      "subjectType": [ "Patient" ],
      "item": [ {
        "linkId": "1193164",
        "prefix": "19900",
        "text": "STRING:SDPCFullPrimaryCareassessmentandprescribingcapability",
        "type": "choice",
        "required": true,
        "repeats": false,
        "option": [ {
          "valueString": "\"PC full Primary Care assessment and prescribing capability\", Selected: true"
        } ]
      } ]
    }
  }, {
    "fullUrl": "urn:uuid:105562ea-8d4b-4f06-bd25-624ac277dcf9",
    "resource": {
      "resourceType": "QuestionnaireResponse",
      "id": "105562ea-8d4b-4f06-bd25-624ac277dcf9",
      "identifier": {
        "value": "1193164"
      },
      "questionnaire": {
        "reference": "urn:uuid:bc2f39c3-ff05-4f4a-ad1f-db289af9eb23"
      },
      "status": "completed",
      "subject": {
        "reference": "urn:uuid:55de463b-4f9b-4c2c-be70-86d468b2e9ec"
      },
      "context": {
        "reference": "urn:uuid:c9aa178a-c411-4fb4-91c8-8a8d9661cb61"
      },
      "authored": "2020-10-30T09:45:23+00:00"
    }
  }, {
    "fullUrl": "urn:uuid:bc2f39c3-ff05-4f4a-ad1f-db289af9eb23",
    "resource": {
      "resourceType": "Questionnaire",
      "id": "bc2f39c3-ff05-4f4a-ad1f-db289af9eb23",
      "identifier": [ {
        "value": "1193164"
      } ],
      "version": "2020-10-30T09:45:23.026Z",
      "status": "active",
      "experimental": false,
      "date": "2020-10-30T09:45:23+00:00",
      "publisher": "User ID: 'HOLDENR' User name: 'Rachael Holden' User skill set: 'T3'",
      "lastReviewDate": "2020-10-30",
      "subjectType": [ "Patient" ]
    }
  }, {
    "fullUrl": "urn:uuid:c2c74c2c-9127-4698-bd46-b3615163bacd",
    "resource": {
      "resourceType": "QuestionnaireResponse",
      "id": "c2c74c2c-9127-4698-bd46-b3615163bacd",
      "identifier": {
        "value": "1193164"
      },
      "questionnaire": {
        "reference": "urn:uuid:ed4d1ae0-3efe-48a4-8ad9-2d23c811f4de"
      },
      "status": "completed",
      "subject": {
        "reference": "urn:uuid:55de463b-4f9b-4c2c-be70-86d468b2e9ec"
      },
      "context": {
        "reference": "urn:uuid:c9aa178a-c411-4fb4-91c8-8a8d9661cb61"
      },
      "authored": "2020-10-30T09:45:23+00:00"
    }
  }, {
    "fullUrl": "urn:uuid:ed4d1ae0-3efe-48a4-8ad9-2d23c811f4de",
    "resource": {
      "resourceType": "Questionnaire",
      "id": "ed4d1ae0-3efe-48a4-8ad9-2d23c811f4de",
      "identifier": [ {
        "value": "1193164"
      } ],
      "version": "2020-10-30T09:45:23.026Z",
      "status": "active",
      "experimental": false,
      "date": "2020-10-30T09:45:23+00:00",
      "publisher": "User ID: 'HOLDENR' User name: 'Rachael Holden' User skill set: 'T3'",
      "lastReviewDate": "2020-10-30",
      "subjectType": [ "Patient" ]
    }
  }, {
    "fullUrl": "urn:uuid:5b4b263e-343a-41f7-9184-c020235b2f4e",
    "resource": {
      "resourceType": "QuestionnaireResponse",
      "id": "5b4b263e-343a-41f7-9184-c020235b2f4e",
      "identifier": {
        "value": "1193164"
      },
      "questionnaire": {
        "reference": "urn:uuid:b6a17cb3-cf7a-4d13-834b-61ce75adcfea"
      },
      "status": "completed",
      "subject": {
        "reference": "urn:uuid:55de463b-4f9b-4c2c-be70-86d468b2e9ec"
      },
      "context": {
        "reference": "urn:uuid:c9aa178a-c411-4fb4-91c8-8a8d9661cb61"
      },
      "authored": "2020-10-30T09:45:23+00:00"
    }
  }, {
    "fullUrl": "urn:uuid:b6a17cb3-cf7a-4d13-834b-61ce75adcfea",
    "resource": {
      "resourceType": "Questionnaire",
      "id": "b6a17cb3-cf7a-4d13-834b-61ce75adcfea",
      "identifier": [ {
        "value": "1193164"
      } ],
      "version": "2020-10-30T09:45:23.026Z",
      "status": "active",
      "experimental": false,
      "date": "2020-10-30T09:45:23+00:00",
      "publisher": "User ID: 'HOLDENR' User name: 'Rachael Holden' User skill set: 'T3'",
      "lastReviewDate": "2020-10-30",
      "subjectType": [ "Patient" ]
    }
  }, {
    "fullUrl": "urn:uuid:2f56b4dd-5256-4102-a298-a1f1f4498b22",
    "resource": {
      "resourceType": "Observation",
      "id": "2f56b4dd-5256-4102-a298-a1f1f4498b22",
      "status": "final",
      "code": {
        "coding": [ {
          "system": "http://snomed.info/sct",
          "code": "33962009",
          "display": "Presenting complaint"
        } ]
      },
      "subject": {
        "reference": "urn:uuid:55de463b-4f9b-4c2c-be70-86d468b2e9ec"
      },
      "context": {
        "reference": "urn:uuid:c9aa178a-c411-4fb4-91c8-8a8d9661cb61"
      }
    }
  }, {
    "fullUrl": "urn:uuid:69a7f0e3-aa81-4031-80cf-a32bf94b0044",
    "resource": {
      "resourceType": "PractitionerRole",
      "id": "69a7f0e3-aa81-4031-80cf-a32bf94b0044",
      "practitioner": {
        "reference": "urn:uuid:36b110f7-61f7-4443-b1c9-b373a12246f2"
      },
      "organization": {
        "reference": "urn:uuid:aad53726-6026-423b-8ff0-0b694080323e"
      },
      "code": [ {
        "coding": [ {
          "system": "2.16.840.1.113883.2.1.3.2.4.17.339",
          "code": "DOCTOR",
          "display": "Doctor"
        } ]
      } ]
    }
  }, {
    "fullUrl": "urn:uuid:aad53726-6026-423b-8ff0-0b694080323e",
    "resource": {
      "resourceType": "Organization",
      "id": "aad53726-6026-423b-8ff0-0b694080323e",
      "identifier": [ {
        "value": "RYA06"
      } ],
      "name": "WMAS - Navigation Point Call Centre (West Midlands Single Instance)"
    }
  }, {
    "fullUrl": "urn:uuid:9c4b0cc4-0534-448f-acd3-346610317cb5",
    "resource": {
      "resourceType": "PractitionerRole",
      "id": "9c4b0cc4-0534-448f-acd3-346610317cb5",
      "practitioner": {
        "reference": "urn:uuid:f0aaf459-2859-4bf6-83e7-49a1e10ed690"
      },
      "organization": {
        "reference": "urn:uuid:331537c6-6862-4ffd-8f65-c05431cb6146"
      },
      "code": [ {
        "coding": [ {
          "system": "2.16.840.1.113883.2.1.3.2.4.17.196",
          "code": "R0010",
          "display": "Medical Director"
        } ]
      } ]
    }
  }, {
    "fullUrl": "urn:uuid:331537c6-6862-4ffd-8f65-c05431cb6146",
    "resource": {
      "resourceType": "Organization",
      "id": "331537c6-6862-4ffd-8f65-c05431cb6146",
      "identifier": [ {
        "value": "RYA06"
      } ],
      "name": "West Midlands Single Instance"
    }
  }, {
    "fullUrl": "urn:uuid:559c1214-f67b-411e-8baa-28ddc5b5f644",
    "resource": {
      "resourceType": "RelatedPerson",
      "id": "559c1214-f67b-411e-8baa-28ddc5b5f644",
      "patient": {
        "reference": "urn:uuid:55de463b-4f9b-4c2c-be70-86d468b2e9ec"
      },
      "relationship": {
        "coding": [ {
          "system": "http://hl7.org/fhir/v2/0131",
          "code": "C",
          "display": "Emergency Contact"
        } ]
      },
      "telecom": [ {
        "system": "phone",
        "value": "tel:01204428013"
      } ]
    }
  }, {
    "fullUrl": "urn:uuid:82d710a8-6adb-4cbb-bcac-4d28a11b962b",
    "resource": {
      "resourceType": "Device",
      "id": "82d710a8-6adb-4cbb-bcac-4d28a11b962b",
      "model": "111 Adaptor",
      "version": "0.8.0"
    }
  }, {
    "fullUrl": "urn:uuid:60f81971-d719-4370-a718-3383a6f38a4f",
    "resource": {
      "resourceType": "List",
      "id": "60f81971-d719-4370-a718-3383a6f38a4f",
      "status": "current",
      "mode": "working",
      "title": "111 Report List",
      "code": {
        "coding": [ {
          "system": "http://snomed.info/sct",
          "code": "225390008",
          "display": "Triage"
        } ]
      },
      "subject": {
        "reference": "urn:uuid:55de463b-4f9b-4c2c-be70-86d468b2e9ec"
      },
      "encounter": {
        "reference": "urn:uuid:c9aa178a-c411-4fb4-91c8-8a8d9661cb61"
      },
      "date": "2021-09-14T09:23:23+00:00",
      "source": {
        "reference": "urn:uuid:82d710a8-6adb-4cbb-bcac-4d28a11b962b"
      },
      "orderedBy": {
        "coding": [ {
          "system": "http://hl7.org/fhir/list-order",
          "code": "event-date",
          "display": "Sorted by Event Date"
        } ]
      },
      "entry": [ {
        "item": {
          "reference": "urn:uuid:f7a28d4b-d3f5-4b30-b3aa-1b46d0aa3d05"
        }
      }, {
        "item": {
          "reference": "urn:uuid:7529dd01-de71-42c7-9503-9f353c783628"
        }
      }, {
        "item": {
          "reference": "urn:uuid:36b110f7-61f7-4443-b1c9-b373a12246f2"
        }
      }, {
        "item": {
          "reference": "urn:uuid:998662f4-e9d8-44d6-9d88-a35fd7d43602"
        }
      }, {
        "item": {
          "reference": "urn:uuid:8762fbec-8991-401b-92aa-afe9efdc7367"
        }
      }, {
        "item": {
          "reference": "urn:uuid:aad53726-6026-423b-8ff0-0b694080323e"
        }
      }, {
        "item": {
          "reference": "urn:uuid:2f56b4dd-5256-4102-a298-a1f1f4498b22"
        }
      }, {
        "item": {
          "reference": "urn:uuid:26ed286a-1abd-44ed-9bdf-ca52a83f302b"
        }
      }, {
        "item": {
          "reference": "urn:uuid:331537c6-6862-4ffd-8f65-c05431cb6146"
        }
      }, {
        "item": {
          "reference": "urn:uuid:559c1214-f67b-411e-8baa-28ddc5b5f644"
        }
      }, {
        "item": {
          "reference": "urn:uuid:f0aaf459-2859-4bf6-83e7-49a1e10ed690"
        }
      }, {
        "item": {
          "reference": "urn:uuid:203470ef-f3ba-45f3-bee7-6b014aae53bf"
        }
      }, {
        "item": {
          "reference": "urn:uuid:cb03cc1e-5667-4b66-8cff-501ec2016398"
        }
      }, {
        "item": {
          "reference": "urn:uuid:e96cc401-813a-4f05-959e-aa7e4724589b"
        }
      }, {
        "item": {
          "reference": "urn:uuid:099fcf38-cb2f-4587-a8fc-c2bd5fa893db"
        }
      }, {
        "item": {
          "reference": "urn:uuid:b8d8ffd0-06bd-4731-b385-285fdd3262e3"
        }
      }, {
        "item": {
          "reference": "urn:uuid:7e991923-3ff6-4cfc-9bf1-e01cca90d8cb"
        }
      }, {
        "item": {
          "reference": "urn:uuid:7465a87c-5feb-4ad2-9ec3-41df600aba65"
        }
      }, {
        "item": {
          "reference": "urn:uuid:7d3905b1-cc7e-4295-b167-00b39b5100b4"
        }
      }, {
        "item": {
          "reference": "urn:uuid:4d4d6236-c371-4b67-9c9e-f4d0d1f4a4fb"
        }
      }, {
        "item": {
          "reference": "urn:uuid:ed169232-6e02-449b-94e9-61fa6aeeaa22"
        }
      }, {
        "item": {
          "reference": "urn:uuid:cdb0a149-7cce-4a57-8fed-62fa90981aac"
        }
      }, {
        "item": {
          "reference": "urn:uuid:ea31ec2c-71cd-4ac9-a67f-98259fe745ae"
        }
      }, {
        "item": {
          "reference": "urn:uuid:8297e30a-0543-4636-be57-ecd6e9bf1e0d"
        }
      }, {
        "item": {
          "reference": "urn:uuid:7a06f6fc-99d2-46f7-ae61-bbdcdfe1f967"
        }
      }, {
        "item": {
          "reference": "urn:uuid:9bcd8bab-311f-4d77-9d8f-72a66ebe2087"
        }
      }, {
        "item": {
          "reference": "urn:uuid:f7622835-d9bf-4be5-949d-f0ce39c3e7da"
        }
      }, {
        "item": {
          "reference": "urn:uuid:b49a9077-aa57-4ae4-a649-667bd5e38f0d"
        }
      }, {
        "item": {
          "reference": "urn:uuid:aea45873-3079-433d-a078-9a33a0fede21"
        }
      }, {
        "item": {
          "reference": "urn:uuid:de935c1d-a4b7-4c02-a021-b234dcab6d0e"
        }
      }, {
        "item": {
          "reference": "urn:uuid:5205fc41-982d-465c-81fe-74c0a6a7ebe0"
        }
      }, {
        "item": {
          "reference": "urn:uuid:e79aeb9f-e70d-4452-a222-5cbf82be44cd"
        }
      }, {
        "item": {
          "reference": "urn:uuid:bc2f39c3-ff05-4f4a-ad1f-db289af9eb23"
        }
      }, {
        "item": {
          "reference": "urn:uuid:ed4d1ae0-3efe-48a4-8ad9-2d23c811f4de"
        }
      }, {
        "item": {
          "reference": "urn:uuid:d59024da-6ddf-41e8-b10d-c1ecd5b6c478"
        }
      }, {
        "item": {
          "reference": "urn:uuid:5b4b263e-343a-41f7-9184-c020235b2f4e"
        }
      }, {
        "item": {
          "reference": "urn:uuid:ecae4a84-55c1-4a25-b2af-215fe4521b0d"
        }
      }, {
        "item": {
          "reference": "urn:uuid:77762372-ecca-4b44-b453-17ac1315a8fe"
        }
      }, {
        "item": {
          "reference": "urn:uuid:bbcc9017-50df-4bfc-85b3-950b6dcf28de"
        }
      }, {
        "item": {
          "reference": "urn:uuid:fdbc61fc-878c-4955-83ed-77612a9b9326"
        }
      }, {
        "item": {
          "reference": "urn:uuid:c4d228c5-d97e-4663-9d5a-3111569f902a"
        }
      }, {
        "item": {
          "reference": "urn:uuid:325d0ed3-a7a2-4210-a2e1-b1dd06f2c225"
        }
      }, {
        "item": {
          "reference": "urn:uuid:31033b03-183c-4f06-a7f9-39e30f4ce5e6"
        }
      }, {
        "item": {
          "reference": "urn:uuid:105562ea-8d4b-4f06-bd25-624ac277dcf9"
        }
      }, {
        "item": {
          "reference": "urn:uuid:c2c74c2c-9127-4698-bd46-b3615163bacd"
        }
      }, {
        "item": {
          "reference": "urn:uuid:ef4912b2-8b80-4dda-abc0-410bc497a4fa"
        }
      }, {
        "item": {
          "reference": "urn:uuid:c09783f3-346f-4fca-aaf3-42c2cb2e9e31"
        }
      }, {
        "item": {
          "reference": "urn:uuid:65ef7d7c-7bb1-430d-8e01-d27112ef6a6d"
        }
      }, {
        "item": {
          "reference": "urn:uuid:9512dad1-8896-4029-94d1-e736ca28d58e"
        }
      }, {
        "item": {
          "reference": "urn:uuid:e09630ef-e6e8-4b33-a96f-9437ce445522"
        }
      }, {
        "item": {
          "reference": "urn:uuid:f1547c51-a43f-48ab-8171-5a647375169f"
        }
      }, {
        "item": {
          "reference": "urn:uuid:1b0fc498-8a37-4a95-a5a4-3e5e7cfd449e"
        }
      }, {
        "item": {
          "reference": "urn:uuid:ad988caa-eac9-4af7-b730-838f1d2519a3"
        }
      }, {
        "item": {
          "reference": "urn:uuid:b3f83f0b-c3a6-4e05-92b5-04c8775f8e7f"
        }
      }, {
        "item": {
          "reference": "urn:uuid:b6a17cb3-cf7a-4d13-834b-61ce75adcfea"
        }
      }, {
        "item": {
          "reference": "urn:uuid:4562c96c-6546-4f4e-a170-55416d6fa9b8"
        }
      } ]
    }
  } ]
}