{
  "resourceType": "Bundle",
  "meta": {
    "lastUpdated": "2022-05-12T07:25:16.646+00:00"
  },
  "identifier": {
    "type": {
      "text": "ClinicalDocument VersionNumber"
    },
    "value": "1"
  },
  "type": "message",
  "entry": [ {
    "fullUrl": "urn:uuid:2B77B3F5-3016-4A6D-821F-152CE420E58D",
    "resource": {
      "resourceType": "MessageHeader",
      "id": "2B77B3F5-3016-4A6D-821F-152CE420E58D",
      "event": {
        "system": "https://fhir.nhs.uk/STU3/CodeSystem/EventType-1",
        "code": "referral-1",
        "display": "Referral"
      },
      "destination": [ {
        "endpoint": "urn:nhs-uk:addressing:ods:EM396:DOSServiceID:26428"
      } ],
      "timestamp": "2025-10-30T09:45:22.000+00:00",
      "source": {
        "name": "NHS 111 Adaptor",
        "endpoint": "http://localhost:8080/report"
      },
      "reason": {
        "coding": [ {
          "system": "urn:nhs-itk:ns:201005:interaction",
          "code": "urn:nhs-itk:interaction:primaryNHS111RepeatCallerDocumentSet-v1-0"
        } ]
      }
    }
  }, {
    "fullUrl": "urn:uuid:a7acf095-98ac-4e26-af54-b765ee099f0e",
    "resource": {
      "resourceType": "Encounter",
      "id": "a7acf095-98ac-4e26-af54-b765ee099f0e",
      "identifier": [ {
        "system": "2.16.840.1.113883.2.1.3.2.4.18.34",
        "value": "D47E4F49-D4B8-4913-85B9-64AF5523B268"
      }, {
        "system": "2.16.840.1.113883.2.1.3.2.4.18.35",
        "value": "1193164"
      } ],
      "status": "finished",
      "type": [ {
        "text": "111 Encounter Referral"
      } ],
      "subject": {
        "reference": "urn:uuid:87c814ab-8e11-4380-ba20-de8e2b7c018f"
      },
      "participant": [ {
        "type": [ {
          "coding": [ {
            "system": "http://hl7.org/fhir/ValueSet/encounter-participant-type",
            "code": "PPRF",
            "display": "Author"
          } ]
        } ],
        "individual": {
          "reference": "urn:uuid:cb8856e5-9466-4d42-a02b-6317d7577178"
        }
      }, {
        "type": [ {
          "coding": [ {
            "system": "http://hl7.org/fhir/ValueSet/encounter-participant-type",
            "code": "ATND",
            "display": "Responsible Party"
          } ]
        } ],
        "individual": {
          "reference": "urn:uuid:d906f97b-59d5-4f02-b4b7-c91b93c2c46c"
        }
      } ],
      "period": {
        "start": "2020-10-30T09:42:40+00:00",
        "end": "2020-10-30T09:44:13+00:00"
      },
      "location": [ {
        "location": {
          "reference": "urn:uuid:2413ed33-7a82-428c-85e0-bbd892ff7ab1"
        },
        "status": "active"
      }, {
        "location": {
          "reference": "urn:uuid:8eb6a57f-eaef-4bc0-8a58-d307cfcf93df"
        },
        "status": "completed"
      } ],
      "serviceProvider": {
        "reference": "urn:uuid:725dc40e-3511-44f7-b90c-aa90aaed4a2d"
      }
    }
  }, {
    "fullUrl": "urn:uuid:725dc40e-3511-44f7-b90c-aa90aaed4a2d",
    "resource": {
      "resourceType": "Organization",
      "id": "725dc40e-3511-44f7-b90c-aa90aaed4a2d",
      "active": true,
      "type": [ {
        "text": "CST"
      } ],
      "name": "West Midlands Single Instance"
    }
  }, {
    "fullUrl": "urn:uuid:cb8856e5-9466-4d42-a02b-6317d7577178",
    "resource": {
      "resourceType": "Practitioner",
      "id": "cb8856e5-9466-4d42-a02b-6317d7577178",
      "active": true,
      "name": [ {
        "use": "official"
      } ]
    }
  }, {
    "fullUrl": "urn:uuid:d906f97b-59d5-4f02-b4b7-c91b93c2c46c",
    "resource": {
      "resourceType": "Practitioner",
      "id": "d906f97b-59d5-4f02-b4b7-c91b93c2c46c",
      "active": true,
      "name": [ {
        "use": "official",
        "family": "Walker",
        "given": [ "Alison" ]
      } ]
    }
  }, {
    "fullUrl": "urn:uuid:2413ed33-7a82-428c-85e0-bbd892ff7ab1",
    "resource": {
      "resourceType": "Location",
      "id": "2413ed33-7a82-428c-85e0-bbd892ff7ab1",
      "managingOrganization": {
        "reference": "urn:uuid:98727639-3bdc-4ae0-8798-abac5229c632"
      }
    }
  }, {
    "fullUrl": "urn:uuid:98727639-3bdc-4ae0-8798-abac5229c632",
    "resource": {
      "resourceType": "Organization",
      "id": "98727639-3bdc-4ae0-8798-abac5229c632",
      "identifier": [ {
        "value": "F81718"
      } ],
      "type": [ {
        "text": "GP Practice"
      } ],
      "name": "LYDIA HOUSE PRACTICE"
    }
  }, {
    "fullUrl": "urn:uuid:8eb6a57f-eaef-4bc0-8a58-d307cfcf93df",
    "resource": {
      "resourceType": "Location",
      "id": "8eb6a57f-eaef-4bc0-8a58-d307cfcf93df",
      "name": "Incident Location",
      "address": {
        "type": "physical",
        "line": [ "Whitchurch Hospital", "Claypit Street", "Whitchurch", "Shropshire" ],
        "postalCode": "SY13 1NT"
      }
    }
  }, {
    "fullUrl": "urn:uuid:87c814ab-8e11-4380-ba20-de8e2b7c018f",
    "resource": {
      "resourceType": "Patient",
      "id": "87c814ab-8e11-4380-ba20-de8e2b7c018f",
      "identifier": [ {
        "extension": [ {
          "url": "https://fhir.hl7.org.uk/STU3/StructureDefinition/Extension-CareConnect-NHSNumberVerificationStatus-1",
          "valueCodeableConcept": {
            "coding": [ {
              "system": "https://fhir.hl7.org.uk/STU3/StructureDefinition/Extension-CareConnect-NHSNumberVerificationStatus-1",
              "code": "01"
            } ]
          }
        } ],
        "system": "https://fhir.nhs.uk/Id/nhs-number",
        "value": "9990238359"
      } ],
      "active": true,
      "name": [ {
        "use": "official",
        "family": "Xxtestpatientdzadn",
        "given": [ "Scrdonotuse" ]
      } ],
      "telecom": [ {
        "system": "phone",
        "value": "tel:01204428013",
        "use": "home"
      }, {
        "system": "phone",
        "value": "tel:01204428013"
      } ],
      "gender": "female",
      "birthDate": "1965-02-17",
      "address": [ {
        "use": "home",
        "line": [ "Test Address", "Captain Lees Road", "Westhoughton", "Bolton", "Greater Manchester" ],
        "postalCode": "BL5 3UB"
      }, {
        "type": "physical",
        "line": [ "Whitchurch Hospital", "Claypit Street", "Whitchurch", "Shropshire" ],
        "postalCode": "SY13 1NT"
      } ],
      "generalPractitioner": [ {
        "reference": "urn:uuid:63d35d25-9672-4632-a136-ef3bbda5332e"
      } ]
    }
  }, {
    "fullUrl": "urn:uuid:63d35d25-9672-4632-a136-ef3bbda5332e",
    "resource": {
      "resourceType": "Organization",
      "id": "63d35d25-9672-4632-a136-ef3bbda5332e",
      "identifier": [ {
        "value": "F81718"
      } ],
      "type": [ {
        "text": "GP Practice"
      } ],
      "name": "LYDIA HOUSE PRACTICE"
    }
  }, {
    "fullUrl": "urn:uuid:24d73eb3-2fa5-4cd2-bc20-d78944cc259d",
    "resource": {
      "resourceType": "HealthcareService",
      "id": "24d73eb3-2fa5-4cd2-bc20-d78944cc259d",
      "active": true,
      "providedBy": {
        "reference": "urn:uuid:b7343081-b3dc-4be4-a55c-e97bdbb8d15e"
      },
      "location": [ {
        "reference": "urn:uuid:4ecb90e7-bc7b-47b8-9fd6-afe14aef0a3c"
      } ],
      "name": "Repeat Caller - Live (v2)"
    }
  }, {
    "fullUrl": "urn:uuid:4ecb90e7-bc7b-47b8-9fd6-afe14aef0a3c",
    "resource": {
      "resourceType": "Location",
      "id": "4ecb90e7-bc7b-47b8-9fd6-afe14aef0a3c",
      "managingOrganization": {
        "reference": "urn:uuid:b7343081-b3dc-4be4-a55c-e97bdbb8d15e"
      }
    }
  }, {
    "fullUrl": "urn:uuid:b7343081-b3dc-4be4-a55c-e97bdbb8d15e",
    "resource": {
      "resourceType": "Organization",
      "id": "b7343081-b3dc-4be4-a55c-e97bdbb8d15e",
      "identifier": [ {
        "value": "RHY25"
      } ],
      "type": [ {
        "coding": [ {
          "code": "PRCP",
          "display": "Repeat Caller - Live (v2)"
        } ]
      } ],
      "name": "Repeat Caller - Live (v2)"
    }
  }, {
    "fullUrl": "urn:uuid:57e2a2a5-7155-4b26-b4b6-30f5ce8d0204",
    "resource": {
      "resourceType": "ReferralRequest",
      "id": "57e2a2a5-7155-4b26-b4b6-30f5ce8d0204",
      "status": "active",
      "intent": "plan",
      "priority": "routine",
      "subject": {
        "reference": "urn:uuid:87c814ab-8e11-4380-ba20-de8e2b7c018f"
      },
      "context": {
        "reference": "urn:uuid:a7acf095-98ac-4e26-af54-b765ee099f0e"
      },
      "occurrencePeriod": {
        "start": "2025-10-30T09:45:22+00:00"
      },
      "authoredOn": "2020-10-30T09:44:13+00:00",
      "requester": {
        "agent": {
          "reference": "urn:uuid:b4b79648-2dff-460b-ba89-1b071ac492c4"
        },
        "onBehalfOf": {
          "reference": "urn:uuid:725dc40e-3511-44f7-b90c-aa90aaed4a2d"
        }
      },
      "recipient": [ {
        "reference": "urn:uuid:24d73eb3-2fa5-4cd2-bc20-d78944cc259d"
      } ],
      "reasonReference": [ {
        "reference": "urn:uuid:ec8cdb78-841b-4f6d-bab9-97d72beb75b1"
      } ],
      "supportingInfo": [ {
        "reference": "urn:uuid:5c29184d-f0c3-4b94-8bf7-6d0238792b0e"
      } ]
    }
  }, {
    "fullUrl": "urn:uuid:5c29184d-f0c3-4b94-8bf7-6d0238792b0e",
    "resource": {
      "resourceType": "ProcedureRequest",
      "id": "5c29184d-f0c3-4b94-8bf7-6d0238792b0e",
      "status": "active",
      "intent": "plan",
      "priority": "routine",
      "doNotPerform": false,
      "code": {
        "coding": [ {
          "system": "2.16.840.1.113883.2.1.3.2.4.17.325",
          "code": "Dx05",
          "display": "To contact a local service within 2 hours"
        } ]
      },
      "subject": {
        "reference": "urn:uuid:87c814ab-8e11-4380-ba20-de8e2b7c018f"
      },
      "occurrencePeriod": {
        "start": "2025-10-30T09:45:22+00:00"
      },
      "reasonReference": [ {
        "reference": "urn:uuid:ec8cdb78-841b-4f6d-bab9-97d72beb75b1"
      } ]
    }
  }, {
    "fullUrl": "urn:uuid:c9aa8b1f-a23d-4df9-80e1-ef2812f73a6c",
    "resource": {
      "resourceType": "Composition",
      "id": "c9aa8b1f-a23d-4df9-80e1-ef2812f73a6c",
      "identifier": {
        "use": "usual",
        "value": "499BEC45-8F01-498C-A61F-B8AC124ED50E"
      },
      "status": "final",
      "type": {
        "coding": [ {
          "system": "http://snomed.info/sct",
          "code": "371531000",
          "display": "Report of clinical encounter (record artifact)"
        } ]
      },
      "subject": {
        "reference": "urn:uuid:87c814ab-8e11-4380-ba20-de8e2b7c018f"
      },
      "encounter": {
        "reference": "urn:uuid:a7acf095-98ac-4e26-af54-b765ee099f0e"
      },
      "date": "2025-10-30T09:45:22+00:00",
      "author": [ {
        "reference": "urn:uuid:cb8856e5-9466-4d42-a02b-6317d7577178"
      } ],
      "title": "111 Report",
      "confidentiality": "N",
      "section": [ {
        "section": [ {
          "title": "Patient's Reported Condition",
          "text": {
            "status": "generated",
            "div": "<div xmlns=\"http://www.w3.org/1999/xhtml\">&lt;br/&gt;WHITCHURCH MIU TEST</div>"
          }
        }, {
          "title": "Pathways Disposition",
          "text": {
            "status": "generated",
            "div": "<div xmlns=\"http://www.w3.org/1999/xhtml\">&lt;br/&gt;\n                                                    &lt;br/&gt;\n                                                    &lt;br/&gt;To contact a local service within 2 hours (Dx05)\n\n                                                    Selected service: DO NOT BOOK APPOINTMENT - TESTING Whitchurch Minor Injury Unit</div>"
          }
        }, {
          "title": "Consultation Summary",
          "text": {
            "status": "generated",
            "div": "<div xmlns=\"http://www.w3.org/1999/xhtml\">&lt;br/&gt;\n                                                    &lt;br/&gt;\n                                                    &lt;br/&gt;\n                                                    &lt;br/&gt;\n                                                    &lt;br/&gt;InjuryBite or stingInsect or spider biteSting/bite more than 6 hours agoVery severe, deep limb pain</div>"
          }
        }, {
          "title": "Pathways Assessment",
          "text": {
            "status": "generated",
            "div": "<div xmlns=\"http://www.w3.org/1999/xhtml\">&lt;br/&gt;\n                                                    &lt;br/&gt;\n                                                    &lt;br/&gt;\n                                                    &lt;br/&gt;\n                                                    &lt;br/&gt;\n                                                    &lt;br/&gt;\n                                                    &lt;br/&gt;\n                                                    &lt;br/&gt;\n                                                    &lt;br/&gt;\n                                                    &lt;br/&gt;\n                                                    &lt;br/&gt;\n                                                    &lt;br/&gt;\n                                                    &lt;br/&gt;\n                                                    &lt;br/&gt;\n                                                    &lt;br/&gt;\n                                                    &lt;br/&gt;\n                                                    &lt;br/&gt;\n                                                    &lt;br/&gt;An injury or health problem was the reason for the contact.Heavy bleeding had not occurred in the previous 2 hours.An injury or symptom relating to an injury was the main problem.User Comments: TESTThere was a minor injury (a bite or sting).User Comments: TESTPathway selected - Bites and StingsThe bite or sting was caused by an insect or spider.User Comments: TESTThe sting/bite had not occurred within the previous 6 hours.The individual had been stung less than 10 timesThe individual was not experiencing nausea and/or vomiting.The sting did not involve the eyes, mouth or limb.There was no insect/insect part remaining attached to the skinThere was very severe, deep pain.Instructions given were: The individual needs to contact a local service within 2 hours.Directory of Services referral: DO NOT BOOK APPOINTMENT - TESTING Whitchurch Minor Injury UnitAdvice given:\n                                                    Worsening</div>"
          }
        }, {
          "title": "Advice Given",
          "text": {
            "status": "generated",
            "div": "<div xmlns=\"http://www.w3.org/1999/xhtml\">&lt;br/&gt;\n                                                    &lt;br/&gt;If there are any new symptoms, or if the condition gets worse, changes or you have any other concerns, call us back.</div>"
          }
        }, {
          "title": "Special Patient Notes",
          "text": {
            "status": "generated",
            "div": "<div xmlns=\"http://www.w3.org/1999/xhtml\">&lt;content styleCode=&quot;bold&quot;&gt;Note:&lt;/content&gt;\n                                                    &lt;br/&gt;\n                                                    &lt;content&gt;TEST NOTE West Midlands Single Instance&lt;/content&gt;\n                                                    &lt;br/&gt;\n                                                    &lt;br/&gt;Special Notes from an external system were flagged as being present for this patient.</div>"
          }
        } ]
      }, {
        "title": "ReferralRequest",
        "entry": [ {
          "reference": "urn:uuid:57e2a2a5-7155-4b26-b4b6-30f5ce8d0204"
        } ]
      }, {
        "title": "QuestionnaireResponse",
        "entry": [ {
          "reference": "urn:uuid:7e2bf6b5-05e6-416c-942e-d9b43620c924"
        } ]
      }, {
        "title": "QuestionnaireResponse",
        "entry": [ {
          "reference": "urn:uuid:d027dc83-2003-442b-8adf-4826e4fa6ac0"
        } ]
      }, {
        "title": "QuestionnaireResponse",
        "entry": [ {
          "reference": "urn:uuid:ee50b01e-f957-4779-b53c-1c8d96cfa590"
        } ]
      }, {
        "title": "QuestionnaireResponse",
        "entry": [ {
          "reference": "urn:uuid:403677b7-e878-4996-ae19-920e93d1d6b9"
        } ]
      }, {
        "title": "QuestionnaireResponse",
        "entry": [ {
          "reference": "urn:uuid:b9ee413e-d7c6-4cb8-bddb-c69929c76301"
        } ]
      }, {
        "title": "QuestionnaireResponse",
        "entry": [ {
          "reference": "urn:uuid:0403ebf8-c9d5-45f7-9ab1-601eaddc0ab9"
        } ]
      }, {
        "title": "QuestionnaireResponse",
        "entry": [ {
          "reference": "urn:uuid:95b1fda7-ebdb-4f45-9e8a-3060be140481"
        } ]
      }, {
        "title": "QuestionnaireResponse",
        "entry": [ {
          "reference": "urn:uuid:a166ee8c-e414-4476-9b1c-e5d3f1333a8c"
        } ]
      }, {
        "title": "QuestionnaireResponse",
        "entry": [ {
          "reference": "urn:uuid:da9488fb-4b7c-45dc-95d5-fb21cdaa7100"
        } ]
      }, {
        "title": "QuestionnaireResponse",
        "entry": [ {
          "reference": "urn:uuid:cf1b946f-ca64-44b2-abe2-f9f568bde253"
        } ]
      }, {
        "title": "QuestionnaireResponse",
        "entry": [ {
          "reference": "urn:uuid:413ca17a-2e52-49c1-85f4-54e8e8073d17"
        } ]
      }, {
        "title": "QuestionnaireResponse",
        "entry": [ {
          "reference": "urn:uuid:a5a6585b-baa2-4308-8809-fec023a27cd5"
        } ]
      }, {
        "title": "QuestionnaireResponse",
        "entry": [ {
          "reference": "urn:uuid:dc4567c5-1b56-4840-afc5-5d3ad9ed6a0a"
        } ]
      }, {
        "title": "QuestionnaireResponse",
        "entry": [ {
          "reference": "urn:uuid:5d0e18d6-3d97-4b78-9958-7fed0ed2911e"
        } ]
      }, {
        "title": "QuestionnaireResponse",
        "entry": [ {
          "reference": "urn:uuid:59381bfe-cf52-4622-ad1d-0e81edf5ea3b"
        } ]
      }, {
        "title": "QuestionnaireResponse",
        "entry": [ {
          "reference": "urn:uuid:cd697f57-9cd8-49c8-94f9-6133290c0f05"
        } ]
      }, {
        "title": "QuestionnaireResponse",
        "entry": [ {
          "reference": "urn:uuid:b61e8b06-8f46-4d0e-b9db-0e7a261ca712"
        } ]
      }, {
        "title": "QuestionnaireResponse",
        "entry": [ {
          "reference": "urn:uuid:75ec23b5-38a0-40f7-92d3-2e20e7c7cd11"
        } ]
      }, {
        "title": "QuestionnaireResponse",
        "entry": [ {
          "reference": "urn:uuid:849c1741-fb02-4978-aa36-5798068f8a5c"
        } ]
      }, {
        "title": "QuestionnaireResponse",
        "entry": [ {
          "reference": "urn:uuid:a72cc74c-9622-4a32-a550-9553237d262d"
        } ]
      }, {
        "title": "QuestionnaireResponse",
        "entry": [ {
          "reference": "urn:uuid:32d309ad-56c6-49b7-a983-026db37a69d6"
        } ]
      }, {
        "title": "QuestionnaireResponse",
        "entry": [ {
          "reference": "urn:uuid:7482d6f3-1be6-441e-9391-69b198cb20e6"
        } ]
      } ]
    }
  }, {
    "fullUrl": "urn:uuid:b329a5ab-9151-4d36-8e47-4e3d3f965594",
    "resource": {
      "resourceType": "Consent",
      "id": "b329a5ab-9151-4d36-8e47-4e3d3f965594",
      "identifier": {
        "use": "usual",
        "value": "499BEC45-8F01-498C-A61F-B8AC124ED50E"
      },
      "status": "active",
      "patient": {
        "reference": "urn:uuid:87c814ab-8e11-4380-ba20-de8e2b7c018f"
      },
      "period": {
        "start": "2020-10-30T09:42:40+00:00",
        "end": "2020-10-30T09:44:13+00:00"
      },
      "consentingParty": [ {
        "reference": "urn:uuid:87c814ab-8e11-4380-ba20-de8e2b7c018f"
      } ],
      "action": [ {
        "coding": [ {
          "system": "http://snomed.info/sct",
          "code": "425691002",
          "display": "Consent given for electronic record sharing"
        } ],
        "text": "Consent given for electronic record sharing"
      } ],
      "organization": [ {
        "reference": "urn:uuid:725dc40e-3511-44f7-b90c-aa90aaed4a2d"
      } ],
      "policyRule": "http://hl7.org/fhir/ConsentPolicy/opt-out",
      "data": [ {
        "meaning": "related",
        "reference": {
          "reference": "urn:uuid:a7acf095-98ac-4e26-af54-b765ee099f0e"
        }
      } ]
    }
  }, {
    "fullUrl": "urn:uuid:ec8cdb78-841b-4f6d-bab9-97d72beb75b1",
    "resource": {
      "resourceType": "Condition",
      "id": "ec8cdb78-841b-4f6d-bab9-97d72beb75b1",
      "clinicalStatus": "active",
      "verificationStatus": "unknown",
      "subject": {
        "reference": "urn:uuid:87c814ab-8e11-4380-ba20-de8e2b7c018f"
      },
      "context": {
        "reference": "urn:uuid:a7acf095-98ac-4e26-af54-b765ee099f0e"
      },
      "evidence": [ {
        "detail": [ {
          "reference": "urn:uuid:7e2bf6b5-05e6-416c-942e-d9b43620c924"
        } ]
      }, {
        "detail": [ {
          "reference": "urn:uuid:d027dc83-2003-442b-8adf-4826e4fa6ac0"
        } ]
      }, {
        "detail": [ {
          "reference": "urn:uuid:ee50b01e-f957-4779-b53c-1c8d96cfa590"
        } ]
      }, {
        "detail": [ {
          "reference": "urn:uuid:403677b7-e878-4996-ae19-920e93d1d6b9"
        } ]
      }, {
        "detail": [ {
          "reference": "urn:uuid:b9ee413e-d7c6-4cb8-bddb-c69929c76301"
        } ]
      }, {
        "detail": [ {
          "reference": "urn:uuid:0403ebf8-c9d5-45f7-9ab1-601eaddc0ab9"
        } ]
      }, {
        "detail": [ {
          "reference": "urn:uuid:95b1fda7-ebdb-4f45-9e8a-3060be140481"
        } ]
      }, {
        "detail": [ {
          "reference": "urn:uuid:a166ee8c-e414-4476-9b1c-e5d3f1333a8c"
        } ]
      }, {
        "detail": [ {
          "reference": "urn:uuid:da9488fb-4b7c-45dc-95d5-fb21cdaa7100"
        } ]
      }, {
        "detail": [ {
          "reference": "urn:uuid:cf1b946f-ca64-44b2-abe2-f9f568bde253"
        } ]
      }, {
        "detail": [ {
          "reference": "urn:uuid:413ca17a-2e52-49c1-85f4-54e8e8073d17"
        } ]
      }, {
        "detail": [ {
          "reference": "urn:uuid:a5a6585b-baa2-4308-8809-fec023a27cd5"
        } ]
      }, {
        "detail": [ {
          "reference": "urn:uuid:dc4567c5-1b56-4840-afc5-5d3ad9ed6a0a"
        } ]
      }, {
        "detail": [ {
          "reference": "urn:uuid:5d0e18d6-3d97-4b78-9958-7fed0ed2911e"
        } ]
      }, {
        "detail": [ {
          "reference": "urn:uuid:59381bfe-cf52-4622-ad1d-0e81edf5ea3b"
        } ]
      }, {
        "detail": [ {
          "reference": "urn:uuid:cd697f57-9cd8-49c8-94f9-6133290c0f05"
        } ]
      }, {
        "detail": [ {
          "reference": "urn:uuid:b61e8b06-8f46-4d0e-b9db-0e7a261ca712"
        } ]
      }, {
        "detail": [ {
          "reference": "urn:uuid:75ec23b5-38a0-40f7-92d3-2e20e7c7cd11"
        } ]
      }, {
        "detail": [ {
          "reference": "urn:uuid:849c1741-fb02-4978-aa36-5798068f8a5c"
        } ]
      }, {
        "detail": [ {
          "reference": "urn:uuid:a72cc74c-9622-4a32-a550-9553237d262d"
        } ]
      }, {
        "detail": [ {
          "reference": "urn:uuid:32d309ad-56c6-49b7-a983-026db37a69d6"
        } ]
      }, {
        "detail": [ {
          "reference": "urn:uuid:7482d6f3-1be6-441e-9391-69b198cb20e6"
        } ]
      } ]
    }
  }, {
    "fullUrl": "urn:uuid:7e2bf6b5-05e6-416c-942e-d9b43620c924",
    "resource": {
      "resourceType": "QuestionnaireResponse",
      "id": "7e2bf6b5-05e6-416c-942e-d9b43620c924",
      "identifier": {
        "value": "1193164"
      },
      "questionnaire": {
        "reference": "urn:uuid:fd123fdf-fd51-440d-ab57-2e754a795528"
      },
      "status": "completed",
      "subject": {
        "reference": "urn:uuid:87c814ab-8e11-4380-ba20-de8e2b7c018f"
      },
      "context": {
        "reference": "urn:uuid:a7acf095-98ac-4e26-af54-b765ee099f0e"
      },
      "authored": "2020-10-30T09:45:23+00:00",
      "item": [ {
        "linkId": "Tx220074",
        "text": "What is the reason for the contact?",
        "answer": [ {
          "valueString": "an injury or other health problem"
        } ]
      } ]
    }
  }, {
    "fullUrl": "urn:uuid:fd123fdf-fd51-440d-ab57-2e754a795528",
    "resource": {
      "resourceType": "Questionnaire",
      "id": "fd123fdf-fd51-440d-ab57-2e754a795528",
      "identifier": [ {
        "value": "1193164"
      } ],
      "version": "2020-10-30T09:45:23.026Z",
      "status": "active",
      "experimental": false,
      "date": "2020-10-30T09:45:23+00:00",
      "publisher": "User ID: 'HOLDENR' User name: 'Rachael Holden' User skill set: 'T3'",
      "lastReviewDate": "2020-10-30",
      "subjectType": [ "Patient" ],
      "item": [ {
        "linkId": "1193164",
        "prefix": "5",
        "text": "What is the reason for the contact?",
        "type": "choice",
        "required": true,
        "repeats": false,
        "option": [ {
          "valueString": "an injury or other health problem, Selected: true"
        }, {
          "valueString": "labour or childbirth, Selected: false"
        }, {
          "valueString": "a need to access another healthcare service, Selected: false"
        }, {
          "valueString": "a healthcare professional requesting contact with another clinician, Selected: false"
        }, {
          "valueString": "a report of results or tests, Selected: false"
        }, {
          "valueString": "a possible failure of contraception, Selected: false"
        }, {
          "valueString": "more, Selected: false"
        } ]
      } ]
    }
  }, {
    "fullUrl": "urn:uuid:d027dc83-2003-442b-8adf-4826e4fa6ac0",
    "resource": {
      "resourceType": "QuestionnaireResponse",
      "id": "d027dc83-2003-442b-8adf-4826e4fa6ac0",
      "identifier": {
        "value": "1193164"
      },
      "questionnaire": {
        "reference": "urn:uuid:b57af7a4-a569-4cb8-bc05-ee5bf649af7e"
      },
      "status": "completed",
      "subject": {
        "reference": "urn:uuid:87c814ab-8e11-4380-ba20-de8e2b7c018f"
      },
      "context": {
        "reference": "urn:uuid:a7acf095-98ac-4e26-af54-b765ee099f0e"
      },
      "authored": "2020-10-30T09:45:23+00:00",
      "item": [ {
        "linkId": "Tx221807",
        "text": "STRING:to'Immediatethreatstolife(SPA/OOHversion)'-'Majorbloodloss'stem",
        "answer": [ {
          "valueString": "\"present\""
        } ]
      } ]
    }
  }, {
    "fullUrl": "urn:uuid:b57af7a4-a569-4cb8-bc05-ee5bf649af7e",
    "resource": {
      "resourceType": "Questionnaire",
      "id": "b57af7a4-a569-4cb8-bc05-ee5bf649af7e",
      "identifier": [ {
        "value": "1193164"
      } ],
      "version": "2020-10-30T09:45:23.026Z",
      "status": "active",
      "experimental": false,
      "date": "2020-10-30T09:45:23+00:00",
      "publisher": "User ID: 'HOLDENR' User name: 'Rachael Holden' User skill set: 'T3'",
      "lastReviewDate": "2020-10-30",
      "subjectType": [ "Patient" ],
      "item": [ {
        "linkId": "1193164",
        "prefix": "200",
        "text": "STRING:to'Immediatethreatstolife(SPA/OOHversion)'-'Majorbloodloss'stem",
        "type": "choice",
        "required": true,
        "repeats": false,
        "option": [ {
          "valueString": "\"present\", Selected: true"
        } ]
      } ]
    }
  }, {
    "fullUrl": "urn:uuid:ee50b01e-f957-4779-b53c-1c8d96cfa590",
    "resource": {
      "resourceType": "QuestionnaireResponse",
      "id": "ee50b01e-f957-4779-b53c-1c8d96cfa590",
      "identifier": {
        "value": "1193164"
      },
      "questionnaire": {
        "reference": "urn:uuid:cc461c48-1a2d-48dc-b6d6-1564f9e41956"
      },
      "status": "completed",
      "subject": {
        "reference": "urn:uuid:87c814ab-8e11-4380-ba20-de8e2b7c018f"
      },
      "context": {
        "reference": "urn:uuid:a7acf095-98ac-4e26-af54-b765ee099f0e"
      },
      "authored": "2020-10-30T09:45:23+00:00"
    }
  }, {
    "fullUrl": "urn:uuid:cc461c48-1a2d-48dc-b6d6-1564f9e41956",
    "resource": {
      "resourceType": "Questionnaire",
      "id": "cc461c48-1a2d-48dc-b6d6-1564f9e41956",
      "identifier": [ {
        "value": "1193164"
      } ],
      "version": "2020-10-30T09:45:23.026Z",
      "status": "active",
      "experimental": false,
      "date": "2020-10-30T09:45:23+00:00",
      "publisher": "User ID: 'HOLDENR' User name: 'Rachael Holden' User skill set: 'T3'",
      "lastReviewDate": "2020-10-30",
      "subjectType": [ "Patient" ]
    }
  }, {
    "fullUrl": "urn:uuid:403677b7-e878-4996-ae19-920e93d1d6b9",
    "resource": {
      "resourceType": "QuestionnaireResponse",
      "id": "403677b7-e878-4996-ae19-920e93d1d6b9",
      "identifier": {
        "value": "1193164"
      },
      "questionnaire": {
        "reference": "urn:uuid:b0dd2a4f-5cd0-4511-8ddc-bd106a5d5708"
      },
      "status": "completed",
      "subject": {
        "reference": "urn:uuid:87c814ab-8e11-4380-ba20-de8e2b7c018f"
      },
      "context": {
        "reference": "urn:uuid:a7acf095-98ac-4e26-af54-b765ee099f0e"
      },
      "authored": "2020-10-30T09:45:23+00:00",
      "item": [ {
        "linkId": "Tx221799",
        "text": "STRING:injury,illnessorlabourestablishedinEntryFlow",
        "answer": [ {
          "valueString": "\"present\""
        } ]
      } ]
    }
  }, {
    "fullUrl": "urn:uuid:b0dd2a4f-5cd0-4511-8ddc-bd106a5d5708",
    "resource": {
      "resourceType": "Questionnaire",
      "id": "b0dd2a4f-5cd0-4511-8ddc-bd106a5d5708",
      "identifier": [ {
        "value": "1193164"
      } ],
      "version": "2020-10-30T09:45:23.026Z",
      "status": "active",
      "experimental": false,
      "date": "2020-10-30T09:45:23+00:00",
      "publisher": "User ID: 'HOLDENR' User name: 'Rachael Holden' User skill set: 'T3'",
      "lastReviewDate": "2020-10-30",
      "subjectType": [ "Patient" ],
      "item": [ {
        "linkId": "1193164",
        "prefix": "0",
        "text": "STRING:injury,illnessorlabourestablishedinEntryFlow",
        "type": "choice",
        "required": true,
        "repeats": false,
        "option": [ {
          "valueString": "\"present\", Selected: true"
        } ]
      } ]
    }
  }, {
    "fullUrl": "urn:uuid:b9ee413e-d7c6-4cb8-bddb-c69929c76301",
    "resource": {
      "resourceType": "QuestionnaireResponse",
      "id": "b9ee413e-d7c6-4cb8-bddb-c69929c76301",
      "identifier": {
        "value": "1193164"
      },
      "questionnaire": {
        "reference": "urn:uuid:96d8ad3f-9eeb-44da-9e54-cd395b5bcb6f"
      },
      "status": "completed",
      "subject": {
        "reference": "urn:uuid:87c814ab-8e11-4380-ba20-de8e2b7c018f"
      },
      "context": {
        "reference": "urn:uuid:a7acf095-98ac-4e26-af54-b765ee099f0e"
      },
      "authored": "2020-10-30T09:45:23+00:00",
      "item": [ {
        "linkId": "Tx224120",
        "text": "Have you been bleeding RED BLOOD very heavily IN THE LAST 2 HOURS?",
        "answer": [ {
          "valueString": "no"
        } ]
      } ]
    }
  }, {
    "fullUrl": "urn:uuid:96d8ad3f-9eeb-44da-9e54-cd395b5bcb6f",
    "resource": {
      "resourceType": "Questionnaire",
      "id": "96d8ad3f-9eeb-44da-9e54-cd395b5bcb6f",
      "identifier": [ {
        "value": "1193164"
      } ],
      "version": "2020-10-30T09:45:23.026Z",
      "status": "active",
      "experimental": false,
      "date": "2020-10-30T09:45:23+00:00",
      "publisher": "User ID: 'HOLDENR' User name: 'Rachael Holden' User skill set: 'T3'",
      "lastReviewDate": "2020-10-30",
      "subjectType": [ "Patient" ],
      "item": [ {
        "linkId": "1193164",
        "prefix": "10100",
        "text": "Have you been bleeding RED BLOOD very heavily IN THE LAST 2 HOURS?",
        "type": "choice",
        "required": true,
        "repeats": false,
        "option": [ {
          "valueString": "yes, Selected: false"
        }, {
          "valueString": "not sure, Selected: false"
        }, {
          "valueString": "no, Selected: true"
        } ]
      } ]
    }
  }, {
    "fullUrl": "urn:uuid:0403ebf8-c9d5-45f7-9ab1-601eaddc0ab9",
    "resource": {
      "resourceType": "QuestionnaireResponse",
      "id": "0403ebf8-c9d5-45f7-9ab1-601eaddc0ab9",
      "identifier": {
        "value": "1193164"
      },
      "questionnaire": {
        "reference": "urn:uuid:228fa3fc-eb7e-462a-bf5d-3d59225bd507"
      },
      "status": "completed",
      "subject": {
        "reference": "urn:uuid:87c814ab-8e11-4380-ba20-de8e2b7c018f"
      },
      "context": {
        "reference": "urn:uuid:a7acf095-98ac-4e26-af54-b765ee099f0e"
      },
      "authored": "2020-10-30T09:45:23+00:00",
      "item": [ {
        "linkId": "Tx221343",
        "text": "SocialConcernsExcluded",
        "answer": [ {
          "valueString": "==\"present\""
        } ]
      } ]
    }
  }, {
    "fullUrl": "urn:uuid:228fa3fc-eb7e-462a-bf5d-3d59225bd507",
    "resource": {
      "resourceType": "Questionnaire",
      "id": "228fa3fc-eb7e-462a-bf5d-3d59225bd507",
      "identifier": [ {
        "value": "1193164"
      } ],
      "version": "2020-10-30T09:45:23.026Z",
      "status": "active",
      "experimental": false,
      "date": "2020-10-30T09:45:23+00:00",
      "publisher": "User ID: 'HOLDENR' User name: 'Rachael Holden' User skill set: 'T3'",
      "lastReviewDate": "2020-10-30",
      "subjectType": [ "Patient" ],
      "item": [ {
        "linkId": "1193164",
        "prefix": "1100",
        "text": "SocialConcernsExcluded",
        "type": "choice",
        "required": true,
        "repeats": false,
        "option": [ {
          "valueString": "==\"present\", Selected: true"
        }, {
          "valueString": "*, Selected: false"
        } ]
      } ]
    }
  }, {
    "fullUrl": "urn:uuid:95b1fda7-ebdb-4f45-9e8a-3060be140481",
    "resource": {
      "resourceType": "QuestionnaireResponse",
      "id": "95b1fda7-ebdb-4f45-9e8a-3060be140481",
      "identifier": {
        "value": "1193164"
      },
      "questionnaire": {
        "reference": "urn:uuid:93d9b7d6-f70c-4ef5-9076-03010d4bc1d1"
      },
      "status": "completed",
      "subject": {
        "reference": "urn:uuid:87c814ab-8e11-4380-ba20-de8e2b7c018f"
      },
      "context": {
        "reference": "urn:uuid:a7acf095-98ac-4e26-af54-b765ee099f0e"
      },
      "authored": "2020-10-30T09:45:23+00:00",
      "item": [ {
        "linkId": "Tx130011",
        "text": "What is the main problem?",
        "answer": [ {
          "valueString": "injury (specify)"
        } ]
      } ]
    }
  }, {
    "fullUrl": "urn:uuid:93d9b7d6-f70c-4ef5-9076-03010d4bc1d1",
    "resource": {
      "resourceType": "Questionnaire",
      "id": "93d9b7d6-f70c-4ef5-9076-03010d4bc1d1",
      "identifier": [ {
        "value": "1193164"
      } ],
      "version": "2020-10-30T09:45:23.026Z",
      "status": "active",
      "experimental": false,
      "date": "2020-10-30T09:45:23+00:00",
      "publisher": "User ID: 'HOLDENR' User name: 'Rachael Holden' User skill set: 'T3'",
      "lastReviewDate": "2020-10-30",
      "subjectType": [ "Patient" ],
      "item": [ {
        "linkId": "1193164",
        "prefix": "2300",
        "text": "What is the main problem?",
        "type": "choice",
        "required": true,
        "repeats": false,
        "option": [ {
          "valueString": "the individual has been told to follow a particular course of action (specify), Selected: false"
        }, {
          "valueString": "the individual is an identified frequent caller, Selected: false"
        }, {
          "valueString": "injury (specify), Selected: true"
        }, {
          "valueString": "illness or other health problem (specify), Selected: false"
        }, {
          "valueString": "child protection/vulnerable adult concern, Selected: false"
        }, {
          "valueString": "social or domestic emergency, Selected: false"
        }, {
          "valueString": "the environment potentially poses an immediate threat to life (specify), Selected: false"
        } ]
      } ]
    }
  }, {
    "fullUrl": "urn:uuid:a166ee8c-e414-4476-9b1c-e5d3f1333a8c",
    "resource": {
      "resourceType": "QuestionnaireResponse",
      "id": "a166ee8c-e414-4476-9b1c-e5d3f1333a8c",
      "identifier": {
        "value": "1193164"
      },
      "questionnaire": {
        "reference": "urn:uuid:8b0c4f00-b926-40d1-9f77-5bb516c36a1d"
      },
      "status": "completed",
      "subject": {
        "reference": "urn:uuid:87c814ab-8e11-4380-ba20-de8e2b7c018f"
      },
      "context": {
        "reference": "urn:uuid:a7acf095-98ac-4e26-af54-b765ee099f0e"
      },
      "authored": "2020-10-30T09:45:23+00:00",
      "item": [ {
        "linkId": "Tx224119",
        "text": "FROM WHAT YOU HAVE HEARD IS THIS A MINOR INJURY?",
        "answer": [ {
          "valueString": "yes - a minor bite or sting (specify)"
        } ]
      } ]
    }
  }, {
    "fullUrl": "urn:uuid:8b0c4f00-b926-40d1-9f77-5bb516c36a1d",
    "resource": {
      "resourceType": "Questionnaire",
      "id": "8b0c4f00-b926-40d1-9f77-5bb516c36a1d",
      "identifier": [ {
        "value": "1193164"
      } ],
      "version": "2020-10-30T09:45:23.026Z",
      "status": "active",
      "experimental": false,
      "date": "2020-10-30T09:45:23+00:00",
      "publisher": "User ID: 'HOLDENR' User name: 'Rachael Holden' User skill set: 'T3'",
      "lastReviewDate": "2020-10-30",
      "subjectType": [ "Patient" ],
      "item": [ {
        "linkId": "1193164",
        "prefix": "15000",
        "text": "FROM WHAT YOU HAVE HEARD IS THIS A MINOR INJURY?",
        "type": "choice",
        "required": true,
        "repeats": false,
        "option": [ {
          "valueString": "yes - a minor bite or sting (specify), Selected: true"
        }, {
          "valueString": "yes - a scratch, graze or minor wound, Selected: false"
        }, {
          "valueString": "yes - skin minor foreign body or skin glued, Selected: false"
        }, {
          "valueString": "yes - trauma blisters, Selected: false"
        }, {
          "valueString": "yes - a single finger or toe injury, Selected: false"
        }, {
          "valueString": "not sure, Selected: false"
        }, {
          "valueString": "no, Selected: false"
        } ]
      } ]
    }
  }, {
    "fullUrl": "urn:uuid:da9488fb-4b7c-45dc-95d5-fb21cdaa7100",
    "resource": {
      "resourceType": "QuestionnaireResponse",
      "id": "da9488fb-4b7c-45dc-95d5-fb21cdaa7100",
      "identifier": {
        "value": "1193164"
      },
      "questionnaire": {
        "reference": "urn:uuid:9ccd993f-9315-45aa-8c11-23ee29266a23"
      },
      "status": "completed",
      "subject": {
        "reference": "urn:uuid:87c814ab-8e11-4380-ba20-de8e2b7c018f"
      },
      "context": {
        "reference": "urn:uuid:a7acf095-98ac-4e26-af54-b765ee099f0e"
      },
      "authored": "2020-10-30T09:45:23+00:00",
      "item": [ {
        "linkId": "Tx225125",
        "text": "SYSTEM_INJURYMODULE",
        "answer": [ {
          "valueString": "==\"injurymodule\""
        } ]
      } ]
    }
  }, {
    "fullUrl": "urn:uuid:9ccd993f-9315-45aa-8c11-23ee29266a23",
    "resource": {
      "resourceType": "Questionnaire",
      "id": "9ccd993f-9315-45aa-8c11-23ee29266a23",
      "identifier": [ {
        "value": "1193164"
      } ],
      "version": "2020-10-30T09:45:23.026Z",
      "status": "active",
      "experimental": false,
      "date": "2020-10-30T09:45:23+00:00",
      "publisher": "User ID: 'HOLDENR' User name: 'Rachael Holden' User skill set: 'T3'",
      "lastReviewDate": "2020-10-30",
      "subjectType": [ "Patient" ],
      "item": [ {
        "linkId": "1193164",
        "prefix": "23700",
        "text": "SYSTEM_INJURYMODULE",
        "type": "choice",
        "required": true,
        "repeats": false,
        "option": [ {
          "valueString": "==\"injurymodule\", Selected: true"
        }, {
          "valueString": "*, Selected: false"
        } ]
      } ]
    }
  }, {
    "fullUrl": "urn:uuid:cf1b946f-ca64-44b2-abe2-f9f568bde253",
    "resource": {
      "resourceType": "QuestionnaireResponse",
      "id": "cf1b946f-ca64-44b2-abe2-f9f568bde253",
      "identifier": {
        "value": "1193164"
      },
      "questionnaire": {
        "reference": "urn:uuid:17bc3fd7-2f37-484b-957a-3a3a09d45bbe"
      },
      "status": "completed",
      "subject": {
        "reference": "urn:uuid:87c814ab-8e11-4380-ba20-de8e2b7c018f"
      },
      "context": {
        "reference": "urn:uuid:a7acf095-98ac-4e26-af54-b765ee099f0e"
      },
      "authored": "2020-10-30T09:45:23+00:00"
    }
  }, {
    "fullUrl": "urn:uuid:17bc3fd7-2f37-484b-957a-3a3a09d45bbe",
    "resource": {
      "resourceType": "Questionnaire",
      "id": "17bc3fd7-2f37-484b-957a-3a3a09d45bbe",
      "identifier": [ {
        "value": "1193164"
      } ],
      "version": "2020-10-30T09:45:23.026Z",
      "status": "active",
      "experimental": false,
      "date": "2020-10-30T09:45:23+00:00",
      "publisher": "User ID: 'HOLDENR' User name: 'Rachael Holden' User skill set: 'T3'",
      "lastReviewDate": "2020-10-30",
      "subjectType": [ "Patient" ]
    }
  }, {
    "fullUrl": "urn:uuid:413ca17a-2e52-49c1-85f4-54e8e8073d17",
    "resource": {
      "resourceType": "QuestionnaireResponse",
      "id": "413ca17a-2e52-49c1-85f4-54e8e8073d17",
      "identifier": {
        "value": "1193164"
      },
      "questionnaire": {
        "reference": "urn:uuid:727ba54d-29dd-4101-8c1a-0287e38d9dd1"
      },
      "status": "completed",
      "subject": {
        "reference": "urn:uuid:87c814ab-8e11-4380-ba20-de8e2b7c018f"
      },
      "context": {
        "reference": "urn:uuid:a7acf095-98ac-4e26-af54-b765ee099f0e"
      },
      "authored": "2020-10-30T09:45:23+00:00",
      "item": [ {
        "linkId": "Tx3529",
        "text": "WHAT WAS THE CAUSE?",
        "answer": [ {
          "valueString": "an insect or spider (specify if known)"
        } ]
      } ]
    }
  }, {
    "fullUrl": "urn:uuid:727ba54d-29dd-4101-8c1a-0287e38d9dd1",
    "resource": {
      "resourceType": "Questionnaire",
      "id": "727ba54d-29dd-4101-8c1a-0287e38d9dd1",
      "identifier": [ {
        "value": "1193164"
      } ],
      "version": "2020-10-30T09:45:23.026Z",
      "status": "active",
      "experimental": false,
      "date": "2020-10-30T09:45:23+00:00",
      "publisher": "User ID: 'HOLDENR' User name: 'Rachael Holden' User skill set: 'T3'",
      "lastReviewDate": "2020-10-30",
      "subjectType": [ "Patient" ],
      "item": [ {
        "linkId": "1193164",
        "prefix": "0",
        "text": "WHAT WAS THE CAUSE?",
        "type": "choice",
        "required": true,
        "repeats": false,
        "option": [ {
          "valueString": "a person, Selected: false"
        }, {
          "valueString": "an animal (specify if known), Selected: false"
        }, {
          "valueString": "a snake (specify if known), Selected: false"
        }, {
          "valueString": "an insect or spider (specify if known), Selected: true"
        }, {
          "valueString": "stung by a water creature (specify if known), Selected: false"
        }, {
          "valueString": "bitten by a water creature (specify if known), Selected: false"
        }, {
          "valueString": "not sure, Selected: false"
        } ]
      } ]
    }
  }, {
    "fullUrl": "urn:uuid:a5a6585b-baa2-4308-8809-fec023a27cd5",
    "resource": {
      "resourceType": "QuestionnaireResponse",
      "id": "a5a6585b-baa2-4308-8809-fec023a27cd5",
      "identifier": {
        "value": "1193164"
      },
      "questionnaire": {
        "reference": "urn:uuid:215e2f36-b881-4807-83f3-f5a8e046144f"
      },
      "status": "completed",
      "subject": {
        "reference": "urn:uuid:87c814ab-8e11-4380-ba20-de8e2b7c018f"
      },
      "context": {
        "reference": "urn:uuid:a7acf095-98ac-4e26-af54-b765ee099f0e"
      },
      "authored": "2020-10-30T09:45:23+00:00"
    }
  }, {
    "fullUrl": "urn:uuid:215e2f36-b881-4807-83f3-f5a8e046144f",
    "resource": {
      "resourceType": "Questionnaire",
      "id": "215e2f36-b881-4807-83f3-f5a8e046144f",
      "identifier": [ {
        "value": "1193164"
      } ],
      "version": "2020-10-30T09:45:23.026Z",
      "status": "active",
      "experimental": false,
      "date": "2020-10-30T09:45:23+00:00",
      "publisher": "User ID: 'HOLDENR' User name: 'Rachael Holden' User skill set: 'T3'",
      "lastReviewDate": "2020-10-30",
      "subjectType": [ "Patient" ]
    }
  }, {
    "fullUrl": "urn:uuid:dc4567c5-1b56-4840-afc5-5d3ad9ed6a0a",
    "resource": {
      "resourceType": "QuestionnaireResponse",
      "id": "dc4567c5-1b56-4840-afc5-5d3ad9ed6a0a",
      "identifier": {
        "value": "1193164"
      },
      "questionnaire": {
        "reference": "urn:uuid:fdbee0dc-f3c4-4c36-9cc5-8a3ad7929d32"
      },
      "status": "completed",
      "subject": {
        "reference": "urn:uuid:87c814ab-8e11-4380-ba20-de8e2b7c018f"
      },
      "context": {
        "reference": "urn:uuid:a7acf095-98ac-4e26-af54-b765ee099f0e"
      },
      "authored": "2020-10-30T09:45:23+00:00",
      "item": [ {
        "linkId": "Tx220302",
        "text": "Did it happen WITHIN THE LAST 6 HOURS?",
        "answer": [ {
          "valueString": "no"
        } ]
      } ]
    }
  }, {
    "fullUrl": "urn:uuid:fdbee0dc-f3c4-4c36-9cc5-8a3ad7929d32",
    "resource": {
      "resourceType": "Questionnaire",
      "id": "fdbee0dc-f3c4-4c36-9cc5-8a3ad7929d32",
      "identifier": [ {
        "value": "1193164"
      } ],
      "version": "2020-10-30T09:45:23.026Z",
      "status": "active",
      "experimental": false,
      "date": "2020-10-30T09:45:23+00:00",
      "publisher": "User ID: 'HOLDENR' User name: 'Rachael Holden' User skill set: 'T3'",
      "lastReviewDate": "2020-10-30",
      "subjectType": [ "Patient" ],
      "item": [ {
        "linkId": "1193164",
        "prefix": "0",
        "text": "Did it happen WITHIN THE LAST 6 HOURS?",
        "type": "choice",
        "required": true,
        "repeats": false,
        "option": [ {
          "valueString": "yes, Selected: false"
        }, {
          "valueString": "not sure, Selected: false"
        }, {
          "valueString": "no, Selected: true"
        } ]
      } ]
    }
  }, {
    "fullUrl": "urn:uuid:5d0e18d6-3d97-4b78-9958-7fed0ed2911e",
    "resource": {
      "resourceType": "QuestionnaireResponse",
      "id": "5d0e18d6-3d97-4b78-9958-7fed0ed2911e",
      "identifier": {
        "value": "1193164"
      },
      "questionnaire": {
        "reference": "urn:uuid:d167dbdb-a3b4-4e18-a3cb-e5e5b86b3f22"
      },
      "status": "completed",
      "subject": {
        "reference": "urn:uuid:87c814ab-8e11-4380-ba20-de8e2b7c018f"
      },
      "context": {
        "reference": "urn:uuid:a7acf095-98ac-4e26-af54-b765ee099f0e"
      },
      "authored": "2020-10-30T09:45:23+00:00",
      "item": [ {
        "linkId": "Tx3543",
        "text": "Have you been stung 10 or more times?",
        "answer": [ {
          "valueString": "no"
        } ]
      } ]
    }
  }, {
    "fullUrl": "urn:uuid:d167dbdb-a3b4-4e18-a3cb-e5e5b86b3f22",
    "resource": {
      "resourceType": "Questionnaire",
      "id": "d167dbdb-a3b4-4e18-a3cb-e5e5b86b3f22",
      "identifier": [ {
        "value": "1193164"
      } ],
      "version": "2020-10-30T09:45:23.026Z",
      "status": "active",
      "experimental": false,
      "date": "2020-10-30T09:45:23+00:00",
      "publisher": "User ID: 'HOLDENR' User name: 'Rachael Holden' User skill set: 'T3'",
      "lastReviewDate": "2020-10-30",
      "subjectType": [ "Patient" ],
      "item": [ {
        "linkId": "1193164",
        "prefix": "2900",
        "text": "Have you been stung 10 or more times?",
        "type": "choice",
        "required": true,
        "repeats": false,
        "option": [ {
          "valueString": "yes, Selected: false"
        }, {
          "valueString": "not sure, Selected: false"
        }, {
          "valueString": "no, Selected: true"
        } ]
      } ]
    }
  }, {
    "fullUrl": "urn:uuid:59381bfe-cf52-4622-ad1d-0e81edf5ea3b",
    "resource": {
      "resourceType": "QuestionnaireResponse",
      "id": "59381bfe-cf52-4622-ad1d-0e81edf5ea3b",
      "identifier": {
        "value": "1193164"
      },
      "questionnaire": {
        "reference": "urn:uuid:1e5df281-4fc1-4eba-8917-892e1b89a3fd"
      },
      "status": "completed",
      "subject": {
        "reference": "urn:uuid:87c814ab-8e11-4380-ba20-de8e2b7c018f"
      },
      "context": {
        "reference": "urn:uuid:a7acf095-98ac-4e26-af54-b765ee099f0e"
      },
      "authored": "2020-10-30T09:45:23+00:00",
      "item": [ {
        "linkId": "Tx3557",
        "text": "Have you got nausea or vomiting now?",
        "answer": [ {
          "valueString": "no"
        } ]
      } ]
    }
  }, {
    "fullUrl": "urn:uuid:1e5df281-4fc1-4eba-8917-892e1b89a3fd",
    "resource": {
      "resourceType": "Questionnaire",
      "id": "1e5df281-4fc1-4eba-8917-892e1b89a3fd",
      "identifier": [ {
        "value": "1193164"
      } ],
      "version": "2020-10-30T09:45:23.026Z",
      "status": "active",
      "experimental": false,
      "date": "2020-10-30T09:45:23+00:00",
      "publisher": "User ID: 'HOLDENR' User name: 'Rachael Holden' User skill set: 'T3'",
      "lastReviewDate": "2020-10-30",
      "subjectType": [ "Patient" ],
      "item": [ {
        "linkId": "1193164",
        "prefix": "3000",
        "text": "Have you got nausea or vomiting now?",
        "type": "choice",
        "required": true,
        "repeats": false,
        "option": [ {
          "valueString": "yes, Selected: false"
        }, {
          "valueString": "not sure, Selected: false"
        }, {
          "valueString": "no, Selected: true"
        } ]
      } ]
    }
  }, {
    "fullUrl": "urn:uuid:cd697f57-9cd8-49c8-94f9-6133290c0f05",
    "resource": {
      "resourceType": "QuestionnaireResponse",
      "id": "cd697f57-9cd8-49c8-94f9-6133290c0f05",
      "identifier": {
        "value": "1193164"
      },
      "questionnaire": {
        "reference": "urn:uuid:1e480069-35eb-44a1-a65d-1594494c41fa"
      },
      "status": "completed",
      "subject": {
        "reference": "urn:uuid:87c814ab-8e11-4380-ba20-de8e2b7c018f"
      },
      "context": {
        "reference": "urn:uuid:a7acf095-98ac-4e26-af54-b765ee099f0e"
      },
      "authored": "2020-10-30T09:45:23+00:00",
      "item": [ {
        "linkId": "Tx3561",
        "text": "Have you been bitten or stung in any of these areas?",
        "answer": [ {
          "valueString": "no"
        } ]
      } ]
    }
  }, {
    "fullUrl": "urn:uuid:1e480069-35eb-44a1-a65d-1594494c41fa",
    "resource": {
      "resourceType": "Questionnaire",
      "id": "1e480069-35eb-44a1-a65d-1594494c41fa",
      "identifier": [ {
        "value": "1193164"
      } ],
      "version": "2020-10-30T09:45:23.026Z",
      "status": "active",
      "experimental": false,
      "date": "2020-10-30T09:45:23+00:00",
      "publisher": "User ID: 'HOLDENR' User name: 'Rachael Holden' User skill set: 'T3'",
      "lastReviewDate": "2020-10-30",
      "subjectType": [ "Patient" ],
      "item": [ {
        "linkId": "1193164",
        "prefix": "3900",
        "text": "Have you been bitten or stung in any of these areas?",
        "type": "choice",
        "required": true,
        "repeats": false,
        "option": [ {
          "valueString": "the eyeball, Selected: false"
        }, {
          "valueString": "inside the mouth or on the lips, Selected: false"
        }, {
          "valueString": "limb, Selected: false"
        }, {
          "valueString": "not sure, Selected: false"
        }, {
          "valueString": "no, Selected: true"
        } ]
      } ]
    }
  }, {
    "fullUrl": "urn:uuid:b61e8b06-8f46-4d0e-b9db-0e7a261ca712",
    "resource": {
      "resourceType": "QuestionnaireResponse",
      "id": "b61e8b06-8f46-4d0e-b9db-0e7a261ca712",
      "identifier": {
        "value": "1193164"
      },
      "questionnaire": {
        "reference": "urn:uuid:21080381-764e-46aa-b46a-1e2f12560cf2"
      },
      "status": "completed",
      "subject": {
        "reference": "urn:uuid:87c814ab-8e11-4380-ba20-de8e2b7c018f"
      },
      "context": {
        "reference": "urn:uuid:a7acf095-98ac-4e26-af54-b765ee099f0e"
      },
      "authored": "2020-10-30T09:45:23+00:00",
      "item": [ {
        "linkId": "Tx3544",
        "text": "Is the insect or part of the insect still attached to the skin?",
        "answer": [ {
          "valueString": "no"
        } ]
      } ]
    }
  }, {
    "fullUrl": "urn:uuid:21080381-764e-46aa-b46a-1e2f12560cf2",
    "resource": {
      "resourceType": "Questionnaire",
      "id": "21080381-764e-46aa-b46a-1e2f12560cf2",
      "identifier": [ {
        "value": "1193164"
      } ],
      "version": "2020-10-30T09:45:23.026Z",
      "status": "active",
      "experimental": false,
      "date": "2020-10-30T09:45:23+00:00",
      "publisher": "User ID: 'HOLDENR' User name: 'Rachael Holden' User skill set: 'T3'",
      "lastReviewDate": "2020-10-30",
      "subjectType": [ "Patient" ],
      "item": [ {
        "linkId": "1193164",
        "prefix": "9400",
        "text": "Is the insect or part of the insect still attached to the skin?",
        "type": "choice",
        "required": true,
        "repeats": false,
        "option": [ {
          "valueString": "yes, Selected: false"
        }, {
          "valueString": "not sure, Selected: false"
        }, {
          "valueString": "no, Selected: true"
        } ]
      } ]
    }
  }, {
    "fullUrl": "urn:uuid:75ec23b5-38a0-40f7-92d3-2e20e7c7cd11",
    "resource": {
      "resourceType": "QuestionnaireResponse",
      "id": "75ec23b5-38a0-40f7-92d3-2e20e7c7cd11",
      "identifier": {
        "value": "1193164"
      },
      "questionnaire": {
        "reference": "urn:uuid:3b58975f-7cd3-4652-8805-3a0634ceca88"
      },
      "status": "completed",
      "subject": {
        "reference": "urn:uuid:87c814ab-8e11-4380-ba20-de8e2b7c018f"
      },
      "context": {
        "reference": "urn:uuid:a7acf095-98ac-4e26-af54-b765ee099f0e"
      },
      "authored": "2020-10-30T09:45:23+00:00",
      "item": [ {
        "linkId": "Tx1449",
        "text": "Have you got very severe pain deep inside the affected area?",
        "answer": [ {
          "valueString": "yes"
        } ]
      } ]
    }
  }, {
    "fullUrl": "urn:uuid:3b58975f-7cd3-4652-8805-3a0634ceca88",
    "resource": {
      "resourceType": "Questionnaire",
      "id": "3b58975f-7cd3-4652-8805-3a0634ceca88",
      "identifier": [ {
        "value": "1193164"
      } ],
      "version": "2020-10-30T09:45:23.026Z",
      "status": "active",
      "experimental": false,
      "date": "2020-10-30T09:45:23+00:00",
      "publisher": "User ID: 'HOLDENR' User name: 'Rachael Holden' User skill set: 'T3'",
      "lastReviewDate": "2020-10-30",
      "subjectType": [ "Patient" ],
      "item": [ {
        "linkId": "1193164",
        "prefix": "19700",
        "text": "Have you got very severe pain deep inside the affected area?",
        "type": "choice",
        "required": true,
        "repeats": false,
        "option": [ {
          "valueString": "yes, Selected: true"
        }, {
          "valueString": "not sure, Selected: false"
        }, {
          "valueString": "no, Selected: false"
        } ]
      } ]
    }
  }, {
    "fullUrl": "urn:uuid:849c1741-fb02-4978-aa36-5798068f8a5c",
    "resource": {
      "resourceType": "QuestionnaireResponse",
      "id": "849c1741-fb02-4978-aa36-5798068f8a5c",
      "identifier": {
        "value": "1193164"
      },
      "questionnaire": {
        "reference": "urn:uuid:308d65c8-f68c-433a-a680-c321959f3b6c"
      },
      "status": "completed",
      "subject": {
        "reference": "urn:uuid:87c814ab-8e11-4380-ba20-de8e2b7c018f"
      },
      "context": {
        "reference": "urn:uuid:a7acf095-98ac-4e26-af54-b765ee099f0e"
      },
      "authored": "2020-10-30T09:45:23+00:00",
      "item": [ {
        "linkId": "Tx221449",
        "text": "STRING:SDPCFullPrimaryCareassessmentandprescribingcapability",
        "answer": [ {
          "valueString": "\"PC full Primary Care assessment and prescribing capability\""
        } ]
      } ]
    }
  }, {
    "fullUrl": "urn:uuid:308d65c8-f68c-433a-a680-c321959f3b6c",
    "resource": {
      "resourceType": "Questionnaire",
      "id": "308d65c8-f68c-433a-a680-c321959f3b6c",
      "identifier": [ {
        "value": "1193164"
      } ],
      "version": "2020-10-30T09:45:23.026Z",
      "status": "active",
      "experimental": false,
      "date": "2020-10-30T09:45:23+00:00",
      "publisher": "User ID: 'HOLDENR' User name: 'Rachael Holden' User skill set: 'T3'",
      "lastReviewDate": "2020-10-30",
      "subjectType": [ "Patient" ],
      "item": [ {
        "linkId": "1193164",
        "prefix": "19900",
        "text": "STRING:SDPCFullPrimaryCareassessmentandprescribingcapability",
        "type": "choice",
        "required": true,
        "repeats": false,
        "option": [ {
          "valueString": "\"PC full Primary Care assessment and prescribing capability\", Selected: true"
        } ]
      } ]
    }
  }, {
    "fullUrl": "urn:uuid:a72cc74c-9622-4a32-a550-9553237d262d",
    "resource": {
      "resourceType": "QuestionnaireResponse",
      "id": "a72cc74c-9622-4a32-a550-9553237d262d",
      "identifier": {
        "value": "1193164"
      },
      "questionnaire": {
        "reference": "urn:uuid:1ca28307-d64e-4d25-9453-a960829894ef"
      },
      "status": "completed",
      "subject": {
        "reference": "urn:uuid:87c814ab-8e11-4380-ba20-de8e2b7c018f"
      },
      "context": {
        "reference": "urn:uuid:a7acf095-98ac-4e26-af54-b765ee099f0e"
      },
      "authored": "2020-10-30T09:45:23+00:00"
    }
  }, {
    "fullUrl": "urn:uuid:1ca28307-d64e-4d25-9453-a960829894ef",
    "resource": {
      "resourceType": "Questionnaire",
      "id": "1ca28307-d64e-4d25-9453-a960829894ef",
      "identifier": [ {
        "value": "1193164"
      } ],
      "version": "2020-10-30T09:45:23.026Z",
      "status": "active",
      "experimental": false,
      "date": "2020-10-30T09:45:23+00:00",
      "publisher": "User ID: 'HOLDENR' User name: 'Rachael Holden' User skill set: 'T3'",
      "lastReviewDate": "2020-10-30",
      "subjectType": [ "Patient" ]
    }
  }, {
    "fullUrl": "urn:uuid:32d309ad-56c6-49b7-a983-026db37a69d6",
    "resource": {
      "resourceType": "QuestionnaireResponse",
      "id": "32d309ad-56c6-49b7-a983-026db37a69d6",
      "identifier": {
        "value": "1193164"
      },
      "questionnaire": {
        "reference": "urn:uuid:7a9b8933-c75b-4ae3-9ffa-d8fa88eff9f0"
      },
      "status": "completed",
      "subject": {
        "reference": "urn:uuid:87c814ab-8e11-4380-ba20-de8e2b7c018f"
      },
      "context": {
        "reference": "urn:uuid:a7acf095-98ac-4e26-af54-b765ee099f0e"
      },
      "authored": "2020-10-30T09:45:23+00:00"
    }
  }, {
    "fullUrl": "urn:uuid:7a9b8933-c75b-4ae3-9ffa-d8fa88eff9f0",
    "resource": {
      "resourceType": "Questionnaire",
      "id": "7a9b8933-c75b-4ae3-9ffa-d8fa88eff9f0",
      "identifier": [ {
        "value": "1193164"
      } ],
      "version": "2020-10-30T09:45:23.026Z",
      "status": "active",
      "experimental": false,
      "date": "2020-10-30T09:45:23+00:00",
      "publisher": "User ID: 'HOLDENR' User name: 'Rachael Holden' User skill set: 'T3'",
      "lastReviewDate": "2020-10-30",
      "subjectType": [ "Patient" ]
    }
  }, {
    "fullUrl": "urn:uuid:7482d6f3-1be6-441e-9391-69b198cb20e6",
    "resource": {
      "resourceType": "QuestionnaireResponse",
      "id": "7482d6f3-1be6-441e-9391-69b198cb20e6",
      "identifier": {
        "value": "1193164"
      },
      "questionnaire": {
        "reference": "urn:uuid:fdbd1118-db9c-4b75-8de6-0aa9a758cd3d"
      },
      "status": "completed",
      "subject": {
        "reference": "urn:uuid:87c814ab-8e11-4380-ba20-de8e2b7c018f"
      },
      "context": {
        "reference": "urn:uuid:a7acf095-98ac-4e26-af54-b765ee099f0e"
      },
      "authored": "2020-10-30T09:45:23+00:00"
    }
  }, {
    "fullUrl": "urn:uuid:fdbd1118-db9c-4b75-8de6-0aa9a758cd3d",
    "resource": {
      "resourceType": "Questionnaire",
      "id": "fdbd1118-db9c-4b75-8de6-0aa9a758cd3d",
      "identifier": [ {
        "value": "1193164"
      } ],
      "version": "2020-10-30T09:45:23.026Z",
      "status": "active",
      "experimental": false,
      "date": "2020-10-30T09:45:23+00:00",
      "publisher": "User ID: 'HOLDENR' User name: 'Rachael Holden' User skill set: 'T3'",
      "lastReviewDate": "2020-10-30",
      "subjectType": [ "Patient" ]
    }
  }, {
    "fullUrl": "urn:uuid:6dda8f9c-b1be-4ee4-b2fa-c819c0810c4e",
    "resource": {
      "resourceType": "Observation",
      "id": "6dda8f9c-b1be-4ee4-b2fa-c819c0810c4e",
      "status": "final",
      "code": {
        "coding": [ {
          "system": "http://snomed.info/sct",
          "code": "33962009",
          "display": "Presenting complaint"
        } ]
      },
      "subject": {
        "reference": "urn:uuid:87c814ab-8e11-4380-ba20-de8e2b7c018f"
      },
      "context": {
        "reference": "urn:uuid:a7acf095-98ac-4e26-af54-b765ee099f0e"
      }
    }
  }, {
    "fullUrl": "urn:uuid:0152fb18-99ce-43d0-9035-96fb14afa51d",
    "resource": {
      "resourceType": "PractitionerRole",
      "id": "0152fb18-99ce-43d0-9035-96fb14afa51d",
      "practitioner": {
        "reference": "urn:uuid:cb8856e5-9466-4d42-a02b-6317d7577178"
      },
      "organization": {
        "reference": "urn:uuid:d1bb06b0-a9b1-4f86-845d-659f76f42397"
      },
      "code": [ {
        "coding": [ {
          "system": "2.16.840.1.113883.2.1.3.2.4.17.339",
          "code": "DOCTOR",
          "display": "Doctor"
        } ]
      } ]
    }
  }, {
    "fullUrl": "urn:uuid:d1bb06b0-a9b1-4f86-845d-659f76f42397",
    "resource": {
      "resourceType": "Organization",
      "id": "d1bb06b0-a9b1-4f86-845d-659f76f42397",
      "identifier": [ {
        "value": "RYA06"
      } ],
      "name": "WMAS - Navigation Point Call Centre (West Midlands Single Instance)"
    }
  }, {
    "fullUrl": "urn:uuid:b9e2ba68-ec83-461c-8b41-1530faece275",
    "resource": {
      "resourceType": "PractitionerRole",
      "id": "b9e2ba68-ec83-461c-8b41-1530faece275",
      "practitioner": {
        "reference": "urn:uuid:d906f97b-59d5-4f02-b4b7-c91b93c2c46c"
      },
      "organization": {
        "reference": "urn:uuid:2b6b2ec3-6e03-4272-ad38-55a56c433ca9"
      },
      "code": [ {
        "coding": [ {
          "system": "2.16.840.1.113883.2.1.3.2.4.17.196",
          "code": "R0010",
          "display": "Medical Director"
        } ]
      } ]
    }
  }, {
    "fullUrl": "urn:uuid:2b6b2ec3-6e03-4272-ad38-55a56c433ca9",
    "resource": {
      "resourceType": "Organization",
      "id": "2b6b2ec3-6e03-4272-ad38-55a56c433ca9",
      "identifier": [ {
        "value": "RYA06"
      } ],
      "name": "West Midlands Single Instance"
    }
  }, {
    "fullUrl": "urn:uuid:d24894f6-868d-439d-bd6a-3740de08673a",
    "resource": {
      "resourceType": "RelatedPerson",
      "id": "d24894f6-868d-439d-bd6a-3740de08673a",
      "patient": {
        "reference": "urn:uuid:87c814ab-8e11-4380-ba20-de8e2b7c018f"
      },
      "relationship": {
        "coding": [ {
          "system": "http://hl7.org/fhir/v2/0131",
          "code": "C",
          "display": "Emergency Contact"
        } ]
      },
      "telecom": [ {
        "system": "phone",
        "value": "tel:01204428013"
      } ]
    }
  }, {
    "fullUrl": "urn:uuid:b4b79648-2dff-460b-ba89-1b071ac492c4",
    "resource": {
      "resourceType": "Device",
      "id": "b4b79648-2dff-460b-ba89-1b071ac492c4",
      "model": "111 Adaptor",
      "version": "1.0.3"
    }
  }, {
    "fullUrl": "urn:uuid:6c131838-50d3-445c-97af-048293f35c74",
    "resource": {
      "resourceType": "List",
      "id": "6c131838-50d3-445c-97af-048293f35c74",
      "status": "current",
      "mode": "working",
      "title": "111 Report List",
      "code": {
        "coding": [ {
          "system": "http://snomed.info/sct",
          "code": "225390008",
          "display": "Triage"
        } ]
      },
      "subject": {
        "reference": "urn:uuid:87c814ab-8e11-4380-ba20-de8e2b7c018f"
      },
      "encounter": {
        "reference": "urn:uuid:a7acf095-98ac-4e26-af54-b765ee099f0e"
      },
      "date": "2025-10-30T09:45:22+00:00",
      "source": {
        "reference": "urn:uuid:b4b79648-2dff-460b-ba89-1b071ac492c4"
      },
      "orderedBy": {
        "coding": [ {
          "system": "http://hl7.org/fhir/list-order",
          "code": "event-date",
          "display": "Sorted by Event Date"
        } ]
      },
      "entry": [ {
        "item": {
          "reference": "urn:uuid:b7343081-b3dc-4be4-a55c-e97bdbb8d15e"
        }
      }, {
        "item": {
          "reference": "urn:uuid:d1bb06b0-a9b1-4f86-845d-659f76f42397"
        }
      }, {
        "item": {
          "reference": "urn:uuid:d24894f6-868d-439d-bd6a-3740de08673a"
        }
      }, {
        "item": {
          "reference": "urn:uuid:6dda8f9c-b1be-4ee4-b2fa-c819c0810c4e"
        }
      }, {
        "item": {
          "reference": "urn:uuid:ec8cdb78-841b-4f6d-bab9-97d72beb75b1"
        }
      }, {
        "item": {
          "reference": "urn:uuid:2b6b2ec3-6e03-4272-ad38-55a56c433ca9"
        }
      }, {
        "item": {
          "reference": "urn:uuid:d906f97b-59d5-4f02-b4b7-c91b93c2c46c"
        }
      }, {
        "item": {
          "reference": "urn:uuid:cb8856e5-9466-4d42-a02b-6317d7577178"
        }
      }, {
        "item": {
          "reference": "urn:uuid:63d35d25-9672-4632-a136-ef3bbda5332e"
        }
      }, {
        "item": {
          "reference": "urn:uuid:725dc40e-3511-44f7-b90c-aa90aaed4a2d"
        }
      }, {
        "item": {
          "reference": "urn:uuid:98727639-3bdc-4ae0-8798-abac5229c632"
        }
      }, {
        "item": {
          "reference": "urn:uuid:b57af7a4-a569-4cb8-bc05-ee5bf649af7e"
        }
      }, {
        "item": {
          "reference": "urn:uuid:cf1b946f-ca64-44b2-abe2-f9f568bde253"
        }
      }, {
        "item": {
          "reference": "urn:uuid:21080381-764e-46aa-b46a-1e2f12560cf2"
        }
      }, {
        "item": {
          "reference": "urn:uuid:7a9b8933-c75b-4ae3-9ffa-d8fa88eff9f0"
        }
      }, {
        "item": {
          "reference": "urn:uuid:1e5df281-4fc1-4eba-8917-892e1b89a3fd"
        }
      }, {
        "item": {
          "reference": "urn:uuid:849c1741-fb02-4978-aa36-5798068f8a5c"
        }
      }, {
        "item": {
          "reference": "urn:uuid:727ba54d-29dd-4101-8c1a-0287e38d9dd1"
        }
      }, {
        "item": {
          "reference": "urn:uuid:96d8ad3f-9eeb-44da-9e54-cd395b5bcb6f"
        }
      }, {
        "item": {
          "reference": "urn:uuid:8b0c4f00-b926-40d1-9f77-5bb516c36a1d"
        }
      }, {
        "item": {
          "reference": "urn:uuid:dc4567c5-1b56-4840-afc5-5d3ad9ed6a0a"
        }
      }, {
        "item": {
          "reference": "urn:uuid:fd123fdf-fd51-440d-ab57-2e754a795528"
        }
      }, {
        "item": {
          "reference": "urn:uuid:93d9b7d6-f70c-4ef5-9076-03010d4bc1d1"
        }
      }, {
        "item": {
          "reference": "urn:uuid:5d0e18d6-3d97-4b78-9958-7fed0ed2911e"
        }
      }, {
        "item": {
          "reference": "urn:uuid:228fa3fc-eb7e-462a-bf5d-3d59225bd507"
        }
      }, {
        "item": {
          "reference": "urn:uuid:308d65c8-f68c-433a-a680-c321959f3b6c"
        }
      }, {
        "item": {
          "reference": "urn:uuid:9ccd993f-9315-45aa-8c11-23ee29266a23"
        }
      }, {
        "item": {
          "reference": "urn:uuid:59381bfe-cf52-4622-ad1d-0e81edf5ea3b"
        }
      }, {
        "item": {
          "reference": "urn:uuid:b61e8b06-8f46-4d0e-b9db-0e7a261ca712"
        }
      }, {
        "item": {
          "reference": "urn:uuid:0403ebf8-c9d5-45f7-9ab1-601eaddc0ab9"
        }
      }, {
        "item": {
          "reference": "urn:uuid:fdbee0dc-f3c4-4c36-9cc5-8a3ad7929d32"
        }
      }, {
        "item": {
          "reference": "urn:uuid:7482d6f3-1be6-441e-9391-69b198cb20e6"
        }
      }, {
        "item": {
          "reference": "urn:uuid:b0dd2a4f-5cd0-4511-8ddc-bd106a5d5708"
        }
      }, {
        "item": {
          "reference": "urn:uuid:ee50b01e-f957-4779-b53c-1c8d96cfa590"
        }
      }, {
        "item": {
          "reference": "urn:uuid:215e2f36-b881-4807-83f3-f5a8e046144f"
        }
      }, {
        "item": {
          "reference": "urn:uuid:95b1fda7-ebdb-4f45-9e8a-3060be140481"
        }
      }, {
        "item": {
          "reference": "urn:uuid:7e2bf6b5-05e6-416c-942e-d9b43620c924"
        }
      }, {
        "item": {
          "reference": "urn:uuid:cc461c48-1a2d-48dc-b6d6-1564f9e41956"
        }
      }, {
        "item": {
          "reference": "urn:uuid:d027dc83-2003-442b-8adf-4826e4fa6ac0"
        }
      }, {
        "item": {
          "reference": "urn:uuid:d167dbdb-a3b4-4e18-a3cb-e5e5b86b3f22"
        }
      }, {
        "item": {
          "reference": "urn:uuid:a166ee8c-e414-4476-9b1c-e5d3f1333a8c"
        }
      }, {
        "item": {
          "reference": "urn:uuid:403677b7-e878-4996-ae19-920e93d1d6b9"
        }
      }, {
        "item": {
          "reference": "urn:uuid:a5a6585b-baa2-4308-8809-fec023a27cd5"
        }
      }, {
        "item": {
          "reference": "urn:uuid:fdbd1118-db9c-4b75-8de6-0aa9a758cd3d"
        }
      }, {
        "item": {
          "reference": "urn:uuid:b9ee413e-d7c6-4cb8-bddb-c69929c76301"
        }
      }, {
        "item": {
          "reference": "urn:uuid:413ca17a-2e52-49c1-85f4-54e8e8073d17"
        }
      }, {
        "item": {
          "reference": "urn:uuid:a72cc74c-9622-4a32-a550-9553237d262d"
        }
      }, {
        "item": {
          "reference": "urn:uuid:3b58975f-7cd3-4652-8805-3a0634ceca88"
        }
      }, {
        "item": {
          "reference": "urn:uuid:da9488fb-4b7c-45dc-95d5-fb21cdaa7100"
        }
      }, {
        "item": {
          "reference": "urn:uuid:1ca28307-d64e-4d25-9453-a960829894ef"
        }
      }, {
        "item": {
          "reference": "urn:uuid:17bc3fd7-2f37-484b-957a-3a3a09d45bbe"
        }
      }, {
        "item": {
          "reference": "urn:uuid:32d309ad-56c6-49b7-a983-026db37a69d6"
        }
      }, {
        "item": {
          "reference": "urn:uuid:cd697f57-9cd8-49c8-94f9-6133290c0f05"
        }
      }, {
        "item": {
          "reference": "urn:uuid:1e480069-35eb-44a1-a65d-1594494c41fa"
        }
      }, {
        "item": {
          "reference": "urn:uuid:75ec23b5-38a0-40f7-92d3-2e20e7c7cd11"
        }
      }, {
        "item": {
          "reference": "urn:uuid:57e2a2a5-7155-4b26-b4b6-30f5ce8d0204"
        }
      } ]
    }
  } ]
}