{
  "resourceType": "Bundle",
  "identifier": {
    "type": {
      "text": "ClinicalDocument VersionNumber"
    },
    "value": "1"
  },
  "type": "message",
  "entry": [ {
    "fullUrl": "urn:uuid:A12F527F-3808-44BC-9272-8C8A92884A37",
    "resource": {
      "resourceType": "MessageHeader",
      "id": "A12F527F-3808-44BC-9272-8C8A92884A37",
      "event": {
        "system": "https://fhir.nhs.uk/STU3/CodeSystem/EventType-1",
        "code": "referral-1",
        "display": "Referral"
      },
      "destination": [ {
        "endpoint": "urn:nhs-uk:addressing:ods:20000729:DOSServiceID:2000072936"
      } ],
      "timestamp": "2020-10-30T18:29:05.000+00:00",
      "source": {
        "name": "NHS 111 Adaptor",
        "endpoint": "http://localhost:8080/report"
      },
      "reason": {
        "coding": [ {
          "system": "urn:nhs-itk:ns:201005:interaction",
          "code": "urn:nhs-itk:interaction:primaryNHS111RepeatCallerDocumentSet-v1-0"
        } ]
      }
    },
    "response": {
      "status": "success",
      "lastModified": "2022-05-09T13:25:20.412+00:00"
    }
  }, {
    "fullUrl": "urn:uuid:ca87bc70-d2ff-46bb-b4ad-0c7563bb0fad",
    "resource": {
      "resourceType": "Encounter",
      "id": "ca87bc70-d2ff-46bb-b4ad-0c7563bb0fad",
      "identifier": [ {
        "system": "2.16.840.1.113883.2.1.3.2.4.18.34",
        "value": "CF1F65AB-2392-4582-9E14-F0384358CB6A"
      }, {
        "system": "2.16.840.1.113883.2.1.3.2.4.18.35",
        "value": "7434927"
      } ],
      "status": "finished",
      "type": [ {
        "text": "111 Encounter Referral"
      } ],
      "subject": {
        "reference": "urn:uuid:f96b2c67-697a-40e8-b5f3-c94740ca8ed7"
      },
      "participant": [ {
        "type": [ {
          "coding": [ {
            "system": "http://hl7.org/fhir/ValueSet/encounter-participant-type",
            "code": "PPRF",
            "display": "Author"
          } ]
        } ],
        "individual": {
          "reference": "urn:uuid:e47ee88f-c1eb-4077-9534-c858c0848e1e"
        }
      }, {
        "type": [ {
          "coding": [ {
            "system": "http://hl7.org/fhir/ValueSet/encounter-participant-type",
            "code": "ATND",
            "display": "Responsible Party"
          } ]
        } ],
        "individual": {
          "reference": "urn:uuid:0d361ee4-700f-4012-9e00-9dfafe6eb2bb"
        }
      } ],
      "period": {
        "start": "2020-10-30T18:28:13+00:00",
        "end": "2020-10-30T18:28:58+00:00"
      },
      "location": [ {
        "location": {
          "reference": "urn:uuid:ff80da30-74a8-4f6d-a6ab-751056ba6e5d"
        },
        "status": "active"
      }, {
        "location": {
          "reference": "urn:uuid:9cd6e3d7-69ca-4b38-a818-51e3bb10ae36"
        },
        "status": "completed"
      } ],
      "serviceProvider": {
        "reference": "urn:uuid:caac7dd2-278d-4cbe-8f8a-04b670ba5c4e"
      }
    }
  }, {
    "fullUrl": "urn:uuid:caac7dd2-278d-4cbe-8f8a-04b670ba5c4e",
    "resource": {
      "resourceType": "Organization",
      "id": "caac7dd2-278d-4cbe-8f8a-04b670ba5c4e",
      "active": true,
      "type": [ {
        "text": "CST"
      } ],
      "name": "Devon Doctors Group"
    }
  }, {
    "fullUrl": "urn:uuid:e47ee88f-c1eb-4077-9534-c858c0848e1e",
    "resource": {
      "resourceType": "Practitioner",
      "id": "e47ee88f-c1eb-4077-9534-c858c0848e1e",
      "active": true,
      "name": [ {
        "use": "official",
        "family": "Service Advisor",
        "given": [ "Dental" ]
      } ]
    }
  }, {
    "fullUrl": "urn:uuid:0d361ee4-700f-4012-9e00-9dfafe6eb2bb",
    "resource": {
      "resourceType": "Practitioner",
      "id": "0d361ee4-700f-4012-9e00-9dfafe6eb2bb",
      "active": true,
      "name": [ {
        "use": "official",
        "family": "Eggleton",
        "given": [ "Dr. Mark" ]
      } ]
    }
  }, {
    "fullUrl": "urn:uuid:ff80da30-74a8-4f6d-a6ab-751056ba6e5d",
    "resource": {
      "resourceType": "Location",
      "id": "ff80da30-74a8-4f6d-a6ab-751056ba6e5d",
      "managingOrganization": {
        "reference": "urn:uuid:2f5d6f27-4f09-410c-aadd-2a7f10d0bccc"
      }
    }
  }, {
    "fullUrl": "urn:uuid:2f5d6f27-4f09-410c-aadd-2a7f10d0bccc",
    "resource": {
      "resourceType": "Organization",
      "id": "2f5d6f27-4f09-410c-aadd-2a7f10d0bccc",
      "identifier": [ {
        "value": "J85990"
      } ],
      "type": [ {
        "text": "GP Practice"
      } ],
      "name": "Test Somerset"
    }
  }, {
    "fullUrl": "urn:uuid:9cd6e3d7-69ca-4b38-a818-51e3bb10ae36",
    "resource": {
      "resourceType": "Location",
      "id": "9cd6e3d7-69ca-4b38-a818-51e3bb10ae36",
      "name": "Incident Location",
      "address": {
        "type": "physical",
        "line": [ "NHS England", "Quarry House Quarry Hill", "Leeds", "West Yorkshire" ],
        "postalCode": "LS2 7UE"
      }
    }
  }, {
    "fullUrl": "urn:uuid:f96b2c67-697a-40e8-b5f3-c94740ca8ed7",
    "resource": {
      "resourceType": "Patient",
      "id": "f96b2c67-697a-40e8-b5f3-c94740ca8ed7",
      "identifier": [ {
        "extension": [ {
          "url": "https://fhir.hl7.org.uk/STU3/StructureDefinition/Extension-CareConnect-NHSNumberVerificationStatus-1",
          "valueCodeableConcept": {
            "coding": [ {
              "system": "https://fhir.hl7.org.uk/STU3/StructureDefinition/Extension-CareConnect-NHSNumberVerificationStatus-1",
              "code": "02"
            } ]
          }
        } ],
        "system": "https://fhir.nhs.uk/Id/nhs-number",
        "value": "9990238359"
      } ],
      "active": true,
      "name": [ {
        "use": "official",
        "family": "Xxtestpatientdzadn",
        "given": [ "Scrdonotuse" ]
      } ],
      "telecom": [ {
        "system": "phone",
        "value": "tel:01702123456",
        "use": "home"
      }, {
        "system": "phone",
        "value": "tel:01702123456"
      } ],
      "gender": "female",
      "birthDate": "1965-02-17",
      "address": [ {
        "use": "home",
        "line": [ "NHS England", "Quarry House Quarry Hill", "Leeds", "West Yorkshire" ],
        "postalCode": "LS2 7UE"
      } ],
      "generalPractitioner": [ {
        "reference": "urn:uuid:518069b8-2e0b-4577-928f-eaebd685a901"
      } ]
    }
  }, {
    "fullUrl": "urn:uuid:518069b8-2e0b-4577-928f-eaebd685a901",
    "resource": {
      "resourceType": "Organization",
      "id": "518069b8-2e0b-4577-928f-eaebd685a901",
      "identifier": [ {
        "value": "J85990"
      } ],
      "type": [ {
        "text": "GP Practice"
      } ],
      "name": "Test Somerset"
    }
  }, {
    "fullUrl": "urn:uuid:643aaec3-6cb6-43aa-b1be-c6d239c0694a",
    "resource": {
      "resourceType": "HealthcareService",
      "id": "643aaec3-6cb6-43aa-b1be-c6d239c0694a",
      "active": true,
      "providedBy": {
        "reference": "urn:uuid:509b184c-da0a-4e5b-a6ec-89097f5bd73e"
      },
      "location": [ {
        "reference": "urn:uuid:614449f9-3e61-45ea-b39e-624bd8565f3e"
      } ],
      "name": "**TESTING ONLY** DO NOT SEND PATIENTS - ED Test Service for EDDI"
    }
  }, {
    "fullUrl": "urn:uuid:614449f9-3e61-45ea-b39e-624bd8565f3e",
    "resource": {
      "resourceType": "Location",
      "id": "614449f9-3e61-45ea-b39e-624bd8565f3e",
      "managingOrganization": {
        "reference": "urn:uuid:509b184c-da0a-4e5b-a6ec-89097f5bd73e"
      }
    }
  }, {
    "fullUrl": "urn:uuid:509b184c-da0a-4e5b-a6ec-89097f5bd73e",
    "resource": {
      "resourceType": "Organization",
      "id": "509b184c-da0a-4e5b-a6ec-89097f5bd73e",
      "identifier": [ {
        "value": "20000729"
      } ],
      "type": [ {
        "coding": [ {
          "code": "PRCP",
          "display": "**TESTING ONLY** DO NOT SEND PATIENTS - ED Test Service for EDDI"
        } ]
      } ],
      "name": "**TESTING ONLY** DO NOT SEND PATIENTS - ED Test Service for EDDI"
    }
  }, {
    "fullUrl": "urn:uuid:7784b1b7-b283-4366-b047-81b20ba8d16a",
    "resource": {
      "resourceType": "ReferralRequest",
      "id": "7784b1b7-b283-4366-b047-81b20ba8d16a",
      "status": "active",
      "intent": "plan",
      "priority": "routine",
      "subject": {
        "reference": "urn:uuid:f96b2c67-697a-40e8-b5f3-c94740ca8ed7"
      },
      "context": {
        "reference": "urn:uuid:ca87bc70-d2ff-46bb-b4ad-0c7563bb0fad"
      },
      "occurrencePeriod": {
        "start": "2020-10-30T18:29:05+00:00"
      },
      "authoredOn": "2020-10-30T18:28:58+00:00",
      "requester": {
        "agent": {
          "reference": "urn:uuid:3f4876a1-c11e-4c89-a44a-fee3700b1fd5"
        },
        "onBehalfOf": {
          "reference": "urn:uuid:caac7dd2-278d-4cbe-8f8a-04b670ba5c4e"
        }
      },
      "recipient": [ {
        "reference": "urn:uuid:643aaec3-6cb6-43aa-b1be-c6d239c0694a"
      } ],
      "reasonReference": [ {
        "reference": "urn:uuid:3fd6bbb0-4216-4502-9b8f-2d1411b152af"
      } ],
      "supportingInfo": [ {
        "reference": "urn:uuid:333f85ad-68f1-4ccd-97b3-59abdb4093c4"
      } ]
    }
  }, {
    "fullUrl": "urn:uuid:333f85ad-68f1-4ccd-97b3-59abdb4093c4",
    "resource": {
      "resourceType": "ProcedureRequest",
      "id": "333f85ad-68f1-4ccd-97b3-59abdb4093c4",
      "status": "active",
      "intent": "plan",
      "priority": "routine",
      "doNotPerform": false,
      "code": {
        "coding": [ {
          "system": "2.16.840.1.113883.2.1.3.2.4.17.325",
          "code": "Dx02",
          "display": "Attend a Treatment Centre within 1 hour"
        } ]
      },
      "subject": {
        "reference": "urn:uuid:f96b2c67-697a-40e8-b5f3-c94740ca8ed7"
      },
      "occurrencePeriod": {
        "start": "2020-10-30T18:29:05+00:00"
      },
      "reasonReference": [ {
        "reference": "urn:uuid:3fd6bbb0-4216-4502-9b8f-2d1411b152af"
      } ]
    }
  }, {
    "fullUrl": "urn:uuid:e854e898-6b55-48fc-9ae8-88402cbb77a7",
    "resource": {
      "resourceType": "Composition",
      "id": "e854e898-6b55-48fc-9ae8-88402cbb77a7",
      "identifier": {
        "use": "usual",
        "value": "B53175B4-0A4A-4503-A6CD-94333AA01645"
      },
      "status": "final",
      "type": {
        "coding": [ {
          "system": "http://snomed.info/sct",
          "code": "371531000",
          "display": "Report of clinical encounter (record artifact)"
        } ]
      },
      "subject": {
        "reference": "urn:uuid:f96b2c67-697a-40e8-b5f3-c94740ca8ed7"
      },
      "encounter": {
        "reference": "urn:uuid:ca87bc70-d2ff-46bb-b4ad-0c7563bb0fad"
      },
      "date": "2020-10-30T18:29:05+00:00",
      "author": [ {
        "reference": "urn:uuid:e47ee88f-c1eb-4077-9534-c858c0848e1e"
      } ],
      "title": "111 Report",
      "confidentiality": "N",
      "section": [ {
        "section": [ {
          "title": "Patient's Reported Condition",
          "text": {
            "status": "generated",
            "div": "<div xmlns=\"http://www.w3.org/1999/xhtml\">TEST&lt;br/&gt;</div>"
          }
        }, {
          "title": "Pathways Disposition",
          "text": {
            "status": "generated",
            "div": "<div xmlns=\"http://www.w3.org/1999/xhtml\">Attend a Treatment Centre within 1 hour (Dx02)\n                                                    &lt;br/&gt;&lt;br/&gt;\n                                                    Selected service: **TESTING ONLY** DO NOT SEND PATIENTS - ED Test Se&lt;br/&gt;</div>"
          }
        }, {
          "title": "Consultation Summary",
          "text": {
            "status": "generated",
            "div": "<div xmlns=\"http://www.w3.org/1999/xhtml\">Illness&lt;br/&gt;Warm to touch&lt;br/&gt;Nose bleeding freely&lt;br/&gt;Nose bleeding despite first aid measures&lt;br/&gt;</div>"
          }
        }, {
          "title": "Pathways Assessment",
          "text": {
            "status": "generated",
            "div": "<div xmlns=\"http://www.w3.org/1999/xhtml\">An injury or health problem was the reason for the contact.&lt;br/&gt;Heavy bleeding had not occurred in the previous 2 hours.&lt;br/&gt;An illness or health problem was the main problem.&lt;br/&gt;User Comments: TEST&lt;br/&gt;The individual was not fighting for breath.&lt;br/&gt;The main reason for the assessment was not an allergic reaction, heart attack, chest/upper back pain, probable stroke, recent fit/seizure or suicide attempt.&lt;br/&gt;The main reason for contact was not new confusion, declared diabetic hypo/hyperglycaemia, or ICD shock.&lt;br/&gt;The skin on the torso felt normal, warm or hot.&lt;br/&gt;Pathway selected - Nosebleeds without Injury&lt;br/&gt;The individual was not feeling faint or dizzy.&lt;br/&gt;The nose was continuing to bleed.&lt;br/&gt;There was no nasal foreign body.&lt;br/&gt;Constant pressure had been applied to the soft part of the nose for at least 10 minutes.&lt;br/&gt;Instructions given were: The individual needs to attend a treatment centre within 1 hour.&lt;br/&gt;Directory of Services referral: **TESTING ONLY** DO NOT SEND PATIENTS - ED Test Service for EDDI&lt;br/&gt;Advice given:\n                                                    Worsening\n                                                    &lt;br/&gt;</div>"
          }
        }, {
          "title": "Advice Given",
          "text": {
            "status": "generated",
            "div": "<div xmlns=\"http://www.w3.org/1999/xhtml\">If there are any new symptoms, or if the condition gets worse, changes or you have any other concerns, call us back.&lt;br/&gt;&lt;br/&gt;</div>"
          }
        }, {
          "title": "Special Patient Notes",
          "text": {
            "status": "generated",
            "div": "<div xmlns=\"http://www.w3.org/1999/xhtml\">Special Notes from an external system were flagged as being present for this patient.</div>"
          }
        } ]
      }, {
        "title": "ReferralRequest",
        "entry": [ {
          "reference": "urn:uuid:7784b1b7-b283-4366-b047-81b20ba8d16a"
        } ]
      }, {
        "title": "QuestionnaireResponse",
        "entry": [ {
          "reference": "urn:uuid:a546e6f0-42c3-4c03-bf20-d9c6a589d074"
        } ]
      }, {
        "title": "QuestionnaireResponse",
        "entry": [ {
          "reference": "urn:uuid:3c95a626-1ad6-435d-b584-7812b6c0579d"
        } ]
      }, {
        "title": "QuestionnaireResponse",
        "entry": [ {
          "reference": "urn:uuid:3c05a3ab-f251-4575-ac90-8b847d1d13ba"
        } ]
      }, {
        "title": "QuestionnaireResponse",
        "entry": [ {
          "reference": "urn:uuid:0f3270a1-c4d5-4d42-8469-131cbdc5bf02"
        } ]
      }, {
        "title": "QuestionnaireResponse",
        "entry": [ {
          "reference": "urn:uuid:1f15f33b-d4d5-4de3-a701-a5190c483e74"
        } ]
      }, {
        "title": "QuestionnaireResponse",
        "entry": [ {
          "reference": "urn:uuid:87493f6b-cf90-415d-8464-f6e970e3bb92"
        } ]
      }, {
        "title": "QuestionnaireResponse",
        "entry": [ {
          "reference": "urn:uuid:d31c81f0-b9a6-42d6-9f12-4716b89108af"
        } ]
      }, {
        "title": "QuestionnaireResponse",
        "entry": [ {
          "reference": "urn:uuid:da376647-4c25-4cc4-a86f-4d226b6901f4"
        } ]
      }, {
        "title": "QuestionnaireResponse",
        "entry": [ {
          "reference": "urn:uuid:65395062-edff-466b-b902-7cef13bebaa7"
        } ]
      }, {
        "title": "QuestionnaireResponse",
        "entry": [ {
          "reference": "urn:uuid:60914720-21c4-41c9-9188-b0e3c70a060c"
        } ]
      }, {
        "title": "QuestionnaireResponse",
        "entry": [ {
          "reference": "urn:uuid:286d97e9-3d97-4563-9eea-8bc109c9bfde"
        } ]
      }, {
        "title": "QuestionnaireResponse",
        "entry": [ {
          "reference": "urn:uuid:78e9dee2-1826-4fa5-8609-b8919db907da"
        } ]
      }, {
        "title": "QuestionnaireResponse",
        "entry": [ {
          "reference": "urn:uuid:1c41538e-c07e-44ec-9aa8-7c15a1826540"
        } ]
      }, {
        "title": "QuestionnaireResponse",
        "entry": [ {
          "reference": "urn:uuid:35983a60-17f7-4c0e-8032-ef4afa75af0d"
        } ]
      }, {
        "title": "QuestionnaireResponse",
        "entry": [ {
          "reference": "urn:uuid:bcbdec22-a9c5-4b45-a5b9-65365cbe9f75"
        } ]
      }, {
        "title": "QuestionnaireResponse",
        "entry": [ {
          "reference": "urn:uuid:8b6c3a70-f634-46f9-8d64-c83401e6433c"
        } ]
      }, {
        "title": "QuestionnaireResponse",
        "entry": [ {
          "reference": "urn:uuid:6011ccb8-0359-4928-8706-1a20222ccf49"
        } ]
      }, {
        "title": "QuestionnaireResponse",
        "entry": [ {
          "reference": "urn:uuid:317bf044-6bbd-4e55-be51-27e2547df81d"
        } ]
      }, {
        "title": "QuestionnaireResponse",
        "entry": [ {
          "reference": "urn:uuid:fd1f1caf-423a-4d78-96c2-19402777b892"
        } ]
      }, {
        "title": "QuestionnaireResponse",
        "entry": [ {
          "reference": "urn:uuid:8f462317-f192-45b2-8de4-b6e8de4eec98"
        } ]
      }, {
        "title": "QuestionnaireResponse",
        "entry": [ {
          "reference": "urn:uuid:f5ce253c-66b3-4fbb-88f3-eb94720ac1a9"
        } ]
      }, {
        "title": "QuestionnaireResponse",
        "entry": [ {
          "reference": "urn:uuid:56f8d585-cb24-4702-9aa4-dc6d95a825cf"
        } ]
      }, {
        "title": "QuestionnaireResponse",
        "entry": [ {
          "reference": "urn:uuid:2abba260-e7e6-4460-bb2d-cac26b7549b6"
        } ]
      } ]
    }
  }, {
    "fullUrl": "urn:uuid:e72d0876-2050-48e1-b1c4-1b93384e7b8b",
    "resource": {
      "resourceType": "Consent",
      "id": "e72d0876-2050-48e1-b1c4-1b93384e7b8b",
      "identifier": {
        "use": "usual",
        "value": "B53175B4-0A4A-4503-A6CD-94333AA01645"
      },
      "status": "active",
      "patient": {
        "reference": "urn:uuid:f96b2c67-697a-40e8-b5f3-c94740ca8ed7"
      },
      "period": {
        "start": "2020-10-30T18:28:13+00:00",
        "end": "2020-10-30T18:28:58+00:00"
      },
      "consentingParty": [ {
        "reference": "urn:uuid:f96b2c67-697a-40e8-b5f3-c94740ca8ed7"
      } ],
      "action": [ {
        "coding": [ {
          "system": "http://snomed.info/sct",
          "code": "425691002",
          "display": "Consent given for electronic record sharing"
        } ],
        "text": "Consent given for electronic record sharing"
      } ],
      "organization": [ {
        "reference": "urn:uuid:caac7dd2-278d-4cbe-8f8a-04b670ba5c4e"
      } ],
      "policyRule": "http://hl7.org/fhir/ConsentPolicy/opt-out",
      "data": [ {
        "meaning": "related",
        "reference": {
          "reference": "urn:uuid:ca87bc70-d2ff-46bb-b4ad-0c7563bb0fad"
        }
      } ]
    }
  }, {
    "fullUrl": "urn:uuid:3fd6bbb0-4216-4502-9b8f-2d1411b152af",
    "resource": {
      "resourceType": "Condition",
      "id": "3fd6bbb0-4216-4502-9b8f-2d1411b152af",
      "clinicalStatus": "active",
      "verificationStatus": "unknown",
      "subject": {
        "reference": "urn:uuid:f96b2c67-697a-40e8-b5f3-c94740ca8ed7"
      },
      "context": {
        "reference": "urn:uuid:ca87bc70-d2ff-46bb-b4ad-0c7563bb0fad"
      },
      "evidence": [ {
        "detail": [ {
          "reference": "urn:uuid:a546e6f0-42c3-4c03-bf20-d9c6a589d074"
        } ]
      }, {
        "detail": [ {
          "reference": "urn:uuid:3c95a626-1ad6-435d-b584-7812b6c0579d"
        } ]
      }, {
        "detail": [ {
          "reference": "urn:uuid:3c05a3ab-f251-4575-ac90-8b847d1d13ba"
        } ]
      }, {
        "detail": [ {
          "reference": "urn:uuid:0f3270a1-c4d5-4d42-8469-131cbdc5bf02"
        } ]
      }, {
        "detail": [ {
          "reference": "urn:uuid:1f15f33b-d4d5-4de3-a701-a5190c483e74"
        } ]
      }, {
        "detail": [ {
          "reference": "urn:uuid:87493f6b-cf90-415d-8464-f6e970e3bb92"
        } ]
      }, {
        "detail": [ {
          "reference": "urn:uuid:d31c81f0-b9a6-42d6-9f12-4716b89108af"
        } ]
      }, {
        "detail": [ {
          "reference": "urn:uuid:da376647-4c25-4cc4-a86f-4d226b6901f4"
        } ]
      }, {
        "detail": [ {
          "reference": "urn:uuid:65395062-edff-466b-b902-7cef13bebaa7"
        } ]
      }, {
        "detail": [ {
          "reference": "urn:uuid:60914720-21c4-41c9-9188-b0e3c70a060c"
        } ]
      }, {
        "detail": [ {
          "reference": "urn:uuid:286d97e9-3d97-4563-9eea-8bc109c9bfde"
        } ]
      }, {
        "detail": [ {
          "reference": "urn:uuid:78e9dee2-1826-4fa5-8609-b8919db907da"
        } ]
      }, {
        "detail": [ {
          "reference": "urn:uuid:1c41538e-c07e-44ec-9aa8-7c15a1826540"
        } ]
      }, {
        "detail": [ {
          "reference": "urn:uuid:35983a60-17f7-4c0e-8032-ef4afa75af0d"
        } ]
      }, {
        "detail": [ {
          "reference": "urn:uuid:bcbdec22-a9c5-4b45-a5b9-65365cbe9f75"
        } ]
      }, {
        "detail": [ {
          "reference": "urn:uuid:8b6c3a70-f634-46f9-8d64-c83401e6433c"
        } ]
      }, {
        "detail": [ {
          "reference": "urn:uuid:6011ccb8-0359-4928-8706-1a20222ccf49"
        } ]
      }, {
        "detail": [ {
          "reference": "urn:uuid:317bf044-6bbd-4e55-be51-27e2547df81d"
        } ]
      }, {
        "detail": [ {
          "reference": "urn:uuid:fd1f1caf-423a-4d78-96c2-19402777b892"
        } ]
      }, {
        "detail": [ {
          "reference": "urn:uuid:8f462317-f192-45b2-8de4-b6e8de4eec98"
        } ]
      }, {
        "detail": [ {
          "reference": "urn:uuid:f5ce253c-66b3-4fbb-88f3-eb94720ac1a9"
        } ]
      }, {
        "detail": [ {
          "reference": "urn:uuid:56f8d585-cb24-4702-9aa4-dc6d95a825cf"
        } ]
      }, {
        "detail": [ {
          "reference": "urn:uuid:2abba260-e7e6-4460-bb2d-cac26b7549b6"
        } ]
      } ]
    }
  }, {
    "fullUrl": "urn:uuid:a546e6f0-42c3-4c03-bf20-d9c6a589d074",
    "resource": {
      "resourceType": "QuestionnaireResponse",
      "id": "a546e6f0-42c3-4c03-bf20-d9c6a589d074",
      "identifier": {
        "value": "7434927"
      },
      "questionnaire": {
        "reference": "urn:uuid:879aadbd-a5bf-4d43-93d9-97c160b3dc02"
      },
      "status": "completed",
      "subject": {
        "reference": "urn:uuid:f96b2c67-697a-40e8-b5f3-c94740ca8ed7"
      },
      "context": {
        "reference": "urn:uuid:ca87bc70-d2ff-46bb-b4ad-0c7563bb0fad"
      },
      "authored": "2020-10-30T18:29:05+00:00",
      "item": [ {
        "linkId": "Tx220074",
        "text": "What is the reason for the contact?",
        "answer": [ {
          "valueString": "an injury or other health problem"
        } ]
      } ]
    }
  }, {
    "fullUrl": "urn:uuid:879aadbd-a5bf-4d43-93d9-97c160b3dc02",
    "resource": {
      "resourceType": "Questionnaire",
      "id": "879aadbd-a5bf-4d43-93d9-97c160b3dc02",
      "identifier": [ {
        "value": "7434927"
      } ],
      "version": "2020-10-30T18:29:05.808Z",
      "status": "active",
      "experimental": false,
      "date": "2020-10-30T18:29:05+00:00",
      "publisher": "User ID: 'RB12' User name: 'Rachel Boyer' User skill set: 'T3'",
      "lastReviewDate": "2020-10-30",
      "subjectType": [ "Patient" ],
      "item": [ {
        "linkId": "7434927",
        "prefix": "5",
        "text": "What is the reason for the contact?",
        "type": "choice",
        "required": true,
        "repeats": false,
        "option": [ {
          "valueString": "an injury or other health problem, Selected: true"
        }, {
          "valueString": "labour or childbirth, Selected: false"
        }, {
          "valueString": "a need to access another healthcare service, Selected: false"
        }, {
          "valueString": "a healthcare professional requesting contact with another clinician, Selected: false"
        }, {
          "valueString": "a report of results or tests, Selected: false"
        }, {
          "valueString": "a possible failure of contraception, Selected: false"
        }, {
          "valueString": "more, Selected: false"
        } ]
      } ]
    }
  }, {
    "fullUrl": "urn:uuid:3c95a626-1ad6-435d-b584-7812b6c0579d",
    "resource": {
      "resourceType": "QuestionnaireResponse",
      "id": "3c95a626-1ad6-435d-b584-7812b6c0579d",
      "identifier": {
        "value": "7434927"
      },
      "questionnaire": {
        "reference": "urn:uuid:2d10933c-b653-489e-abde-e9f4ea51a789"
      },
      "status": "completed",
      "subject": {
        "reference": "urn:uuid:f96b2c67-697a-40e8-b5f3-c94740ca8ed7"
      },
      "context": {
        "reference": "urn:uuid:ca87bc70-d2ff-46bb-b4ad-0c7563bb0fad"
      },
      "authored": "2020-10-30T18:29:05+00:00",
      "item": [ {
        "linkId": "Tx221807",
        "text": "STRING:to'Immediatethreatstolife(SPA/OOHversion)'-'Majorbloodloss'stem",
        "answer": [ {
          "valueString": "\"present\""
        } ]
      } ]
    }
  }, {
    "fullUrl": "urn:uuid:2d10933c-b653-489e-abde-e9f4ea51a789",
    "resource": {
      "resourceType": "Questionnaire",
      "id": "2d10933c-b653-489e-abde-e9f4ea51a789",
      "identifier": [ {
        "value": "7434927"
      } ],
      "version": "2020-10-30T18:29:05.808Z",
      "status": "active",
      "experimental": false,
      "date": "2020-10-30T18:29:05+00:00",
      "publisher": "User ID: 'RB12' User name: 'Rachel Boyer' User skill set: 'T3'",
      "lastReviewDate": "2020-10-30",
      "subjectType": [ "Patient" ],
      "item": [ {
        "linkId": "7434927",
        "prefix": "200",
        "text": "STRING:to'Immediatethreatstolife(SPA/OOHversion)'-'Majorbloodloss'stem",
        "type": "choice",
        "required": true,
        "repeats": false,
        "option": [ {
          "valueString": "\"present\", Selected: true"
        } ]
      } ]
    }
  }, {
    "fullUrl": "urn:uuid:3c05a3ab-f251-4575-ac90-8b847d1d13ba",
    "resource": {
      "resourceType": "QuestionnaireResponse",
      "id": "3c05a3ab-f251-4575-ac90-8b847d1d13ba",
      "identifier": {
        "value": "7434927"
      },
      "questionnaire": {
        "reference": "urn:uuid:03292a07-d342-4c9f-b426-b98aa9ab639c"
      },
      "status": "completed",
      "subject": {
        "reference": "urn:uuid:f96b2c67-697a-40e8-b5f3-c94740ca8ed7"
      },
      "context": {
        "reference": "urn:uuid:ca87bc70-d2ff-46bb-b4ad-0c7563bb0fad"
      },
      "authored": "2020-10-30T18:29:05+00:00"
    }
  }, {
    "fullUrl": "urn:uuid:03292a07-d342-4c9f-b426-b98aa9ab639c",
    "resource": {
      "resourceType": "Questionnaire",
      "id": "03292a07-d342-4c9f-b426-b98aa9ab639c",
      "identifier": [ {
        "value": "7434927"
      } ],
      "version": "2020-10-30T18:29:05.808Z",
      "status": "active",
      "experimental": false,
      "date": "2020-10-30T18:29:05+00:00",
      "publisher": "User ID: 'RB12' User name: 'Rachel Boyer' User skill set: 'T3'",
      "lastReviewDate": "2020-10-30",
      "subjectType": [ "Patient" ]
    }
  }, {
    "fullUrl": "urn:uuid:0f3270a1-c4d5-4d42-8469-131cbdc5bf02",
    "resource": {
      "resourceType": "QuestionnaireResponse",
      "id": "0f3270a1-c4d5-4d42-8469-131cbdc5bf02",
      "identifier": {
        "value": "7434927"
      },
      "questionnaire": {
        "reference": "urn:uuid:a6563460-1106-4ce5-9eee-0d8ac6f96269"
      },
      "status": "completed",
      "subject": {
        "reference": "urn:uuid:f96b2c67-697a-40e8-b5f3-c94740ca8ed7"
      },
      "context": {
        "reference": "urn:uuid:ca87bc70-d2ff-46bb-b4ad-0c7563bb0fad"
      },
      "authored": "2020-10-30T18:29:05+00:00",
      "item": [ {
        "linkId": "Tx221799",
        "text": "STRING:injury,illnessorlabourestablishedinEntryFlow",
        "answer": [ {
          "valueString": "\"present\""
        } ]
      } ]
    }
  }, {
    "fullUrl": "urn:uuid:a6563460-1106-4ce5-9eee-0d8ac6f96269",
    "resource": {
      "resourceType": "Questionnaire",
      "id": "a6563460-1106-4ce5-9eee-0d8ac6f96269",
      "identifier": [ {
        "value": "7434927"
      } ],
      "version": "2020-10-30T18:29:05.808Z",
      "status": "active",
      "experimental": false,
      "date": "2020-10-30T18:29:05+00:00",
      "publisher": "User ID: 'RB12' User name: 'Rachel Boyer' User skill set: 'T3'",
      "lastReviewDate": "2020-10-30",
      "subjectType": [ "Patient" ],
      "item": [ {
        "linkId": "7434927",
        "prefix": "0",
        "text": "STRING:injury,illnessorlabourestablishedinEntryFlow",
        "type": "choice",
        "required": true,
        "repeats": false,
        "option": [ {
          "valueString": "\"present\", Selected: true"
        } ]
      } ]
    }
  }, {
    "fullUrl": "urn:uuid:1f15f33b-d4d5-4de3-a701-a5190c483e74",
    "resource": {
      "resourceType": "QuestionnaireResponse",
      "id": "1f15f33b-d4d5-4de3-a701-a5190c483e74",
      "identifier": {
        "value": "7434927"
      },
      "questionnaire": {
        "reference": "urn:uuid:d6d87a92-1f40-4eee-9322-2a04a35be566"
      },
      "status": "completed",
      "subject": {
        "reference": "urn:uuid:f96b2c67-697a-40e8-b5f3-c94740ca8ed7"
      },
      "context": {
        "reference": "urn:uuid:ca87bc70-d2ff-46bb-b4ad-0c7563bb0fad"
      },
      "authored": "2020-10-30T18:29:05+00:00",
      "item": [ {
        "linkId": "Tx224120",
        "text": "Have you been bleeding RED BLOOD very heavily IN THE LAST 2 HOURS?",
        "answer": [ {
          "valueString": "no"
        } ]
      } ]
    }
  }, {
    "fullUrl": "urn:uuid:d6d87a92-1f40-4eee-9322-2a04a35be566",
    "resource": {
      "resourceType": "Questionnaire",
      "id": "d6d87a92-1f40-4eee-9322-2a04a35be566",
      "identifier": [ {
        "value": "7434927"
      } ],
      "version": "2020-10-30T18:29:05.808Z",
      "status": "active",
      "experimental": false,
      "date": "2020-10-30T18:29:05+00:00",
      "publisher": "User ID: 'RB12' User name: 'Rachel Boyer' User skill set: 'T3'",
      "lastReviewDate": "2020-10-30",
      "subjectType": [ "Patient" ],
      "item": [ {
        "linkId": "7434927",
        "prefix": "10100",
        "text": "Have you been bleeding RED BLOOD very heavily IN THE LAST 2 HOURS?",
        "type": "choice",
        "required": true,
        "repeats": false,
        "option": [ {
          "valueString": "yes, Selected: false"
        }, {
          "valueString": "not sure, Selected: false"
        }, {
          "valueString": "no, Selected: true"
        } ]
      } ]
    }
  }, {
    "fullUrl": "urn:uuid:87493f6b-cf90-415d-8464-f6e970e3bb92",
    "resource": {
      "resourceType": "QuestionnaireResponse",
      "id": "87493f6b-cf90-415d-8464-f6e970e3bb92",
      "identifier": {
        "value": "7434927"
      },
      "questionnaire": {
        "reference": "urn:uuid:ff184c3e-5daf-4f0e-a4d5-67435094c59c"
      },
      "status": "completed",
      "subject": {
        "reference": "urn:uuid:f96b2c67-697a-40e8-b5f3-c94740ca8ed7"
      },
      "context": {
        "reference": "urn:uuid:ca87bc70-d2ff-46bb-b4ad-0c7563bb0fad"
      },
      "authored": "2020-10-30T18:29:05+00:00",
      "item": [ {
        "linkId": "Tx221343",
        "text": "SocialConcernsExcluded",
        "answer": [ {
          "valueString": "==\"present\""
        } ]
      } ]
    }
  }, {
    "fullUrl": "urn:uuid:ff184c3e-5daf-4f0e-a4d5-67435094c59c",
    "resource": {
      "resourceType": "Questionnaire",
      "id": "ff184c3e-5daf-4f0e-a4d5-67435094c59c",
      "identifier": [ {
        "value": "7434927"
      } ],
      "version": "2020-10-30T18:29:05.808Z",
      "status": "active",
      "experimental": false,
      "date": "2020-10-30T18:29:05+00:00",
      "publisher": "User ID: 'RB12' User name: 'Rachel Boyer' User skill set: 'T3'",
      "lastReviewDate": "2020-10-30",
      "subjectType": [ "Patient" ],
      "item": [ {
        "linkId": "7434927",
        "prefix": "1100",
        "text": "SocialConcernsExcluded",
        "type": "choice",
        "required": true,
        "repeats": false,
        "option": [ {
          "valueString": "==\"present\", Selected: true"
        }, {
          "valueString": "*, Selected: false"
        } ]
      } ]
    }
  }, {
    "fullUrl": "urn:uuid:d31c81f0-b9a6-42d6-9f12-4716b89108af",
    "resource": {
      "resourceType": "QuestionnaireResponse",
      "id": "d31c81f0-b9a6-42d6-9f12-4716b89108af",
      "identifier": {
        "value": "7434927"
      },
      "questionnaire": {
        "reference": "urn:uuid:7a8e1c40-83cd-4ef3-915c-686a2ba770cb"
      },
      "status": "completed",
      "subject": {
        "reference": "urn:uuid:f96b2c67-697a-40e8-b5f3-c94740ca8ed7"
      },
      "context": {
        "reference": "urn:uuid:ca87bc70-d2ff-46bb-b4ad-0c7563bb0fad"
      },
      "authored": "2020-10-30T18:29:05+00:00",
      "item": [ {
        "linkId": "Tx130011",
        "text": "What is the main problem?",
        "answer": [ {
          "valueString": "illness or other health problem (specify)"
        } ]
      } ]
    }
  }, {
    "fullUrl": "urn:uuid:7a8e1c40-83cd-4ef3-915c-686a2ba770cb",
    "resource": {
      "resourceType": "Questionnaire",
      "id": "7a8e1c40-83cd-4ef3-915c-686a2ba770cb",
      "identifier": [ {
        "value": "7434927"
      } ],
      "version": "2020-10-30T18:29:05.808Z",
      "status": "active",
      "experimental": false,
      "date": "2020-10-30T18:29:05+00:00",
      "publisher": "User ID: 'RB12' User name: 'Rachel Boyer' User skill set: 'T3'",
      "lastReviewDate": "2020-10-30",
      "subjectType": [ "Patient" ],
      "item": [ {
        "linkId": "7434927",
        "prefix": "2300",
        "text": "What is the main problem?",
        "type": "choice",
        "required": true,
        "repeats": false,
        "option": [ {
          "valueString": "the individual has been told to follow a particular course of action (specify), Selected: false"
        }, {
          "valueString": "the individual is an identified frequent caller, Selected: false"
        }, {
          "valueString": "injury (specify), Selected: false"
        }, {
          "valueString": "illness or other health problem (specify), Selected: true"
        }, {
          "valueString": "child protection/vulnerable adult concern, Selected: false"
        }, {
          "valueString": "social or domestic emergency, Selected: false"
        }, {
          "valueString": "the environment potentially poses an immediate threat to life (specify), Selected: false"
        } ]
      } ]
    }
  }, {
    "fullUrl": "urn:uuid:da376647-4c25-4cc4-a86f-4d226b6901f4",
    "resource": {
      "resourceType": "QuestionnaireResponse",
      "id": "da376647-4c25-4cc4-a86f-4d226b6901f4",
      "identifier": {
        "value": "7434927"
      },
      "questionnaire": {
        "reference": "urn:uuid:4f49a76a-1dcb-4640-b134-c76b28eda1a1"
      },
      "status": "completed",
      "subject": {
        "reference": "urn:uuid:f96b2c67-697a-40e8-b5f3-c94740ca8ed7"
      },
      "context": {
        "reference": "urn:uuid:ca87bc70-d2ff-46bb-b4ad-0c7563bb0fad"
      },
      "authored": "2020-10-30T18:29:05+00:00"
    }
  }, {
    "fullUrl": "urn:uuid:4f49a76a-1dcb-4640-b134-c76b28eda1a1",
    "resource": {
      "resourceType": "Questionnaire",
      "id": "4f49a76a-1dcb-4640-b134-c76b28eda1a1",
      "identifier": [ {
        "value": "7434927"
      } ],
      "version": "2020-10-30T18:29:05.808Z",
      "status": "active",
      "experimental": false,
      "date": "2020-10-30T18:29:05+00:00",
      "publisher": "User ID: 'RB12' User name: 'Rachel Boyer' User skill set: 'T3'",
      "lastReviewDate": "2020-10-30",
      "subjectType": [ "Patient" ]
    }
  }, {
    "fullUrl": "urn:uuid:65395062-edff-466b-b902-7cef13bebaa7",
    "resource": {
      "resourceType": "QuestionnaireResponse",
      "id": "65395062-edff-466b-b902-7cef13bebaa7",
      "identifier": {
        "value": "7434927"
      },
      "questionnaire": {
        "reference": "urn:uuid:d3e0a611-b73b-4128-a704-a99959eee091"
      },
      "status": "completed",
      "subject": {
        "reference": "urn:uuid:f96b2c67-697a-40e8-b5f3-c94740ca8ed7"
      },
      "context": {
        "reference": "urn:uuid:ca87bc70-d2ff-46bb-b4ad-0c7563bb0fad"
      },
      "authored": "2020-10-30T18:29:05+00:00",
      "item": [ {
        "linkId": "Tx61025",
        "text": "Are you so breathless that speaking more than a few words is impossible?",
        "answer": [ {
          "valueString": "no"
        } ]
      } ]
    }
  }, {
    "fullUrl": "urn:uuid:d3e0a611-b73b-4128-a704-a99959eee091",
    "resource": {
      "resourceType": "Questionnaire",
      "id": "d3e0a611-b73b-4128-a704-a99959eee091",
      "identifier": [ {
        "value": "7434927"
      } ],
      "version": "2020-10-30T18:29:05.808Z",
      "status": "active",
      "experimental": false,
      "date": "2020-10-30T18:29:05+00:00",
      "publisher": "User ID: 'RB12' User name: 'Rachel Boyer' User skill set: 'T3'",
      "lastReviewDate": "2020-10-30",
      "subjectType": [ "Patient" ],
      "item": [ {
        "linkId": "7434927",
        "prefix": "0",
        "text": "Are you so breathless that speaking more than a few words is impossible?",
        "type": "choice",
        "required": true,
        "repeats": false,
        "option": [ {
          "valueString": "yes, Selected: false"
        }, {
          "valueString": "not sure, Selected: false"
        }, {
          "valueString": "no, Selected: true"
        } ]
      } ]
    }
  }, {
    "fullUrl": "urn:uuid:60914720-21c4-41c9-9188-b0e3c70a060c",
    "resource": {
      "resourceType": "QuestionnaireResponse",
      "id": "60914720-21c4-41c9-9188-b0e3c70a060c",
      "identifier": {
        "value": "7434927"
      },
      "questionnaire": {
        "reference": "urn:uuid:fada4745-a84f-42fe-8324-dc8de15d422d"
      },
      "status": "completed",
      "subject": {
        "reference": "urn:uuid:f96b2c67-697a-40e8-b5f3-c94740ca8ed7"
      },
      "context": {
        "reference": "urn:uuid:ca87bc70-d2ff-46bb-b4ad-0c7563bb0fad"
      },
      "authored": "2020-10-30T18:29:05+00:00",
      "item": [ {
        "linkId": "Tx220845",
        "text": "SYSTEM_FLUPANDEMIC",
        "answer": [ {
          "valueString": "==\"pandemic\""
        } ]
      } ]
    }
  }, {
    "fullUrl": "urn:uuid:fada4745-a84f-42fe-8324-dc8de15d422d",
    "resource": {
      "resourceType": "Questionnaire",
      "id": "fada4745-a84f-42fe-8324-dc8de15d422d",
      "identifier": [ {
        "value": "7434927"
      } ],
      "version": "2020-10-30T18:29:05.808Z",
      "status": "active",
      "experimental": false,
      "date": "2020-10-30T18:29:05+00:00",
      "publisher": "User ID: 'RB12' User name: 'Rachel Boyer' User skill set: 'T3'",
      "lastReviewDate": "2020-10-30",
      "subjectType": [ "Patient" ],
      "item": [ {
        "linkId": "7434927",
        "prefix": "100",
        "text": "SYSTEM_FLUPANDEMIC",
        "type": "choice",
        "required": true,
        "repeats": false,
        "option": [ {
          "valueString": "==\"pandemic\", Selected: true"
        }, {
          "valueString": "*, Selected: false"
        } ]
      } ]
    }
  }, {
    "fullUrl": "urn:uuid:286d97e9-3d97-4563-9eea-8bc109c9bfde",
    "resource": {
      "resourceType": "QuestionnaireResponse",
      "id": "286d97e9-3d97-4563-9eea-8bc109c9bfde",
      "identifier": {
        "value": "7434927"
      },
      "questionnaire": {
        "reference": "urn:uuid:25db4ff0-96ac-4430-b350-994d68266c43"
      },
      "status": "completed",
      "subject": {
        "reference": "urn:uuid:f96b2c67-697a-40e8-b5f3-c94740ca8ed7"
      },
      "context": {
        "reference": "urn:uuid:ca87bc70-d2ff-46bb-b4ad-0c7563bb0fad"
      },
      "authored": "2020-10-30T18:29:05+00:00",
      "item": [ {
        "linkId": "Tx223440",
        "text": "WHAT IS SAID TO BE THE MAIN REASON FOR THIS CONTACT?",
        "answer": [ {
          "valueString": "more"
        } ]
      } ]
    }
  }, {
    "fullUrl": "urn:uuid:25db4ff0-96ac-4430-b350-994d68266c43",
    "resource": {
      "resourceType": "Questionnaire",
      "id": "25db4ff0-96ac-4430-b350-994d68266c43",
      "identifier": [ {
        "value": "7434927"
      } ],
      "version": "2020-10-30T18:29:05.808Z",
      "status": "active",
      "experimental": false,
      "date": "2020-10-30T18:29:05+00:00",
      "publisher": "User ID: 'RB12' User name: 'Rachel Boyer' User skill set: 'T3'",
      "lastReviewDate": "2020-10-30",
      "subjectType": [ "Patient" ],
      "item": [ {
        "linkId": "7434927",
        "prefix": "5200",
        "text": "WHAT IS SAID TO BE THE MAIN REASON FOR THIS CONTACT?",
        "type": "choice",
        "required": true,
        "repeats": false,
        "option": [ {
          "valueString": "a probable allergic reaction now, Selected: false"
        }, {
          "valueString": "a probable heart attack, Selected: false"
        }, {
          "valueString": "chest or upper back pain, Selected: false"
        }, {
          "valueString": "a probable stroke or mini-stroke, Selected: false"
        }, {
          "valueString": "a probable fit or seizure within the last 12 hours, Selected: false"
        }, {
          "valueString": "a suicide attempt, Selected: false"
        }, {
          "valueString": "more, Selected: true"
        } ]
      } ]
    }
  }, {
    "fullUrl": "urn:uuid:78e9dee2-1826-4fa5-8609-b8919db907da",
    "resource": {
      "resourceType": "QuestionnaireResponse",
      "id": "78e9dee2-1826-4fa5-8609-b8919db907da",
      "identifier": {
        "value": "7434927"
      },
      "questionnaire": {
        "reference": "urn:uuid:708681d2-a708-484d-8455-3982a1b13836"
      },
      "status": "completed",
      "subject": {
        "reference": "urn:uuid:f96b2c67-697a-40e8-b5f3-c94740ca8ed7"
      },
      "context": {
        "reference": "urn:uuid:ca87bc70-d2ff-46bb-b4ad-0c7563bb0fad"
      },
      "authored": "2020-10-30T18:29:05+00:00",
      "item": [ {
        "linkId": "Tx220032",
        "text": "WHAT IS SAID TO BE THE MAIN REASON FOR THIS CONTACT?",
        "answer": [ {
          "valueString": "none of the above"
        } ]
      } ]
    }
  }, {
    "fullUrl": "urn:uuid:708681d2-a708-484d-8455-3982a1b13836",
    "resource": {
      "resourceType": "Questionnaire",
      "id": "708681d2-a708-484d-8455-3982a1b13836",
      "identifier": [ {
        "value": "7434927"
      } ],
      "version": "2020-10-30T18:29:05.808Z",
      "status": "active",
      "experimental": false,
      "date": "2020-10-30T18:29:05+00:00",
      "publisher": "User ID: 'RB12' User name: 'Rachel Boyer' User skill set: 'T3'",
      "lastReviewDate": "2020-10-30",
      "subjectType": [ "Patient" ],
      "item": [ {
        "linkId": "7434927",
        "prefix": "2200",
        "text": "WHAT IS SAID TO BE THE MAIN REASON FOR THIS CONTACT?",
        "type": "choice",
        "required": true,
        "repeats": false,
        "option": [ {
          "valueString": "new confusion now, Selected: false"
        }, {
          "valueString": "a diabetic hypo (low blood sugar) or a diabetic hyper (high blood sugar), Selected: false"
        }, {
          "valueString": "recovery from an ICD (implanted cardioverter defibrillator) shock, Selected: false"
        }, {
          "valueString": "none of the above, Selected: true"
        } ]
      } ]
    }
  }, {
    "fullUrl": "urn:uuid:1c41538e-c07e-44ec-9aa8-7c15a1826540",
    "resource": {
      "resourceType": "QuestionnaireResponse",
      "id": "1c41538e-c07e-44ec-9aa8-7c15a1826540",
      "identifier": {
        "value": "7434927"
      },
      "questionnaire": {
        "reference": "urn:uuid:9e837e6c-cc75-4adb-8cdf-2232c231ba18"
      },
      "status": "completed",
      "subject": {
        "reference": "urn:uuid:f96b2c67-697a-40e8-b5f3-c94740ca8ed7"
      },
      "context": {
        "reference": "urn:uuid:ca87bc70-d2ff-46bb-b4ad-0c7563bb0fad"
      },
      "authored": "2020-10-30T18:29:05+00:00",
      "item": [ {
        "linkId": "Tx223142",
        "text": "Does the skin on the chest, back or abdomen feel a normal temperature?",
        "answer": [ {
          "valueString": "yes - normal, warm or hot"
        } ]
      } ]
    }
  }, {
    "fullUrl": "urn:uuid:9e837e6c-cc75-4adb-8cdf-2232c231ba18",
    "resource": {
      "resourceType": "Questionnaire",
      "id": "9e837e6c-cc75-4adb-8cdf-2232c231ba18",
      "identifier": [ {
        "value": "7434927"
      } ],
      "version": "2020-10-30T18:29:05.808Z",
      "status": "active",
      "experimental": false,
      "date": "2020-10-30T18:29:05+00:00",
      "publisher": "User ID: 'RB12' User name: 'Rachel Boyer' User skill set: 'T3'",
      "lastReviewDate": "2020-10-30",
      "subjectType": [ "Patient" ],
      "item": [ {
        "linkId": "7434927",
        "prefix": "4200",
        "text": "Does the skin on the chest, back or abdomen feel a normal temperature?",
        "type": "choice",
        "required": true,
        "repeats": false,
        "option": [ {
          "valueString": "yes - normal, warm or hot, Selected: true"
        }, {
          "valueString": "not sure, Selected: false"
        }, {
          "valueString": "no - cool OR cold, Selected: false"
        }, {
          "valueString": "not safe to touch, Selected: false"
        } ]
      } ]
    }
  }, {
    "fullUrl": "urn:uuid:35983a60-17f7-4c0e-8032-ef4afa75af0d",
    "resource": {
      "resourceType": "QuestionnaireResponse",
      "id": "35983a60-17f7-4c0e-8032-ef4afa75af0d",
      "identifier": {
        "value": "7434927"
      },
      "questionnaire": {
        "reference": "urn:uuid:8f38e0d8-eb69-4522-a5c4-65ade4a5bf0f"
      },
      "status": "completed",
      "subject": {
        "reference": "urn:uuid:f96b2c67-697a-40e8-b5f3-c94740ca8ed7"
      },
      "context": {
        "reference": "urn:uuid:ca87bc70-d2ff-46bb-b4ad-0c7563bb0fad"
      },
      "authored": "2020-10-30T18:29:05+00:00",
      "item": [ {
        "linkId": "Tx221724",
        "text": "STRING:ShockAsked",
        "answer": [ {
          "valueString": "\"present\""
        } ]
      } ]
    }
  }, {
    "fullUrl": "urn:uuid:8f38e0d8-eb69-4522-a5c4-65ade4a5bf0f",
    "resource": {
      "resourceType": "Questionnaire",
      "id": "8f38e0d8-eb69-4522-a5c4-65ade4a5bf0f",
      "identifier": [ {
        "value": "7434927"
      } ],
      "version": "2020-10-30T18:29:05.808Z",
      "status": "active",
      "experimental": false,
      "date": "2020-10-30T18:29:05+00:00",
      "publisher": "User ID: 'RB12' User name: 'Rachel Boyer' User skill set: 'T3'",
      "lastReviewDate": "2020-10-30",
      "subjectType": [ "Patient" ],
      "item": [ {
        "linkId": "7434927",
        "prefix": "3700",
        "text": "STRING:ShockAsked",
        "type": "choice",
        "required": true,
        "repeats": false,
        "option": [ {
          "valueString": "\"present\", Selected: true"
        } ]
      } ]
    }
  }, {
    "fullUrl": "urn:uuid:bcbdec22-a9c5-4b45-a5b9-65365cbe9f75",
    "resource": {
      "resourceType": "QuestionnaireResponse",
      "id": "bcbdec22-a9c5-4b45-a5b9-65365cbe9f75",
      "identifier": {
        "value": "7434927"
      },
      "questionnaire": {
        "reference": "urn:uuid:055dbc3f-952a-40c2-907b-1108bf08705e"
      },
      "status": "completed",
      "subject": {
        "reference": "urn:uuid:f96b2c67-697a-40e8-b5f3-c94740ca8ed7"
      },
      "context": {
        "reference": "urn:uuid:ca87bc70-d2ff-46bb-b4ad-0c7563bb0fad"
      },
      "authored": "2020-10-30T18:29:05+00:00"
    }
  }, {
    "fullUrl": "urn:uuid:055dbc3f-952a-40c2-907b-1108bf08705e",
    "resource": {
      "resourceType": "Questionnaire",
      "id": "055dbc3f-952a-40c2-907b-1108bf08705e",
      "identifier": [ {
        "value": "7434927"
      } ],
      "version": "2020-10-30T18:29:05.808Z",
      "status": "active",
      "experimental": false,
      "date": "2020-10-30T18:29:05+00:00",
      "publisher": "User ID: 'RB12' User name: 'Rachel Boyer' User skill set: 'T3'",
      "lastReviewDate": "2020-10-30",
      "subjectType": [ "Patient" ]
    }
  }, {
    "fullUrl": "urn:uuid:8b6c3a70-f634-46f9-8d64-c83401e6433c",
    "resource": {
      "resourceType": "QuestionnaireResponse",
      "id": "8b6c3a70-f634-46f9-8d64-c83401e6433c",
      "identifier": {
        "value": "7434927"
      },
      "questionnaire": {
        "reference": "urn:uuid:c3211cf4-715b-491a-8e1e-14a48b4577e0"
      },
      "status": "completed",
      "subject": {
        "reference": "urn:uuid:f96b2c67-697a-40e8-b5f3-c94740ca8ed7"
      },
      "context": {
        "reference": "urn:uuid:ca87bc70-d2ff-46bb-b4ad-0c7563bb0fad"
      },
      "authored": "2020-10-30T18:29:05+00:00",
      "item": [ {
        "linkId": "Tx42307",
        "text": "Are you feeling faint or dizzy?",
        "answer": [ {
          "valueString": "no"
        } ]
      } ]
    }
  }, {
    "fullUrl": "urn:uuid:c3211cf4-715b-491a-8e1e-14a48b4577e0",
    "resource": {
      "resourceType": "Questionnaire",
      "id": "c3211cf4-715b-491a-8e1e-14a48b4577e0",
      "identifier": [ {
        "value": "7434927"
      } ],
      "version": "2020-10-30T18:29:05.808Z",
      "status": "active",
      "experimental": false,
      "date": "2020-10-30T18:29:05+00:00",
      "publisher": "User ID: 'RB12' User name: 'Rachel Boyer' User skill set: 'T3'",
      "lastReviewDate": "2020-10-30",
      "subjectType": [ "Patient" ],
      "item": [ {
        "linkId": "7434927",
        "prefix": "0",
        "text": "Are you feeling faint or dizzy?",
        "type": "choice",
        "required": true,
        "repeats": false,
        "option": [ {
          "valueString": "yes, Selected: false"
        }, {
          "valueString": "not sure, Selected: false"
        }, {
          "valueString": "no, Selected: true"
        } ]
      } ]
    }
  }, {
    "fullUrl": "urn:uuid:6011ccb8-0359-4928-8706-1a20222ccf49",
    "resource": {
      "resourceType": "QuestionnaireResponse",
      "id": "6011ccb8-0359-4928-8706-1a20222ccf49",
      "identifier": {
        "value": "7434927"
      },
      "questionnaire": {
        "reference": "urn:uuid:102e9017-4ce3-489a-a763-7a27fd2a9571"
      },
      "status": "completed",
      "subject": {
        "reference": "urn:uuid:f96b2c67-697a-40e8-b5f3-c94740ca8ed7"
      },
      "context": {
        "reference": "urn:uuid:ca87bc70-d2ff-46bb-b4ad-0c7563bb0fad"
      },
      "authored": "2020-10-30T18:29:05+00:00",
      "item": [ {
        "linkId": "Tx1260",
        "text": "Is the nose still bleeding?",
        "answer": [ {
          "valueString": "yes"
        } ]
      } ]
    }
  }, {
    "fullUrl": "urn:uuid:102e9017-4ce3-489a-a763-7a27fd2a9571",
    "resource": {
      "resourceType": "Questionnaire",
      "id": "102e9017-4ce3-489a-a763-7a27fd2a9571",
      "identifier": [ {
        "value": "7434927"
      } ],
      "version": "2020-10-30T18:29:05.808Z",
      "status": "active",
      "experimental": false,
      "date": "2020-10-30T18:29:05+00:00",
      "publisher": "User ID: 'RB12' User name: 'Rachel Boyer' User skill set: 'T3'",
      "lastReviewDate": "2020-10-30",
      "subjectType": [ "Patient" ],
      "item": [ {
        "linkId": "7434927",
        "prefix": "100",
        "text": "Is the nose still bleeding?",
        "type": "choice",
        "required": true,
        "repeats": false,
        "option": [ {
          "valueString": "yes, Selected: true"
        }, {
          "valueString": "not sure, Selected: false"
        }, {
          "valueString": "no, Selected: false"
        } ]
      } ]
    }
  }, {
    "fullUrl": "urn:uuid:317bf044-6bbd-4e55-be51-27e2547df81d",
    "resource": {
      "resourceType": "QuestionnaireResponse",
      "id": "317bf044-6bbd-4e55-be51-27e2547df81d",
      "identifier": {
        "value": "7434927"
      },
      "questionnaire": {
        "reference": "urn:uuid:bc1f2c43-7513-4881-9658-5cb888e1d45f"
      },
      "status": "completed",
      "subject": {
        "reference": "urn:uuid:f96b2c67-697a-40e8-b5f3-c94740ca8ed7"
      },
      "context": {
        "reference": "urn:uuid:ca87bc70-d2ff-46bb-b4ad-0c7563bb0fad"
      },
      "authored": "2020-10-30T18:29:05+00:00",
      "item": [ {
        "linkId": "Tx1258",
        "text": "Is anything stuck up the nose?",
        "answer": [ {
          "valueString": "no"
        } ]
      } ]
    }
  }, {
    "fullUrl": "urn:uuid:bc1f2c43-7513-4881-9658-5cb888e1d45f",
    "resource": {
      "resourceType": "Questionnaire",
      "id": "bc1f2c43-7513-4881-9658-5cb888e1d45f",
      "identifier": [ {
        "value": "7434927"
      } ],
      "version": "2020-10-30T18:29:05.808Z",
      "status": "active",
      "experimental": false,
      "date": "2020-10-30T18:29:05+00:00",
      "publisher": "User ID: 'RB12' User name: 'Rachel Boyer' User skill set: 'T3'",
      "lastReviewDate": "2020-10-30",
      "subjectType": [ "Patient" ],
      "item": [ {
        "linkId": "7434927",
        "prefix": "300",
        "text": "Is anything stuck up the nose?",
        "type": "choice",
        "required": true,
        "repeats": false,
        "option": [ {
          "valueString": "yes, Selected: false"
        }, {
          "valueString": "not sure, Selected: false"
        }, {
          "valueString": "no, Selected: true"
        } ]
      } ]
    }
  }, {
    "fullUrl": "urn:uuid:fd1f1caf-423a-4d78-96c2-19402777b892",
    "resource": {
      "resourceType": "QuestionnaireResponse",
      "id": "fd1f1caf-423a-4d78-96c2-19402777b892",
      "identifier": {
        "value": "7434927"
      },
      "questionnaire": {
        "reference": "urn:uuid:b3406e7c-ac3c-4fb8-9ee1-8b80c1d2d1da"
      },
      "status": "completed",
      "subject": {
        "reference": "urn:uuid:f96b2c67-697a-40e8-b5f3-c94740ca8ed7"
      },
      "context": {
        "reference": "urn:uuid:ca87bc70-d2ff-46bb-b4ad-0c7563bb0fad"
      },
      "authored": "2020-10-30T18:29:05+00:00",
      "item": [ {
        "linkId": "Tx1259",
        "text": "Have you pinched the soft part of the nose for AT LEAST 10 MINUTES without a break?",
        "answer": [ {
          "valueString": "yes"
        } ]
      } ]
    }
  }, {
    "fullUrl": "urn:uuid:b3406e7c-ac3c-4fb8-9ee1-8b80c1d2d1da",
    "resource": {
      "resourceType": "Questionnaire",
      "id": "b3406e7c-ac3c-4fb8-9ee1-8b80c1d2d1da",
      "identifier": [ {
        "value": "7434927"
      } ],
      "version": "2020-10-30T18:29:05.808Z",
      "status": "active",
      "experimental": false,
      "date": "2020-10-30T18:29:05+00:00",
      "publisher": "User ID: 'RB12' User name: 'Rachel Boyer' User skill set: 'T3'",
      "lastReviewDate": "2020-10-30",
      "subjectType": [ "Patient" ],
      "item": [ {
        "linkId": "7434927",
        "prefix": "1500",
        "text": "Have you pinched the soft part of the nose for AT LEAST 10 MINUTES without a break?",
        "type": "choice",
        "required": true,
        "repeats": false,
        "option": [ {
          "valueString": "yes, Selected: true"
        }, {
          "valueString": "not sure, Selected: false"
        }, {
          "valueString": "no, Selected: false"
        } ]
      } ]
    }
  }, {
    "fullUrl": "urn:uuid:8f462317-f192-45b2-8de4-b6e8de4eec98",
    "resource": {
      "resourceType": "QuestionnaireResponse",
      "id": "8f462317-f192-45b2-8de4-b6e8de4eec98",
      "identifier": {
        "value": "7434927"
      },
      "questionnaire": {
        "reference": "urn:uuid:a5453d06-b1e5-4d37-bf99-a333d4abb53a"
      },
      "status": "completed",
      "subject": {
        "reference": "urn:uuid:f96b2c67-697a-40e8-b5f3-c94740ca8ed7"
      },
      "context": {
        "reference": "urn:uuid:ca87bc70-d2ff-46bb-b4ad-0c7563bb0fad"
      },
      "authored": "2020-10-30T18:29:05+00:00",
      "item": [ {
        "linkId": "Tx221512",
        "text": "STRING:SDEDFullEDassessmentandmanagementcapability",
        "answer": [ {
          "valueString": "\"ED full ED assessment and management capability\""
        } ]
      } ]
    }
  }, {
    "fullUrl": "urn:uuid:a5453d06-b1e5-4d37-bf99-a333d4abb53a",
    "resource": {
      "resourceType": "Questionnaire",
      "id": "a5453d06-b1e5-4d37-bf99-a333d4abb53a",
      "identifier": [ {
        "value": "7434927"
      } ],
      "version": "2020-10-30T18:29:05.808Z",
      "status": "active",
      "experimental": false,
      "date": "2020-10-30T18:29:05+00:00",
      "publisher": "User ID: 'RB12' User name: 'Rachel Boyer' User skill set: 'T3'",
      "lastReviewDate": "2020-10-30",
      "subjectType": [ "Patient" ],
      "item": [ {
        "linkId": "7434927",
        "prefix": "1700",
        "text": "STRING:SDEDFullEDassessmentandmanagementcapability",
        "type": "choice",
        "required": true,
        "repeats": false,
        "option": [ {
          "valueString": "\"ED full ED assessment and management capability\", Selected: true"
        } ]
      } ]
    }
  }, {
    "fullUrl": "urn:uuid:f5ce253c-66b3-4fbb-88f3-eb94720ac1a9",
    "resource": {
      "resourceType": "QuestionnaireResponse",
      "id": "f5ce253c-66b3-4fbb-88f3-eb94720ac1a9",
      "identifier": {
        "value": "7434927"
      },
      "questionnaire": {
        "reference": "urn:uuid:60b50599-b816-4a9f-8199-99368ebfad18"
      },
      "status": "completed",
      "subject": {
        "reference": "urn:uuid:f96b2c67-697a-40e8-b5f3-c94740ca8ed7"
      },
      "context": {
        "reference": "urn:uuid:ca87bc70-d2ff-46bb-b4ad-0c7563bb0fad"
      },
      "authored": "2020-10-30T18:29:05+00:00"
    }
  }, {
    "fullUrl": "urn:uuid:60b50599-b816-4a9f-8199-99368ebfad18",
    "resource": {
      "resourceType": "Questionnaire",
      "id": "60b50599-b816-4a9f-8199-99368ebfad18",
      "identifier": [ {
        "value": "7434927"
      } ],
      "version": "2020-10-30T18:29:05.808Z",
      "status": "active",
      "experimental": false,
      "date": "2020-10-30T18:29:05+00:00",
      "publisher": "User ID: 'RB12' User name: 'Rachel Boyer' User skill set: 'T3'",
      "lastReviewDate": "2020-10-30",
      "subjectType": [ "Patient" ]
    }
  }, {
    "fullUrl": "urn:uuid:56f8d585-cb24-4702-9aa4-dc6d95a825cf",
    "resource": {
      "resourceType": "QuestionnaireResponse",
      "id": "56f8d585-cb24-4702-9aa4-dc6d95a825cf",
      "identifier": {
        "value": "7434927"
      },
      "questionnaire": {
        "reference": "urn:uuid:922ed040-7f0f-4388-bb21-3a1717a1ea3a"
      },
      "status": "completed",
      "subject": {
        "reference": "urn:uuid:f96b2c67-697a-40e8-b5f3-c94740ca8ed7"
      },
      "context": {
        "reference": "urn:uuid:ca87bc70-d2ff-46bb-b4ad-0c7563bb0fad"
      },
      "authored": "2020-10-30T18:29:05+00:00"
    }
  }, {
    "fullUrl": "urn:uuid:922ed040-7f0f-4388-bb21-3a1717a1ea3a",
    "resource": {
      "resourceType": "Questionnaire",
      "id": "922ed040-7f0f-4388-bb21-3a1717a1ea3a",
      "identifier": [ {
        "value": "7434927"
      } ],
      "version": "2020-10-30T18:29:05.808Z",
      "status": "active",
      "experimental": false,
      "date": "2020-10-30T18:29:05+00:00",
      "publisher": "User ID: 'RB12' User name: 'Rachel Boyer' User skill set: 'T3'",
      "lastReviewDate": "2020-10-30",
      "subjectType": [ "Patient" ]
    }
  }, {
    "fullUrl": "urn:uuid:2abba260-e7e6-4460-bb2d-cac26b7549b6",
    "resource": {
      "resourceType": "QuestionnaireResponse",
      "id": "2abba260-e7e6-4460-bb2d-cac26b7549b6",
      "identifier": {
        "value": "7434927"
      },
      "questionnaire": {
        "reference": "urn:uuid:07b2e2f2-2fd6-4bdc-b870-73922df6a18a"
      },
      "status": "completed",
      "subject": {
        "reference": "urn:uuid:f96b2c67-697a-40e8-b5f3-c94740ca8ed7"
      },
      "context": {
        "reference": "urn:uuid:ca87bc70-d2ff-46bb-b4ad-0c7563bb0fad"
      },
      "authored": "2020-10-30T18:29:05+00:00"
    }
  }, {
    "fullUrl": "urn:uuid:07b2e2f2-2fd6-4bdc-b870-73922df6a18a",
    "resource": {
      "resourceType": "Questionnaire",
      "id": "07b2e2f2-2fd6-4bdc-b870-73922df6a18a",
      "identifier": [ {
        "value": "7434927"
      } ],
      "version": "2020-10-30T18:29:05.808Z",
      "status": "active",
      "experimental": false,
      "date": "2020-10-30T18:29:05+00:00",
      "publisher": "User ID: 'RB12' User name: 'Rachel Boyer' User skill set: 'T3'",
      "lastReviewDate": "2020-10-30",
      "subjectType": [ "Patient" ]
    }
  }, {
    "fullUrl": "urn:uuid:447d321f-61c0-4c9b-97e2-76c92dc404d0",
    "resource": {
      "resourceType": "Observation",
      "id": "447d321f-61c0-4c9b-97e2-76c92dc404d0",
      "status": "final",
      "code": {
        "coding": [ {
          "system": "http://snomed.info/sct",
          "code": "33962009",
          "display": "Presenting complaint"
        } ]
      },
      "subject": {
        "reference": "urn:uuid:f96b2c67-697a-40e8-b5f3-c94740ca8ed7"
      },
      "context": {
        "reference": "urn:uuid:ca87bc70-d2ff-46bb-b4ad-0c7563bb0fad"
      }
    }
  }, {
    "fullUrl": "urn:uuid:8f832e07-33a2-4198-8c10-50f80af8451d",
    "resource": {
      "resourceType": "PractitionerRole",
      "id": "8f832e07-33a2-4198-8c10-50f80af8451d",
      "practitioner": {
        "reference": "urn:uuid:e47ee88f-c1eb-4077-9534-c858c0848e1e"
      },
      "organization": {
        "reference": "urn:uuid:c5f843e6-0a2f-4e84-b4c3-f086462d063d"
      },
      "code": [ {
        "coding": [ {
          "system": "2.16.840.1.113883.2.1.3.2.4.17.339",
          "code": "OTHER",
          "display": "Assessed by"
        } ]
      } ]
    }
  }, {
    "fullUrl": "urn:uuid:c5f843e6-0a2f-4e84-b4c3-f086462d063d",
    "resource": {
      "resourceType": "Organization",
      "id": "c5f843e6-0a2f-4e84-b4c3-f086462d063d",
      "identifier": [ {
        "value": "Y00397"
      } ],
      "name": "Devon 111 (Devon Doctors Group)"
    }
  }, {
    "fullUrl": "urn:uuid:f952d82f-0a9a-45dc-b043-27facd63c9d3",
    "resource": {
      "resourceType": "PractitionerRole",
      "id": "f952d82f-0a9a-45dc-b043-27facd63c9d3",
      "practitioner": {
        "reference": "urn:uuid:0d361ee4-700f-4012-9e00-9dfafe6eb2bb"
      },
      "organization": {
        "reference": "urn:uuid:64c6d0e1-90eb-477b-b8ec-19fd6af151c1"
      },
      "code": [ {
        "coding": [ {
          "system": "2.16.840.1.113883.2.1.3.2.4.17.196",
          "code": "R0010",
          "display": "Medical Director"
        } ]
      } ]
    }
  }, {
    "fullUrl": "urn:uuid:64c6d0e1-90eb-477b-b8ec-19fd6af151c1",
    "resource": {
      "resourceType": "Organization",
      "id": "64c6d0e1-90eb-477b-b8ec-19fd6af151c1",
      "identifier": [ {
        "value": "Y00397"
      } ],
      "name": "Devon Doctors Group"
    }
  }, {
    "fullUrl": "urn:uuid:d2751a4e-4249-4ca3-9b98-f4c06bae874b",
    "resource": {
      "resourceType": "RelatedPerson",
      "id": "d2751a4e-4249-4ca3-9b98-f4c06bae874b",
      "patient": {
        "reference": "urn:uuid:f96b2c67-697a-40e8-b5f3-c94740ca8ed7"
      },
      "relationship": {
        "coding": [ {
          "system": "http://hl7.org/fhir/v2/0131",
          "code": "C",
          "display": "Emergency Contact"
        } ]
      },
      "telecom": [ {
        "system": "phone",
        "value": "tel:01702123456"
      } ]
    }
  }, {
    "fullUrl": "urn:uuid:3f4876a1-c11e-4c89-a44a-fee3700b1fd5",
    "resource": {
      "resourceType": "Device",
      "id": "3f4876a1-c11e-4c89-a44a-fee3700b1fd5",
      "model": "111 Adaptor",
      "version": "1.0.1"
    }
  }, {
    "fullUrl": "urn:uuid:37aef69e-91d8-4a5d-967c-7cea3fc1856c",
    "resource": {
      "resourceType": "List",
      "id": "37aef69e-91d8-4a5d-967c-7cea3fc1856c",
      "status": "current",
      "mode": "working",
      "title": "111 Report List",
      "code": {
        "coding": [ {
          "system": "http://snomed.info/sct",
          "code": "225390008",
          "display": "Triage"
        } ]
      },
      "subject": {
        "reference": "urn:uuid:f96b2c67-697a-40e8-b5f3-c94740ca8ed7"
      },
      "encounter": {
        "reference": "urn:uuid:ca87bc70-d2ff-46bb-b4ad-0c7563bb0fad"
      },
      "date": "2020-10-30T18:29:05+00:00",
      "source": {
        "reference": "urn:uuid:3f4876a1-c11e-4c89-a44a-fee3700b1fd5"
      },
      "orderedBy": {
        "coding": [ {
          "system": "http://hl7.org/fhir/list-order",
          "code": "event-date",
          "display": "Sorted by Event Date"
        } ]
      },
      "entry": [ {
        "item": {
          "reference": "urn:uuid:c5f843e6-0a2f-4e84-b4c3-f086462d063d"
        }
      }, {
        "item": {
          "reference": "urn:uuid:2f5d6f27-4f09-410c-aadd-2a7f10d0bccc"
        }
      }, {
        "item": {
          "reference": "urn:uuid:d2751a4e-4249-4ca3-9b98-f4c06bae874b"
        }
      }, {
        "item": {
          "reference": "urn:uuid:3fd6bbb0-4216-4502-9b8f-2d1411b152af"
        }
      }, {
        "item": {
          "reference": "urn:uuid:caac7dd2-278d-4cbe-8f8a-04b670ba5c4e"
        }
      }, {
        "item": {
          "reference": "urn:uuid:447d321f-61c0-4c9b-97e2-76c92dc404d0"
        }
      }, {
        "item": {
          "reference": "urn:uuid:518069b8-2e0b-4577-928f-eaebd685a901"
        }
      }, {
        "item": {
          "reference": "urn:uuid:e47ee88f-c1eb-4077-9534-c858c0848e1e"
        }
      }, {
        "item": {
          "reference": "urn:uuid:64c6d0e1-90eb-477b-b8ec-19fd6af151c1"
        }
      }, {
        "item": {
          "reference": "urn:uuid:0d361ee4-700f-4012-9e00-9dfafe6eb2bb"
        }
      }, {
        "item": {
          "reference": "urn:uuid:509b184c-da0a-4e5b-a6ec-89097f5bd73e"
        }
      }, {
        "item": {
          "reference": "urn:uuid:879aadbd-a5bf-4d43-93d9-97c160b3dc02"
        }
      }, {
        "item": {
          "reference": "urn:uuid:286d97e9-3d97-4563-9eea-8bc109c9bfde"
        }
      }, {
        "item": {
          "reference": "urn:uuid:60b50599-b816-4a9f-8199-99368ebfad18"
        }
      }, {
        "item": {
          "reference": "urn:uuid:56f8d585-cb24-4702-9aa4-dc6d95a825cf"
        }
      }, {
        "item": {
          "reference": "urn:uuid:317bf044-6bbd-4e55-be51-27e2547df81d"
        }
      }, {
        "item": {
          "reference": "urn:uuid:60914720-21c4-41c9-9188-b0e3c70a060c"
        }
      }, {
        "item": {
          "reference": "urn:uuid:da376647-4c25-4cc4-a86f-4d226b6901f4"
        }
      }, {
        "item": {
          "reference": "urn:uuid:c3211cf4-715b-491a-8e1e-14a48b4577e0"
        }
      }, {
        "item": {
          "reference": "urn:uuid:0f3270a1-c4d5-4d42-8469-131cbdc5bf02"
        }
      }, {
        "item": {
          "reference": "urn:uuid:a546e6f0-42c3-4c03-bf20-d9c6a589d074"
        }
      }, {
        "item": {
          "reference": "urn:uuid:8f462317-f192-45b2-8de4-b6e8de4eec98"
        }
      }, {
        "item": {
          "reference": "urn:uuid:bc1f2c43-7513-4881-9658-5cb888e1d45f"
        }
      }, {
        "item": {
          "reference": "urn:uuid:4f49a76a-1dcb-4640-b134-c76b28eda1a1"
        }
      }, {
        "item": {
          "reference": "urn:uuid:07b2e2f2-2fd6-4bdc-b870-73922df6a18a"
        }
      }, {
        "item": {
          "reference": "urn:uuid:3c05a3ab-f251-4575-ac90-8b847d1d13ba"
        }
      }, {
        "item": {
          "reference": "urn:uuid:a5453d06-b1e5-4d37-bf99-a333d4abb53a"
        }
      }, {
        "item": {
          "reference": "urn:uuid:d6d87a92-1f40-4eee-9322-2a04a35be566"
        }
      }, {
        "item": {
          "reference": "urn:uuid:7a8e1c40-83cd-4ef3-915c-686a2ba770cb"
        }
      }, {
        "item": {
          "reference": "urn:uuid:78e9dee2-1826-4fa5-8609-b8919db907da"
        }
      }, {
        "item": {
          "reference": "urn:uuid:708681d2-a708-484d-8455-3982a1b13836"
        }
      }, {
        "item": {
          "reference": "urn:uuid:d31c81f0-b9a6-42d6-9f12-4716b89108af"
        }
      }, {
        "item": {
          "reference": "urn:uuid:8f38e0d8-eb69-4522-a5c4-65ade4a5bf0f"
        }
      }, {
        "item": {
          "reference": "urn:uuid:d3e0a611-b73b-4128-a704-a99959eee091"
        }
      }, {
        "item": {
          "reference": "urn:uuid:3c95a626-1ad6-435d-b584-7812b6c0579d"
        }
      }, {
        "item": {
          "reference": "urn:uuid:b3406e7c-ac3c-4fb8-9ee1-8b80c1d2d1da"
        }
      }, {
        "item": {
          "reference": "urn:uuid:fd1f1caf-423a-4d78-96c2-19402777b892"
        }
      }, {
        "item": {
          "reference": "urn:uuid:1f15f33b-d4d5-4de3-a701-a5190c483e74"
        }
      }, {
        "item": {
          "reference": "urn:uuid:f5ce253c-66b3-4fbb-88f3-eb94720ac1a9"
        }
      }, {
        "item": {
          "reference": "urn:uuid:87493f6b-cf90-415d-8464-f6e970e3bb92"
        }
      }, {
        "item": {
          "reference": "urn:uuid:a6563460-1106-4ce5-9eee-0d8ac6f96269"
        }
      }, {
        "item": {
          "reference": "urn:uuid:65395062-edff-466b-b902-7cef13bebaa7"
        }
      }, {
        "item": {
          "reference": "urn:uuid:25db4ff0-96ac-4430-b350-994d68266c43"
        }
      }, {
        "item": {
          "reference": "urn:uuid:03292a07-d342-4c9f-b426-b98aa9ab639c"
        }
      }, {
        "item": {
          "reference": "urn:uuid:ff184c3e-5daf-4f0e-a4d5-67435094c59c"
        }
      }, {
        "item": {
          "reference": "urn:uuid:fada4745-a84f-42fe-8324-dc8de15d422d"
        }
      }, {
        "item": {
          "reference": "urn:uuid:8b6c3a70-f634-46f9-8d64-c83401e6433c"
        }
      }, {
        "item": {
          "reference": "urn:uuid:922ed040-7f0f-4388-bb21-3a1717a1ea3a"
        }
      }, {
        "item": {
          "reference": "urn:uuid:6011ccb8-0359-4928-8706-1a20222ccf49"
        }
      }, {
        "item": {
          "reference": "urn:uuid:055dbc3f-952a-40c2-907b-1108bf08705e"
        }
      }, {
        "item": {
          "reference": "urn:uuid:1c41538e-c07e-44ec-9aa8-7c15a1826540"
        }
      }, {
        "item": {
          "reference": "urn:uuid:35983a60-17f7-4c0e-8032-ef4afa75af0d"
        }
      }, {
        "item": {
          "reference": "urn:uuid:2abba260-e7e6-4460-bb2d-cac26b7549b6"
        }
      }, {
        "item": {
          "reference": "urn:uuid:9e837e6c-cc75-4adb-8cdf-2232c231ba18"
        }
      }, {
        "item": {
          "reference": "urn:uuid:102e9017-4ce3-489a-a763-7a27fd2a9571"
        }
      }, {
        "item": {
          "reference": "urn:uuid:bcbdec22-a9c5-4b45-a5b9-65365cbe9f75"
        }
      }, {
        "item": {
          "reference": "urn:uuid:2d10933c-b653-489e-abde-e9f4ea51a789"
        }
      }, {
        "item": {
          "reference": "urn:uuid:7784b1b7-b283-4366-b047-81b20ba8d16a"
        }
      } ]
    }
  } ]
}