{
  "resourceType": "Bundle",
  "identifier": {
    "type": {
      "text": "ClinicalDocument VersionNumber"
    },
    "value": "1"
  },
  "type": "message",
  "entry": [ {
    "fullUrl": "urn:uuid:A12F527F-3808-44BC-9272-8C8A92884A37",
    "resource": {
      "resourceType": "MessageHeader",
      "id": "A12F527F-3808-44BC-9272-8C8A92884A37",
      "event": {
        "system": "https://fhir.nhs.uk/STU3/CodeSystem/EventType-1",
        "code": "referral-1",
        "display": "Referral"
      },
      "destination": [ {
        "endpoint": "urn:nhs-uk:addressing:ods:20000729:DOSServiceID:2000072936"
      } ],
      "timestamp": "2020-10-30T18:29:05.000+00:00",
      "source": {
        "name": "NHS 111 Adaptor",
        "endpoint": "http://localhost:8080/report"
      },
      "reason": {
        "coding": [ {
          "system": "urn:nhs-itk:ns:201005:interaction",
          "code": "urn:nhs-itk:interaction:primaryNHS111RepeatCallerDocumentSet-v1-0"
        } ]
      }
    }
  }, {
    "fullUrl": "urn:uuid:ee4d3e28-80e9-4f01-bc5b-60531b3acab2",
    "resource": {
      "resourceType": "Encounter",
      "id": "ee4d3e28-80e9-4f01-bc5b-60531b3acab2",
      "identifier": [ {
        "system": "2.16.840.1.113883.2.1.3.2.4.18.34",
        "value": "CF1F65AB-2392-4582-9E14-F0384358CB6A"
      }, {
        "system": "2.16.840.1.113883.2.1.3.2.4.18.35",
        "value": "7434927"
      } ],
      "status": "finished",
      "type": [ {
        "text": "111 Encounter Referral"
      } ],
      "subject": {
        "reference": "urn:uuid:8e0da818-d132-4d32-842d-3b3764cb3b70"
      },
      "participant": [ {
        "type": [ {
          "coding": [ {
            "system": "http://hl7.org/fhir/ValueSet/encounter-participant-type",
            "code": "PPRF",
            "display": "Author"
          } ]
        } ],
        "individual": {
          "reference": "urn:uuid:622f0b08-7a13-4e4b-81e4-06b2b6db4b3a"
        }
      }, {
        "type": [ {
          "coding": [ {
            "system": "http://hl7.org/fhir/ValueSet/encounter-participant-type",
            "code": "ATND",
            "display": "Responsible Party"
          } ]
        } ],
        "individual": {
          "reference": "urn:uuid:00dc4045-1db7-48b6-8603-537ed4b80770"
        }
      } ],
      "period": {
        "start": "2020-10-30T18:29:05+00:00"
      },
      "location": [ {
        "location": {
          "reference": "urn:uuid:14b2f66a-20f8-4243-9d19-56219a570cf4"
        },
        "status": "active"
      }, {
        "location": {
          "reference": "urn:uuid:03793465-ee4b-449b-969a-b25ad7b362fd"
        },
        "status": "completed"
      } ],
      "serviceProvider": {
        "reference": "urn:uuid:7e4a4698-62bf-44eb-95c4-bbdd6217cb4a"
      }
    }
  }, {
    "fullUrl": "urn:uuid:7e4a4698-62bf-44eb-95c4-bbdd6217cb4a",
    "resource": {
      "resourceType": "Organization",
      "id": "7e4a4698-62bf-44eb-95c4-bbdd6217cb4a",
      "active": true,
      "type": [ {
        "text": "CST"
      } ],
      "name": "Devon Doctors Group"
    }
  }, {
    "fullUrl": "urn:uuid:622f0b08-7a13-4e4b-81e4-06b2b6db4b3a",
    "resource": {
      "resourceType": "Practitioner",
      "id": "622f0b08-7a13-4e4b-81e4-06b2b6db4b3a",
      "active": true,
      "name": [ {
        "use": "official",
        "family": "Service Advisor",
        "given": [ "Dental" ]
      } ]
    }
  }, {
    "fullUrl": "urn:uuid:00dc4045-1db7-48b6-8603-537ed4b80770",
    "resource": {
      "resourceType": "Practitioner",
      "id": "00dc4045-1db7-48b6-8603-537ed4b80770",
      "active": true,
      "name": [ {
        "use": "official",
        "family": "Eggleton",
        "given": [ "Dr. Mark" ]
      } ]
    }
  }, {
    "fullUrl": "urn:uuid:14b2f66a-20f8-4243-9d19-56219a570cf4",
    "resource": {
      "resourceType": "Location",
      "id": "14b2f66a-20f8-4243-9d19-56219a570cf4",
      "managingOrganization": {
        "reference": "urn:uuid:9c93cd55-1034-414b-832c-729719f9502b"
      }
    }
  }, {
    "fullUrl": "urn:uuid:9c93cd55-1034-414b-832c-729719f9502b",
    "resource": {
      "resourceType": "Organization",
      "id": "9c93cd55-1034-414b-832c-729719f9502b",
      "identifier": [ {
        "value": "J85990"
      } ],
      "type": [ {
        "text": "GP Practice"
      } ],
      "name": "Test Somerset"
    }
  }, {
    "fullUrl": "urn:uuid:03793465-ee4b-449b-969a-b25ad7b362fd",
    "resource": {
      "resourceType": "Location",
      "id": "03793465-ee4b-449b-969a-b25ad7b362fd",
      "name": "Incident Location",
      "address": {
        "type": "physical",
        "line": [ "NHS England", "Quarry House Quarry Hill", "Leeds", "West Yorkshire" ],
        "postalCode": "LS2 7UE"
      }
    }
  }, {
    "fullUrl": "urn:uuid:8e0da818-d132-4d32-842d-3b3764cb3b70",
    "resource": {
      "resourceType": "Patient",
      "id": "8e0da818-d132-4d32-842d-3b3764cb3b70",
      "identifier": [ {
        "extension": [ {
          "url": "https://fhir.hl7.org.uk/STU3/StructureDefinition/Extension-CareConnect-NHSNumberVerificationStatus-1",
          "valueCodeableConcept": {
            "coding": [ {
              "system": "https://fhir.hl7.org.uk/STU3/StructureDefinition/Extension-CareConnect-NHSNumberVerificationStatus-1",
              "code": "02"
            } ]
          }
        } ],
        "system": "https://fhir.nhs.uk/Id/nhs-number",
        "value": "9990238359"
      } ],
      "active": true,
      "name": [ {
        "use": "official",
        "family": "Xxtestpatientdzadn",
        "given": [ "Scrdonotuse" ]
      } ],
      "telecom": [ {
        "system": "phone",
        "value": "tel:01702123456",
        "use": "home"
      }, {
        "system": "phone",
        "value": "tel:01702123456"
      } ],
      "gender": "female",
      "birthDate": "1965-02-17",
      "address": [ {
        "use": "home",
        "line": [ "NHS England", "Quarry House Quarry Hill", "Leeds", "West Yorkshire" ],
        "postalCode": "LS2 7UE"
      } ],
      "generalPractitioner": [ {
        "reference": "urn:uuid:319a0233-f4c1-4751-9d36-50f26a33c62f"
      } ]
    }
  }, {
    "fullUrl": "urn:uuid:319a0233-f4c1-4751-9d36-50f26a33c62f",
    "resource": {
      "resourceType": "Organization",
      "id": "319a0233-f4c1-4751-9d36-50f26a33c62f",
      "identifier": [ {
        "value": "J85990"
      } ],
      "type": [ {
        "text": "GP Practice"
      } ],
      "name": "Test Somerset"
    }
  }, {
    "fullUrl": "urn:uuid:29721fdf-0625-48b2-b853-27f0cbed212d",
    "resource": {
      "resourceType": "HealthcareService",
      "id": "29721fdf-0625-48b2-b853-27f0cbed212d",
      "active": true,
      "providedBy": {
        "reference": "urn:uuid:e0f863fd-0f17-48e5-84c1-95c7d2d5fb53"
      },
      "location": [ {
        "reference": "urn:uuid:26f88c08-ece7-4cd7-aa9a-19ddab98ee96"
      } ],
      "name": "**TESTING ONLY** DO NOT SEND PATIENTS - ED Test Service for EDDI"
    }
  }, {
    "fullUrl": "urn:uuid:26f88c08-ece7-4cd7-aa9a-19ddab98ee96",
    "resource": {
      "resourceType": "Location",
      "id": "26f88c08-ece7-4cd7-aa9a-19ddab98ee96",
      "managingOrganization": {
        "reference": "urn:uuid:e0f863fd-0f17-48e5-84c1-95c7d2d5fb53"
      }
    }
  }, {
    "fullUrl": "urn:uuid:e0f863fd-0f17-48e5-84c1-95c7d2d5fb53",
    "resource": {
      "resourceType": "Organization",
      "id": "e0f863fd-0f17-48e5-84c1-95c7d2d5fb53",
      "identifier": [ {
        "value": "20000729"
      } ],
      "type": [ {
        "coding": [ {
          "code": "PRCP",
          "display": "**TESTING ONLY** DO NOT SEND PATIENTS - ED Test Service for EDDI"
        } ]
      } ],
      "name": "**TESTING ONLY** DO NOT SEND PATIENTS - ED Test Service for EDDI"
    }
  }, {
    "fullUrl": "urn:uuid:a9d388b2-1b69-40bf-8228-50ada04f0fbf",
    "resource": {
      "resourceType": "ReferralRequest",
      "id": "a9d388b2-1b69-40bf-8228-50ada04f0fbf",
      "status": "active",
      "intent": "plan",
      "priority": "routine",
      "subject": {
        "reference": "urn:uuid:8e0da818-d132-4d32-842d-3b3764cb3b70"
      },
      "context": {
        "reference": "urn:uuid:ee4d3e28-80e9-4f01-bc5b-60531b3acab2"
      },
      "occurrencePeriod": {
        "start": "2022-05-05T07:31:37+00:00",
        "end": "2022-05-05T08:31:37+00:00"
      },
      "authoredOn": "2020-10-30T18:28:58+00:00",
      "requester": {
        "agent": {
          "reference": "urn:uuid:2e6c1098-2ce0-4fe5-866a-74a0414b8b2e"
        },
        "onBehalfOf": {
          "reference": "urn:uuid:7e4a4698-62bf-44eb-95c4-bbdd6217cb4a"
        }
      },
      "recipient": [ {
        "reference": "urn:uuid:29721fdf-0625-48b2-b853-27f0cbed212d"
      } ],
      "reasonReference": [ {
        "reference": "urn:uuid:4b5a2c59-438e-4fae-a914-7f22fb18b6bf"
      } ],
      "supportingInfo": [ {
        "reference": "urn:uuid:a1e15093-ecc1-45d3-9109-d21a853f218b"
      } ]
    }
  }, {
    "fullUrl": "urn:uuid:a1e15093-ecc1-45d3-9109-d21a853f218b",
    "resource": {
      "resourceType": "ProcedureRequest",
      "id": "a1e15093-ecc1-45d3-9109-d21a853f218b",
      "status": "active",
      "intent": "plan",
      "priority": "routine",
      "doNotPerform": false,
      "code": {
        "coding": [ {
          "system": "2.16.840.1.113883.2.1.3.2.4.17.325",
          "code": "Dx02",
          "display": "Attend a Treatment Centre within 1 hour"
        } ]
      },
      "subject": {
        "reference": "urn:uuid:8e0da818-d132-4d32-842d-3b3764cb3b70"
      },
      "occurrencePeriod": {
        "start": "2022-05-05T07:31:37+00:00",
        "end": "2022-05-05T08:31:37+00:00"
      },
      "reasonReference": [ {
        "reference": "urn:uuid:4b5a2c59-438e-4fae-a914-7f22fb18b6bf"
      } ]
    }
  }, {
    "fullUrl": "urn:uuid:44fdef94-2446-4fd7-92bf-72fe4c164fac",
    "resource": {
      "resourceType": "Composition",
      "id": "44fdef94-2446-4fd7-92bf-72fe4c164fac",
      "identifier": {
        "use": "usual",
        "value": "B53175B4-0A4A-4503-A6CD-94333AA01645"
      },
      "status": "final",
      "type": {
        "coding": [ {
          "system": "http://snomed.info/sct",
          "code": "371531000",
          "display": "Report of clinical encounter (record artifact)"
        } ]
      },
      "subject": {
        "reference": "urn:uuid:8e0da818-d132-4d32-842d-3b3764cb3b70"
      },
      "encounter": {
        "reference": "urn:uuid:ee4d3e28-80e9-4f01-bc5b-60531b3acab2"
      },
      "date": "2020-10-30T18:29:05+00:00",
      "author": [ {
        "reference": "urn:uuid:622f0b08-7a13-4e4b-81e4-06b2b6db4b3a"
      } ],
      "title": "111 Report",
      "confidentiality": "N",
      "section": [ {
        "section": [ {
          "title": "Patient's Reported Condition",
          "text": {
            "status": "generated",
            "div": "<div xmlns=\"http://www.w3.org/1999/xhtml\">TEST&lt;br/&gt;</div>"
          }
        }, {
          "title": "Pathways Disposition",
          "text": {
            "status": "generated",
            "div": "<div xmlns=\"http://www.w3.org/1999/xhtml\">Attend a Treatment Centre within 1 hour (Dx02)\n                                                    &lt;br/&gt;&lt;br/&gt;\n                                                    Selected service: **TESTING ONLY** DO NOT SEND PATIENTS - ED Test Se&lt;br/&gt;</div>"
          }
        }, {
          "title": "Consultation Summary",
          "text": {
            "status": "generated",
            "div": "<div xmlns=\"http://www.w3.org/1999/xhtml\">Illness&lt;br/&gt;Warm to touch&lt;br/&gt;Nose bleeding freely&lt;br/&gt;Nose bleeding despite first aid measures&lt;br/&gt;</div>"
          }
        }, {
          "title": "Pathways Assessment",
          "text": {
            "status": "generated",
            "div": "<div xmlns=\"http://www.w3.org/1999/xhtml\">An injury or health problem was the reason for the contact.&lt;br/&gt;Heavy bleeding had not occurred in the previous 2 hours.&lt;br/&gt;An illness or health problem was the main problem.&lt;br/&gt;User Comments: TEST&lt;br/&gt;The individual was not fighting for breath.&lt;br/&gt;The main reason for the assessment was not an allergic reaction, heart attack, chest/upper back pain, probable stroke, recent fit/seizure or suicide attempt.&lt;br/&gt;The main reason for contact was not new confusion, declared diabetic hypo/hyperglycaemia, or ICD shock.&lt;br/&gt;The skin on the torso felt normal, warm or hot.&lt;br/&gt;Pathway selected - Nosebleeds without Injury&lt;br/&gt;The individual was not feeling faint or dizzy.&lt;br/&gt;The nose was continuing to bleed.&lt;br/&gt;There was no nasal foreign body.&lt;br/&gt;Constant pressure had been applied to the soft part of the nose for at least 10 minutes.&lt;br/&gt;Instructions given were: The individual needs to attend a treatment centre within 1 hour.&lt;br/&gt;Directory of Services referral: **TESTING ONLY** DO NOT SEND PATIENTS - ED Test Service for EDDI&lt;br/&gt;Advice given:\n                                                    Worsening\n                                                    &lt;br/&gt;</div>"
          }
        }, {
          "title": "Advice Given",
          "text": {
            "status": "generated",
            "div": "<div xmlns=\"http://www.w3.org/1999/xhtml\">If there are any new symptoms, or if the condition gets worse, changes or you have any other concerns, call us back.&lt;br/&gt;&lt;br/&gt;</div>"
          }
        }, {
          "title": "Special Patient Notes",
          "text": {
            "status": "generated",
            "div": "<div xmlns=\"http://www.w3.org/1999/xhtml\">Special Notes from an external system were flagged as being present for this patient.</div>"
          }
        } ]
      }, {
        "title": "ReferralRequest",
        "entry": [ {
          "reference": "urn:uuid:a9d388b2-1b69-40bf-8228-50ada04f0fbf"
        } ]
      }, {
        "title": "QuestionnaireResponse",
        "entry": [ {
          "reference": "urn:uuid:a7d69f96-99e8-45cf-a6af-2360cf4815f5"
        } ]
      }, {
        "title": "QuestionnaireResponse",
        "entry": [ {
          "reference": "urn:uuid:fe4e3c08-fd2a-4dc6-a840-730b9754a2bd"
        } ]
      }, {
        "title": "QuestionnaireResponse",
        "entry": [ {
          "reference": "urn:uuid:f473d1c6-188d-49fc-9be5-50a272a0b04f"
        } ]
      }, {
        "title": "QuestionnaireResponse",
        "entry": [ {
          "reference": "urn:uuid:5a46798c-a251-4a1c-b6eb-35ca9c892f2b"
        } ]
      }, {
        "title": "QuestionnaireResponse",
        "entry": [ {
          "reference": "urn:uuid:882da14f-1a2f-4654-af32-e3c0881ba9da"
        } ]
      }, {
        "title": "QuestionnaireResponse",
        "entry": [ {
          "reference": "urn:uuid:b7195361-8417-4c1b-8c08-947cf04f5a1c"
        } ]
      }, {
        "title": "QuestionnaireResponse",
        "entry": [ {
          "reference": "urn:uuid:716653a0-c3c7-4717-85d7-29ea099f1e12"
        } ]
      }, {
        "title": "QuestionnaireResponse",
        "entry": [ {
          "reference": "urn:uuid:6ee8000d-1a28-4b22-ae52-22af0cfa6e50"
        } ]
      }, {
        "title": "QuestionnaireResponse",
        "entry": [ {
          "reference": "urn:uuid:e9112ab5-3dca-489e-9ca2-a3cbd9de9a22"
        } ]
      }, {
        "title": "QuestionnaireResponse",
        "entry": [ {
          "reference": "urn:uuid:a8306671-ae76-4911-8ea1-e5211b5d53b2"
        } ]
      }, {
        "title": "QuestionnaireResponse",
        "entry": [ {
          "reference": "urn:uuid:2d83d0a9-af92-4923-a385-a046d1d22ba7"
        } ]
      }, {
        "title": "QuestionnaireResponse",
        "entry": [ {
          "reference": "urn:uuid:ea2ad25e-266a-4312-a941-a52373eb9589"
        } ]
      }, {
        "title": "QuestionnaireResponse",
        "entry": [ {
          "reference": "urn:uuid:cb82cb89-b731-4de3-8d19-450d695755a1"
        } ]
      }, {
        "title": "QuestionnaireResponse",
        "entry": [ {
          "reference": "urn:uuid:cbba3ced-4537-405c-a49d-670006b62cc4"
        } ]
      }, {
        "title": "QuestionnaireResponse",
        "entry": [ {
          "reference": "urn:uuid:358bd16a-b567-4344-bef3-8d82f3d1eb9f"
        } ]
      }, {
        "title": "QuestionnaireResponse",
        "entry": [ {
          "reference": "urn:uuid:bdf17ec7-e88e-4bcb-a11c-64dfbc11dde3"
        } ]
      }, {
        "title": "QuestionnaireResponse",
        "entry": [ {
          "reference": "urn:uuid:3200f59e-d9e2-4365-9e8d-dcc8b08b3d75"
        } ]
      }, {
        "title": "QuestionnaireResponse",
        "entry": [ {
          "reference": "urn:uuid:21a645db-1015-4f92-8056-a88981888d4e"
        } ]
      }, {
        "title": "QuestionnaireResponse",
        "entry": [ {
          "reference": "urn:uuid:01b90da0-c67e-455b-a0fc-cf9e231e0ffb"
        } ]
      }, {
        "title": "QuestionnaireResponse",
        "entry": [ {
          "reference": "urn:uuid:e5c4b19d-ef2b-4b3a-b77f-587bc3d29d1c"
        } ]
      }, {
        "title": "QuestionnaireResponse",
        "entry": [ {
          "reference": "urn:uuid:0a0d6e84-ec2f-4d41-afe2-2f11e4e897a4"
        } ]
      }, {
        "title": "QuestionnaireResponse",
        "entry": [ {
          "reference": "urn:uuid:0db218ab-ac67-4ad6-95cd-616e43c15c71"
        } ]
      }, {
        "title": "QuestionnaireResponse",
        "entry": [ {
          "reference": "urn:uuid:3fded9a4-d245-48f4-83fc-f0602370e64c"
        } ]
      } ]
    }
  }, {
    "fullUrl": "urn:uuid:ba54039b-ad06-4cff-81e7-b9e9e038ef2a",
    "resource": {
      "resourceType": "Consent",
      "id": "ba54039b-ad06-4cff-81e7-b9e9e038ef2a",
      "identifier": {
        "use": "usual",
        "value": "B53175B4-0A4A-4503-A6CD-94333AA01645"
      },
      "status": "active",
      "patient": {
        "reference": "urn:uuid:8e0da818-d132-4d32-842d-3b3764cb3b70"
      },
      "period": {
        "start": "2020-10-30T18:29:05+00:00"
      },
      "consentingParty": [ {
        "reference": "urn:uuid:8e0da818-d132-4d32-842d-3b3764cb3b70"
      } ],
      "action": [ {
        "coding": [ {
          "system": "http://snomed.info/sct",
          "code": "425691002",
          "display": "Consent given for electronic record sharing"
        } ],
        "text": "Consent given for electronic record sharing"
      } ],
      "organization": [ {
        "reference": "urn:uuid:7e4a4698-62bf-44eb-95c4-bbdd6217cb4a"
      } ],
      "policyRule": "http://hl7.org/fhir/ConsentPolicy/opt-out",
      "data": [ {
        "meaning": "related",
        "reference": {
          "reference": "urn:uuid:ee4d3e28-80e9-4f01-bc5b-60531b3acab2"
        }
      } ]
    }
  }, {
    "fullUrl": "urn:uuid:4b5a2c59-438e-4fae-a914-7f22fb18b6bf",
    "resource": {
      "resourceType": "Condition",
      "id": "4b5a2c59-438e-4fae-a914-7f22fb18b6bf",
      "clinicalStatus": "active",
      "verificationStatus": "unknown",
      "subject": {
        "reference": "urn:uuid:8e0da818-d132-4d32-842d-3b3764cb3b70"
      },
      "context": {
        "reference": "urn:uuid:ee4d3e28-80e9-4f01-bc5b-60531b3acab2"
      },
      "evidence": [ {
        "detail": [ {
          "reference": "urn:uuid:a7d69f96-99e8-45cf-a6af-2360cf4815f5"
        } ]
      }, {
        "detail": [ {
          "reference": "urn:uuid:fe4e3c08-fd2a-4dc6-a840-730b9754a2bd"
        } ]
      }, {
        "detail": [ {
          "reference": "urn:uuid:f473d1c6-188d-49fc-9be5-50a272a0b04f"
        } ]
      }, {
        "detail": [ {
          "reference": "urn:uuid:5a46798c-a251-4a1c-b6eb-35ca9c892f2b"
        } ]
      }, {
        "detail": [ {
          "reference": "urn:uuid:882da14f-1a2f-4654-af32-e3c0881ba9da"
        } ]
      }, {
        "detail": [ {
          "reference": "urn:uuid:b7195361-8417-4c1b-8c08-947cf04f5a1c"
        } ]
      }, {
        "detail": [ {
          "reference": "urn:uuid:716653a0-c3c7-4717-85d7-29ea099f1e12"
        } ]
      }, {
        "detail": [ {
          "reference": "urn:uuid:6ee8000d-1a28-4b22-ae52-22af0cfa6e50"
        } ]
      }, {
        "detail": [ {
          "reference": "urn:uuid:e9112ab5-3dca-489e-9ca2-a3cbd9de9a22"
        } ]
      }, {
        "detail": [ {
          "reference": "urn:uuid:a8306671-ae76-4911-8ea1-e5211b5d53b2"
        } ]
      }, {
        "detail": [ {
          "reference": "urn:uuid:2d83d0a9-af92-4923-a385-a046d1d22ba7"
        } ]
      }, {
        "detail": [ {
          "reference": "urn:uuid:ea2ad25e-266a-4312-a941-a52373eb9589"
        } ]
      }, {
        "detail": [ {
          "reference": "urn:uuid:cb82cb89-b731-4de3-8d19-450d695755a1"
        } ]
      }, {
        "detail": [ {
          "reference": "urn:uuid:cbba3ced-4537-405c-a49d-670006b62cc4"
        } ]
      }, {
        "detail": [ {
          "reference": "urn:uuid:358bd16a-b567-4344-bef3-8d82f3d1eb9f"
        } ]
      }, {
        "detail": [ {
          "reference": "urn:uuid:bdf17ec7-e88e-4bcb-a11c-64dfbc11dde3"
        } ]
      }, {
        "detail": [ {
          "reference": "urn:uuid:3200f59e-d9e2-4365-9e8d-dcc8b08b3d75"
        } ]
      }, {
        "detail": [ {
          "reference": "urn:uuid:21a645db-1015-4f92-8056-a88981888d4e"
        } ]
      }, {
        "detail": [ {
          "reference": "urn:uuid:01b90da0-c67e-455b-a0fc-cf9e231e0ffb"
        } ]
      }, {
        "detail": [ {
          "reference": "urn:uuid:e5c4b19d-ef2b-4b3a-b77f-587bc3d29d1c"
        } ]
      }, {
        "detail": [ {
          "reference": "urn:uuid:0a0d6e84-ec2f-4d41-afe2-2f11e4e897a4"
        } ]
      }, {
        "detail": [ {
          "reference": "urn:uuid:0db218ab-ac67-4ad6-95cd-616e43c15c71"
        } ]
      }, {
        "detail": [ {
          "reference": "urn:uuid:3fded9a4-d245-48f4-83fc-f0602370e64c"
        } ]
      } ]
    }
  }, {
    "fullUrl": "urn:uuid:a7d69f96-99e8-45cf-a6af-2360cf4815f5",
    "resource": {
      "resourceType": "QuestionnaireResponse",
      "id": "a7d69f96-99e8-45cf-a6af-2360cf4815f5",
      "identifier": {
        "value": "7434927"
      },
      "questionnaire": {
        "reference": "urn:uuid:4de82cfc-f782-4737-8574-8fc46d90311f"
      },
      "status": "completed",
      "subject": {
        "reference": "urn:uuid:8e0da818-d132-4d32-842d-3b3764cb3b70"
      },
      "context": {
        "reference": "urn:uuid:ee4d3e28-80e9-4f01-bc5b-60531b3acab2"
      },
      "authored": "2020-10-30T18:29:05+00:00",
      "item": [ {
        "linkId": "Tx220074",
        "text": "What is the reason for the contact?",
        "answer": [ {
          "valueString": "an injury or other health problem"
        } ]
      } ]
    }
  }, {
    "fullUrl": "urn:uuid:4de82cfc-f782-4737-8574-8fc46d90311f",
    "resource": {
      "resourceType": "Questionnaire",
      "id": "4de82cfc-f782-4737-8574-8fc46d90311f",
      "identifier": [ {
        "value": "7434927"
      } ],
      "version": "2020-10-30T18:29:05.808Z",
      "status": "active",
      "experimental": false,
      "date": "2020-10-30T18:29:05+00:00",
      "publisher": "User ID: 'RB12' User name: 'Rachel Boyer' User skill set: 'T3'",
      "lastReviewDate": "2020-10-30",
      "subjectType": [ "Patient" ],
      "item": [ {
        "linkId": "7434927",
        "prefix": "5",
        "text": "What is the reason for the contact?",
        "type": "choice",
        "required": true,
        "repeats": false,
        "option": [ {
          "valueString": "an injury or other health problem, Selected: true"
        }, {
          "valueString": "labour or childbirth, Selected: false"
        }, {
          "valueString": "a need to access another healthcare service, Selected: false"
        }, {
          "valueString": "a healthcare professional requesting contact with another clinician, Selected: false"
        }, {
          "valueString": "a report of results or tests, Selected: false"
        }, {
          "valueString": "a possible failure of contraception, Selected: false"
        }, {
          "valueString": "more, Selected: false"
        } ]
      } ]
    }
  }, {
    "fullUrl": "urn:uuid:fe4e3c08-fd2a-4dc6-a840-730b9754a2bd",
    "resource": {
      "resourceType": "QuestionnaireResponse",
      "id": "fe4e3c08-fd2a-4dc6-a840-730b9754a2bd",
      "identifier": {
        "value": "7434927"
      },
      "questionnaire": {
        "reference": "urn:uuid:b8058573-a48a-4610-a9ea-a997a0bea44e"
      },
      "status": "completed",
      "subject": {
        "reference": "urn:uuid:8e0da818-d132-4d32-842d-3b3764cb3b70"
      },
      "context": {
        "reference": "urn:uuid:ee4d3e28-80e9-4f01-bc5b-60531b3acab2"
      },
      "authored": "2020-10-30T18:29:05+00:00",
      "item": [ {
        "linkId": "Tx221807",
        "text": "STRING:to'Immediatethreatstolife(SPA/OOHversion)'-'Majorbloodloss'stem",
        "answer": [ {
          "valueString": "\"present\""
        } ]
      } ]
    }
  }, {
    "fullUrl": "urn:uuid:b8058573-a48a-4610-a9ea-a997a0bea44e",
    "resource": {
      "resourceType": "Questionnaire",
      "id": "b8058573-a48a-4610-a9ea-a997a0bea44e",
      "identifier": [ {
        "value": "7434927"
      } ],
      "version": "2020-10-30T18:29:05.808Z",
      "status": "active",
      "experimental": false,
      "date": "2020-10-30T18:29:05+00:00",
      "publisher": "User ID: 'RB12' User name: 'Rachel Boyer' User skill set: 'T3'",
      "lastReviewDate": "2020-10-30",
      "subjectType": [ "Patient" ],
      "item": [ {
        "linkId": "7434927",
        "prefix": "200",
        "text": "STRING:to'Immediatethreatstolife(SPA/OOHversion)'-'Majorbloodloss'stem",
        "type": "choice",
        "required": true,
        "repeats": false,
        "option": [ {
          "valueString": "\"present\", Selected: true"
        } ]
      } ]
    }
  }, {
    "fullUrl": "urn:uuid:f473d1c6-188d-49fc-9be5-50a272a0b04f",
    "resource": {
      "resourceType": "QuestionnaireResponse",
      "id": "f473d1c6-188d-49fc-9be5-50a272a0b04f",
      "identifier": {
        "value": "7434927"
      },
      "questionnaire": {
        "reference": "urn:uuid:a61bd5a2-3f06-435c-b1c3-161d496ef435"
      },
      "status": "completed",
      "subject": {
        "reference": "urn:uuid:8e0da818-d132-4d32-842d-3b3764cb3b70"
      },
      "context": {
        "reference": "urn:uuid:ee4d3e28-80e9-4f01-bc5b-60531b3acab2"
      },
      "authored": "2020-10-30T18:29:05+00:00"
    }
  }, {
    "fullUrl": "urn:uuid:a61bd5a2-3f06-435c-b1c3-161d496ef435",
    "resource": {
      "resourceType": "Questionnaire",
      "id": "a61bd5a2-3f06-435c-b1c3-161d496ef435",
      "identifier": [ {
        "value": "7434927"
      } ],
      "version": "2020-10-30T18:29:05.808Z",
      "status": "active",
      "experimental": false,
      "date": "2020-10-30T18:29:05+00:00",
      "publisher": "User ID: 'RB12' User name: 'Rachel Boyer' User skill set: 'T3'",
      "lastReviewDate": "2020-10-30",
      "subjectType": [ "Patient" ]
    }
  }, {
    "fullUrl": "urn:uuid:5a46798c-a251-4a1c-b6eb-35ca9c892f2b",
    "resource": {
      "resourceType": "QuestionnaireResponse",
      "id": "5a46798c-a251-4a1c-b6eb-35ca9c892f2b",
      "identifier": {
        "value": "7434927"
      },
      "questionnaire": {
        "reference": "urn:uuid:88cc67d7-85cc-40f6-a2a0-a6047ac5b441"
      },
      "status": "completed",
      "subject": {
        "reference": "urn:uuid:8e0da818-d132-4d32-842d-3b3764cb3b70"
      },
      "context": {
        "reference": "urn:uuid:ee4d3e28-80e9-4f01-bc5b-60531b3acab2"
      },
      "authored": "2020-10-30T18:29:05+00:00",
      "item": [ {
        "linkId": "Tx221799",
        "text": "STRING:injury,illnessorlabourestablishedinEntryFlow",
        "answer": [ {
          "valueString": "\"present\""
        } ]
      } ]
    }
  }, {
    "fullUrl": "urn:uuid:88cc67d7-85cc-40f6-a2a0-a6047ac5b441",
    "resource": {
      "resourceType": "Questionnaire",
      "id": "88cc67d7-85cc-40f6-a2a0-a6047ac5b441",
      "identifier": [ {
        "value": "7434927"
      } ],
      "version": "2020-10-30T18:29:05.808Z",
      "status": "active",
      "experimental": false,
      "date": "2020-10-30T18:29:05+00:00",
      "publisher": "User ID: 'RB12' User name: 'Rachel Boyer' User skill set: 'T3'",
      "lastReviewDate": "2020-10-30",
      "subjectType": [ "Patient" ],
      "item": [ {
        "linkId": "7434927",
        "prefix": "0",
        "text": "STRING:injury,illnessorlabourestablishedinEntryFlow",
        "type": "choice",
        "required": true,
        "repeats": false,
        "option": [ {
          "valueString": "\"present\", Selected: true"
        } ]
      } ]
    }
  }, {
    "fullUrl": "urn:uuid:882da14f-1a2f-4654-af32-e3c0881ba9da",
    "resource": {
      "resourceType": "QuestionnaireResponse",
      "id": "882da14f-1a2f-4654-af32-e3c0881ba9da",
      "identifier": {
        "value": "7434927"
      },
      "questionnaire": {
        "reference": "urn:uuid:afb5f449-3de9-4ca0-8ff0-fbada0d7f1fb"
      },
      "status": "completed",
      "subject": {
        "reference": "urn:uuid:8e0da818-d132-4d32-842d-3b3764cb3b70"
      },
      "context": {
        "reference": "urn:uuid:ee4d3e28-80e9-4f01-bc5b-60531b3acab2"
      },
      "authored": "2020-10-30T18:29:05+00:00",
      "item": [ {
        "linkId": "Tx224120",
        "text": "Have you been bleeding RED BLOOD very heavily IN THE LAST 2 HOURS?",
        "answer": [ {
          "valueString": "no"
        } ]
      } ]
    }
  }, {
    "fullUrl": "urn:uuid:afb5f449-3de9-4ca0-8ff0-fbada0d7f1fb",
    "resource": {
      "resourceType": "Questionnaire",
      "id": "afb5f449-3de9-4ca0-8ff0-fbada0d7f1fb",
      "identifier": [ {
        "value": "7434927"
      } ],
      "version": "2020-10-30T18:29:05.808Z",
      "status": "active",
      "experimental": false,
      "date": "2020-10-30T18:29:05+00:00",
      "publisher": "User ID: 'RB12' User name: 'Rachel Boyer' User skill set: 'T3'",
      "lastReviewDate": "2020-10-30",
      "subjectType": [ "Patient" ],
      "item": [ {
        "linkId": "7434927",
        "prefix": "10100",
        "text": "Have you been bleeding RED BLOOD very heavily IN THE LAST 2 HOURS?",
        "type": "choice",
        "required": true,
        "repeats": false,
        "option": [ {
          "valueString": "yes, Selected: false"
        }, {
          "valueString": "not sure, Selected: false"
        }, {
          "valueString": "no, Selected: true"
        } ]
      } ]
    }
  }, {
    "fullUrl": "urn:uuid:b7195361-8417-4c1b-8c08-947cf04f5a1c",
    "resource": {
      "resourceType": "QuestionnaireResponse",
      "id": "b7195361-8417-4c1b-8c08-947cf04f5a1c",
      "identifier": {
        "value": "7434927"
      },
      "questionnaire": {
        "reference": "urn:uuid:83947f4f-0087-4fae-9138-a6e6362df4cb"
      },
      "status": "completed",
      "subject": {
        "reference": "urn:uuid:8e0da818-d132-4d32-842d-3b3764cb3b70"
      },
      "context": {
        "reference": "urn:uuid:ee4d3e28-80e9-4f01-bc5b-60531b3acab2"
      },
      "authored": "2020-10-30T18:29:05+00:00",
      "item": [ {
        "linkId": "Tx221343",
        "text": "SocialConcernsExcluded",
        "answer": [ {
          "valueString": "==\"present\""
        } ]
      } ]
    }
  }, {
    "fullUrl": "urn:uuid:83947f4f-0087-4fae-9138-a6e6362df4cb",
    "resource": {
      "resourceType": "Questionnaire",
      "id": "83947f4f-0087-4fae-9138-a6e6362df4cb",
      "identifier": [ {
        "value": "7434927"
      } ],
      "version": "2020-10-30T18:29:05.808Z",
      "status": "active",
      "experimental": false,
      "date": "2020-10-30T18:29:05+00:00",
      "publisher": "User ID: 'RB12' User name: 'Rachel Boyer' User skill set: 'T3'",
      "lastReviewDate": "2020-10-30",
      "subjectType": [ "Patient" ],
      "item": [ {
        "linkId": "7434927",
        "prefix": "1100",
        "text": "SocialConcernsExcluded",
        "type": "choice",
        "required": true,
        "repeats": false,
        "option": [ {
          "valueString": "==\"present\", Selected: true"
        }, {
          "valueString": "*, Selected: false"
        } ]
      } ]
    }
  }, {
    "fullUrl": "urn:uuid:716653a0-c3c7-4717-85d7-29ea099f1e12",
    "resource": {
      "resourceType": "QuestionnaireResponse",
      "id": "716653a0-c3c7-4717-85d7-29ea099f1e12",
      "identifier": {
        "value": "7434927"
      },
      "questionnaire": {
        "reference": "urn:uuid:380b37cc-890b-4d4a-a1fa-d0e141862154"
      },
      "status": "completed",
      "subject": {
        "reference": "urn:uuid:8e0da818-d132-4d32-842d-3b3764cb3b70"
      },
      "context": {
        "reference": "urn:uuid:ee4d3e28-80e9-4f01-bc5b-60531b3acab2"
      },
      "authored": "2020-10-30T18:29:05+00:00",
      "item": [ {
        "linkId": "Tx130011",
        "text": "What is the main problem?",
        "answer": [ {
          "valueString": "illness or other health problem (specify)"
        } ]
      } ]
    }
  }, {
    "fullUrl": "urn:uuid:380b37cc-890b-4d4a-a1fa-d0e141862154",
    "resource": {
      "resourceType": "Questionnaire",
      "id": "380b37cc-890b-4d4a-a1fa-d0e141862154",
      "identifier": [ {
        "value": "7434927"
      } ],
      "version": "2020-10-30T18:29:05.808Z",
      "status": "active",
      "experimental": false,
      "date": "2020-10-30T18:29:05+00:00",
      "publisher": "User ID: 'RB12' User name: 'Rachel Boyer' User skill set: 'T3'",
      "lastReviewDate": "2020-10-30",
      "subjectType": [ "Patient" ],
      "item": [ {
        "linkId": "7434927",
        "prefix": "2300",
        "text": "What is the main problem?",
        "type": "choice",
        "required": true,
        "repeats": false,
        "option": [ {
          "valueString": "the individual has been told to follow a particular course of action (specify), Selected: false"
        }, {
          "valueString": "the individual is an identified frequent caller, Selected: false"
        }, {
          "valueString": "injury (specify), Selected: false"
        }, {
          "valueString": "illness or other health problem (specify), Selected: true"
        }, {
          "valueString": "child protection/vulnerable adult concern, Selected: false"
        }, {
          "valueString": "social or domestic emergency, Selected: false"
        }, {
          "valueString": "the environment potentially poses an immediate threat to life (specify), Selected: false"
        } ]
      } ]
    }
  }, {
    "fullUrl": "urn:uuid:6ee8000d-1a28-4b22-ae52-22af0cfa6e50",
    "resource": {
      "resourceType": "QuestionnaireResponse",
      "id": "6ee8000d-1a28-4b22-ae52-22af0cfa6e50",
      "identifier": {
        "value": "7434927"
      },
      "questionnaire": {
        "reference": "urn:uuid:9fd1ddab-514e-49d9-bcbc-232744e7d757"
      },
      "status": "completed",
      "subject": {
        "reference": "urn:uuid:8e0da818-d132-4d32-842d-3b3764cb3b70"
      },
      "context": {
        "reference": "urn:uuid:ee4d3e28-80e9-4f01-bc5b-60531b3acab2"
      },
      "authored": "2020-10-30T18:29:05+00:00"
    }
  }, {
    "fullUrl": "urn:uuid:9fd1ddab-514e-49d9-bcbc-232744e7d757",
    "resource": {
      "resourceType": "Questionnaire",
      "id": "9fd1ddab-514e-49d9-bcbc-232744e7d757",
      "identifier": [ {
        "value": "7434927"
      } ],
      "version": "2020-10-30T18:29:05.808Z",
      "status": "active",
      "experimental": false,
      "date": "2020-10-30T18:29:05+00:00",
      "publisher": "User ID: 'RB12' User name: 'Rachel Boyer' User skill set: 'T3'",
      "lastReviewDate": "2020-10-30",
      "subjectType": [ "Patient" ]
    }
  }, {
    "fullUrl": "urn:uuid:e9112ab5-3dca-489e-9ca2-a3cbd9de9a22",
    "resource": {
      "resourceType": "QuestionnaireResponse",
      "id": "e9112ab5-3dca-489e-9ca2-a3cbd9de9a22",
      "identifier": {
        "value": "7434927"
      },
      "questionnaire": {
        "reference": "urn:uuid:4d9fbb37-e4bf-473e-b96c-22849191a2d3"
      },
      "status": "completed",
      "subject": {
        "reference": "urn:uuid:8e0da818-d132-4d32-842d-3b3764cb3b70"
      },
      "context": {
        "reference": "urn:uuid:ee4d3e28-80e9-4f01-bc5b-60531b3acab2"
      },
      "authored": "2020-10-30T18:29:05+00:00",
      "item": [ {
        "linkId": "Tx61025",
        "text": "Are you so breathless that speaking more than a few words is impossible?",
        "answer": [ {
          "valueString": "no"
        } ]
      } ]
    }
  }, {
    "fullUrl": "urn:uuid:4d9fbb37-e4bf-473e-b96c-22849191a2d3",
    "resource": {
      "resourceType": "Questionnaire",
      "id": "4d9fbb37-e4bf-473e-b96c-22849191a2d3",
      "identifier": [ {
        "value": "7434927"
      } ],
      "version": "2020-10-30T18:29:05.808Z",
      "status": "active",
      "experimental": false,
      "date": "2020-10-30T18:29:05+00:00",
      "publisher": "User ID: 'RB12' User name: 'Rachel Boyer' User skill set: 'T3'",
      "lastReviewDate": "2020-10-30",
      "subjectType": [ "Patient" ],
      "item": [ {
        "linkId": "7434927",
        "prefix": "0",
        "text": "Are you so breathless that speaking more than a few words is impossible?",
        "type": "choice",
        "required": true,
        "repeats": false,
        "option": [ {
          "valueString": "yes, Selected: false"
        }, {
          "valueString": "not sure, Selected: false"
        }, {
          "valueString": "no, Selected: true"
        } ]
      } ]
    }
  }, {
    "fullUrl": "urn:uuid:a8306671-ae76-4911-8ea1-e5211b5d53b2",
    "resource": {
      "resourceType": "QuestionnaireResponse",
      "id": "a8306671-ae76-4911-8ea1-e5211b5d53b2",
      "identifier": {
        "value": "7434927"
      },
      "questionnaire": {
        "reference": "urn:uuid:e0db2f2a-ac76-4a2e-93a0-ec2c61dc44bb"
      },
      "status": "completed",
      "subject": {
        "reference": "urn:uuid:8e0da818-d132-4d32-842d-3b3764cb3b70"
      },
      "context": {
        "reference": "urn:uuid:ee4d3e28-80e9-4f01-bc5b-60531b3acab2"
      },
      "authored": "2020-10-30T18:29:05+00:00",
      "item": [ {
        "linkId": "Tx220845",
        "text": "SYSTEM_FLUPANDEMIC",
        "answer": [ {
          "valueString": "==\"pandemic\""
        } ]
      } ]
    }
  }, {
    "fullUrl": "urn:uuid:e0db2f2a-ac76-4a2e-93a0-ec2c61dc44bb",
    "resource": {
      "resourceType": "Questionnaire",
      "id": "e0db2f2a-ac76-4a2e-93a0-ec2c61dc44bb",
      "identifier": [ {
        "value": "7434927"
      } ],
      "version": "2020-10-30T18:29:05.808Z",
      "status": "active",
      "experimental": false,
      "date": "2020-10-30T18:29:05+00:00",
      "publisher": "User ID: 'RB12' User name: 'Rachel Boyer' User skill set: 'T3'",
      "lastReviewDate": "2020-10-30",
      "subjectType": [ "Patient" ],
      "item": [ {
        "linkId": "7434927",
        "prefix": "100",
        "text": "SYSTEM_FLUPANDEMIC",
        "type": "choice",
        "required": true,
        "repeats": false,
        "option": [ {
          "valueString": "==\"pandemic\", Selected: true"
        }, {
          "valueString": "*, Selected: false"
        } ]
      } ]
    }
  }, {
    "fullUrl": "urn:uuid:2d83d0a9-af92-4923-a385-a046d1d22ba7",
    "resource": {
      "resourceType": "QuestionnaireResponse",
      "id": "2d83d0a9-af92-4923-a385-a046d1d22ba7",
      "identifier": {
        "value": "7434927"
      },
      "questionnaire": {
        "reference": "urn:uuid:728a8687-1576-4875-af53-a4467ab43332"
      },
      "status": "completed",
      "subject": {
        "reference": "urn:uuid:8e0da818-d132-4d32-842d-3b3764cb3b70"
      },
      "context": {
        "reference": "urn:uuid:ee4d3e28-80e9-4f01-bc5b-60531b3acab2"
      },
      "authored": "2020-10-30T18:29:05+00:00",
      "item": [ {
        "linkId": "Tx223440",
        "text": "WHAT IS SAID TO BE THE MAIN REASON FOR THIS CONTACT?",
        "answer": [ {
          "valueString": "more"
        } ]
      } ]
    }
  }, {
    "fullUrl": "urn:uuid:728a8687-1576-4875-af53-a4467ab43332",
    "resource": {
      "resourceType": "Questionnaire",
      "id": "728a8687-1576-4875-af53-a4467ab43332",
      "identifier": [ {
        "value": "7434927"
      } ],
      "version": "2020-10-30T18:29:05.808Z",
      "status": "active",
      "experimental": false,
      "date": "2020-10-30T18:29:05+00:00",
      "publisher": "User ID: 'RB12' User name: 'Rachel Boyer' User skill set: 'T3'",
      "lastReviewDate": "2020-10-30",
      "subjectType": [ "Patient" ],
      "item": [ {
        "linkId": "7434927",
        "prefix": "5200",
        "text": "WHAT IS SAID TO BE THE MAIN REASON FOR THIS CONTACT?",
        "type": "choice",
        "required": true,
        "repeats": false,
        "option": [ {
          "valueString": "a probable allergic reaction now, Selected: false"
        }, {
          "valueString": "a probable heart attack, Selected: false"
        }, {
          "valueString": "chest or upper back pain, Selected: false"
        }, {
          "valueString": "a probable stroke or mini-stroke, Selected: false"
        }, {
          "valueString": "a probable fit or seizure within the last 12 hours, Selected: false"
        }, {
          "valueString": "a suicide attempt, Selected: false"
        }, {
          "valueString": "more, Selected: true"
        } ]
      } ]
    }
  }, {
    "fullUrl": "urn:uuid:ea2ad25e-266a-4312-a941-a52373eb9589",
    "resource": {
      "resourceType": "QuestionnaireResponse",
      "id": "ea2ad25e-266a-4312-a941-a52373eb9589",
      "identifier": {
        "value": "7434927"
      },
      "questionnaire": {
        "reference": "urn:uuid:99ce08e0-220c-4f24-9d95-767d156de203"
      },
      "status": "completed",
      "subject": {
        "reference": "urn:uuid:8e0da818-d132-4d32-842d-3b3764cb3b70"
      },
      "context": {
        "reference": "urn:uuid:ee4d3e28-80e9-4f01-bc5b-60531b3acab2"
      },
      "authored": "2020-10-30T18:29:05+00:00",
      "item": [ {
        "linkId": "Tx220032",
        "text": "WHAT IS SAID TO BE THE MAIN REASON FOR THIS CONTACT?",
        "answer": [ {
          "valueString": "none of the above"
        } ]
      } ]
    }
  }, {
    "fullUrl": "urn:uuid:99ce08e0-220c-4f24-9d95-767d156de203",
    "resource": {
      "resourceType": "Questionnaire",
      "id": "99ce08e0-220c-4f24-9d95-767d156de203",
      "identifier": [ {
        "value": "7434927"
      } ],
      "version": "2020-10-30T18:29:05.808Z",
      "status": "active",
      "experimental": false,
      "date": "2020-10-30T18:29:05+00:00",
      "publisher": "User ID: 'RB12' User name: 'Rachel Boyer' User skill set: 'T3'",
      "lastReviewDate": "2020-10-30",
      "subjectType": [ "Patient" ],
      "item": [ {
        "linkId": "7434927",
        "prefix": "2200",
        "text": "WHAT IS SAID TO BE THE MAIN REASON FOR THIS CONTACT?",
        "type": "choice",
        "required": true,
        "repeats": false,
        "option": [ {
          "valueString": "new confusion now, Selected: false"
        }, {
          "valueString": "a diabetic hypo (low blood sugar) or a diabetic hyper (high blood sugar), Selected: false"
        }, {
          "valueString": "recovery from an ICD (implanted cardioverter defibrillator) shock, Selected: false"
        }, {
          "valueString": "none of the above, Selected: true"
        } ]
      } ]
    }
  }, {
    "fullUrl": "urn:uuid:cb82cb89-b731-4de3-8d19-450d695755a1",
    "resource": {
      "resourceType": "QuestionnaireResponse",
      "id": "cb82cb89-b731-4de3-8d19-450d695755a1",
      "identifier": {
        "value": "7434927"
      },
      "questionnaire": {
        "reference": "urn:uuid:bf854243-0dfa-4af2-a092-439cbb92d776"
      },
      "status": "completed",
      "subject": {
        "reference": "urn:uuid:8e0da818-d132-4d32-842d-3b3764cb3b70"
      },
      "context": {
        "reference": "urn:uuid:ee4d3e28-80e9-4f01-bc5b-60531b3acab2"
      },
      "authored": "2020-10-30T18:29:05+00:00",
      "item": [ {
        "linkId": "Tx223142",
        "text": "Does the skin on the chest, back or abdomen feel a normal temperature?",
        "answer": [ {
          "valueString": "yes - normal, warm or hot"
        } ]
      } ]
    }
  }, {
    "fullUrl": "urn:uuid:bf854243-0dfa-4af2-a092-439cbb92d776",
    "resource": {
      "resourceType": "Questionnaire",
      "id": "bf854243-0dfa-4af2-a092-439cbb92d776",
      "identifier": [ {
        "value": "7434927"
      } ],
      "version": "2020-10-30T18:29:05.808Z",
      "status": "active",
      "experimental": false,
      "date": "2020-10-30T18:29:05+00:00",
      "publisher": "User ID: 'RB12' User name: 'Rachel Boyer' User skill set: 'T3'",
      "lastReviewDate": "2020-10-30",
      "subjectType": [ "Patient" ],
      "item": [ {
        "linkId": "7434927",
        "prefix": "4200",
        "text": "Does the skin on the chest, back or abdomen feel a normal temperature?",
        "type": "choice",
        "required": true,
        "repeats": false,
        "option": [ {
          "valueString": "yes - normal, warm or hot, Selected: true"
        }, {
          "valueString": "not sure, Selected: false"
        }, {
          "valueString": "no - cool OR cold, Selected: false"
        }, {
          "valueString": "not safe to touch, Selected: false"
        } ]
      } ]
    }
  }, {
    "fullUrl": "urn:uuid:cbba3ced-4537-405c-a49d-670006b62cc4",
    "resource": {
      "resourceType": "QuestionnaireResponse",
      "id": "cbba3ced-4537-405c-a49d-670006b62cc4",
      "identifier": {
        "value": "7434927"
      },
      "questionnaire": {
        "reference": "urn:uuid:e4f878a5-a7a1-4daa-a319-a09c486976e0"
      },
      "status": "completed",
      "subject": {
        "reference": "urn:uuid:8e0da818-d132-4d32-842d-3b3764cb3b70"
      },
      "context": {
        "reference": "urn:uuid:ee4d3e28-80e9-4f01-bc5b-60531b3acab2"
      },
      "authored": "2020-10-30T18:29:05+00:00",
      "item": [ {
        "linkId": "Tx221724",
        "text": "STRING:ShockAsked",
        "answer": [ {
          "valueString": "\"present\""
        } ]
      } ]
    }
  }, {
    "fullUrl": "urn:uuid:e4f878a5-a7a1-4daa-a319-a09c486976e0",
    "resource": {
      "resourceType": "Questionnaire",
      "id": "e4f878a5-a7a1-4daa-a319-a09c486976e0",
      "identifier": [ {
        "value": "7434927"
      } ],
      "version": "2020-10-30T18:29:05.808Z",
      "status": "active",
      "experimental": false,
      "date": "2020-10-30T18:29:05+00:00",
      "publisher": "User ID: 'RB12' User name: 'Rachel Boyer' User skill set: 'T3'",
      "lastReviewDate": "2020-10-30",
      "subjectType": [ "Patient" ],
      "item": [ {
        "linkId": "7434927",
        "prefix": "3700",
        "text": "STRING:ShockAsked",
        "type": "choice",
        "required": true,
        "repeats": false,
        "option": [ {
          "valueString": "\"present\", Selected: true"
        } ]
      } ]
    }
  }, {
    "fullUrl": "urn:uuid:358bd16a-b567-4344-bef3-8d82f3d1eb9f",
    "resource": {
      "resourceType": "QuestionnaireResponse",
      "id": "358bd16a-b567-4344-bef3-8d82f3d1eb9f",
      "identifier": {
        "value": "7434927"
      },
      "questionnaire": {
        "reference": "urn:uuid:4ccddfa6-1377-4e92-b842-c3d400c9af49"
      },
      "status": "completed",
      "subject": {
        "reference": "urn:uuid:8e0da818-d132-4d32-842d-3b3764cb3b70"
      },
      "context": {
        "reference": "urn:uuid:ee4d3e28-80e9-4f01-bc5b-60531b3acab2"
      },
      "authored": "2020-10-30T18:29:05+00:00"
    }
  }, {
    "fullUrl": "urn:uuid:4ccddfa6-1377-4e92-b842-c3d400c9af49",
    "resource": {
      "resourceType": "Questionnaire",
      "id": "4ccddfa6-1377-4e92-b842-c3d400c9af49",
      "identifier": [ {
        "value": "7434927"
      } ],
      "version": "2020-10-30T18:29:05.808Z",
      "status": "active",
      "experimental": false,
      "date": "2020-10-30T18:29:05+00:00",
      "publisher": "User ID: 'RB12' User name: 'Rachel Boyer' User skill set: 'T3'",
      "lastReviewDate": "2020-10-30",
      "subjectType": [ "Patient" ]
    }
  }, {
    "fullUrl": "urn:uuid:bdf17ec7-e88e-4bcb-a11c-64dfbc11dde3",
    "resource": {
      "resourceType": "QuestionnaireResponse",
      "id": "bdf17ec7-e88e-4bcb-a11c-64dfbc11dde3",
      "identifier": {
        "value": "7434927"
      },
      "questionnaire": {
        "reference": "urn:uuid:50baa787-98da-4355-9af9-e7efc3c13133"
      },
      "status": "completed",
      "subject": {
        "reference": "urn:uuid:8e0da818-d132-4d32-842d-3b3764cb3b70"
      },
      "context": {
        "reference": "urn:uuid:ee4d3e28-80e9-4f01-bc5b-60531b3acab2"
      },
      "authored": "2020-10-30T18:29:05+00:00",
      "item": [ {
        "linkId": "Tx42307",
        "text": "Are you feeling faint or dizzy?",
        "answer": [ {
          "valueString": "no"
        } ]
      } ]
    }
  }, {
    "fullUrl": "urn:uuid:50baa787-98da-4355-9af9-e7efc3c13133",
    "resource": {
      "resourceType": "Questionnaire",
      "id": "50baa787-98da-4355-9af9-e7efc3c13133",
      "identifier": [ {
        "value": "7434927"
      } ],
      "version": "2020-10-30T18:29:05.808Z",
      "status": "active",
      "experimental": false,
      "date": "2020-10-30T18:29:05+00:00",
      "publisher": "User ID: 'RB12' User name: 'Rachel Boyer' User skill set: 'T3'",
      "lastReviewDate": "2020-10-30",
      "subjectType": [ "Patient" ],
      "item": [ {
        "linkId": "7434927",
        "prefix": "0",
        "text": "Are you feeling faint or dizzy?",
        "type": "choice",
        "required": true,
        "repeats": false,
        "option": [ {
          "valueString": "yes, Selected: false"
        }, {
          "valueString": "not sure, Selected: false"
        }, {
          "valueString": "no, Selected: true"
        } ]
      } ]
    }
  }, {
    "fullUrl": "urn:uuid:3200f59e-d9e2-4365-9e8d-dcc8b08b3d75",
    "resource": {
      "resourceType": "QuestionnaireResponse",
      "id": "3200f59e-d9e2-4365-9e8d-dcc8b08b3d75",
      "identifier": {
        "value": "7434927"
      },
      "questionnaire": {
        "reference": "urn:uuid:8f143ea6-9620-45ad-b397-d018b1d8c659"
      },
      "status": "completed",
      "subject": {
        "reference": "urn:uuid:8e0da818-d132-4d32-842d-3b3764cb3b70"
      },
      "context": {
        "reference": "urn:uuid:ee4d3e28-80e9-4f01-bc5b-60531b3acab2"
      },
      "authored": "2020-10-30T18:29:05+00:00",
      "item": [ {
        "linkId": "Tx1260",
        "text": "Is the nose still bleeding?",
        "answer": [ {
          "valueString": "yes"
        } ]
      } ]
    }
  }, {
    "fullUrl": "urn:uuid:8f143ea6-9620-45ad-b397-d018b1d8c659",
    "resource": {
      "resourceType": "Questionnaire",
      "id": "8f143ea6-9620-45ad-b397-d018b1d8c659",
      "identifier": [ {
        "value": "7434927"
      } ],
      "version": "2020-10-30T18:29:05.808Z",
      "status": "active",
      "experimental": false,
      "date": "2020-10-30T18:29:05+00:00",
      "publisher": "User ID: 'RB12' User name: 'Rachel Boyer' User skill set: 'T3'",
      "lastReviewDate": "2020-10-30",
      "subjectType": [ "Patient" ],
      "item": [ {
        "linkId": "7434927",
        "prefix": "100",
        "text": "Is the nose still bleeding?",
        "type": "choice",
        "required": true,
        "repeats": false,
        "option": [ {
          "valueString": "yes, Selected: true"
        }, {
          "valueString": "not sure, Selected: false"
        }, {
          "valueString": "no, Selected: false"
        } ]
      } ]
    }
  }, {
    "fullUrl": "urn:uuid:21a645db-1015-4f92-8056-a88981888d4e",
    "resource": {
      "resourceType": "QuestionnaireResponse",
      "id": "21a645db-1015-4f92-8056-a88981888d4e",
      "identifier": {
        "value": "7434927"
      },
      "questionnaire": {
        "reference": "urn:uuid:d908ed7c-8eb5-419c-854e-666b6647d9cd"
      },
      "status": "completed",
      "subject": {
        "reference": "urn:uuid:8e0da818-d132-4d32-842d-3b3764cb3b70"
      },
      "context": {
        "reference": "urn:uuid:ee4d3e28-80e9-4f01-bc5b-60531b3acab2"
      },
      "authored": "2020-10-30T18:29:05+00:00",
      "item": [ {
        "linkId": "Tx1258",
        "text": "Is anything stuck up the nose?",
        "answer": [ {
          "valueString": "no"
        } ]
      } ]
    }
  }, {
    "fullUrl": "urn:uuid:d908ed7c-8eb5-419c-854e-666b6647d9cd",
    "resource": {
      "resourceType": "Questionnaire",
      "id": "d908ed7c-8eb5-419c-854e-666b6647d9cd",
      "identifier": [ {
        "value": "7434927"
      } ],
      "version": "2020-10-30T18:29:05.808Z",
      "status": "active",
      "experimental": false,
      "date": "2020-10-30T18:29:05+00:00",
      "publisher": "User ID: 'RB12' User name: 'Rachel Boyer' User skill set: 'T3'",
      "lastReviewDate": "2020-10-30",
      "subjectType": [ "Patient" ],
      "item": [ {
        "linkId": "7434927",
        "prefix": "300",
        "text": "Is anything stuck up the nose?",
        "type": "choice",
        "required": true,
        "repeats": false,
        "option": [ {
          "valueString": "yes, Selected: false"
        }, {
          "valueString": "not sure, Selected: false"
        }, {
          "valueString": "no, Selected: true"
        } ]
      } ]
    }
  }, {
    "fullUrl": "urn:uuid:01b90da0-c67e-455b-a0fc-cf9e231e0ffb",
    "resource": {
      "resourceType": "QuestionnaireResponse",
      "id": "01b90da0-c67e-455b-a0fc-cf9e231e0ffb",
      "identifier": {
        "value": "7434927"
      },
      "questionnaire": {
        "reference": "urn:uuid:e8fa6d02-d1f6-47a7-9f23-fd685872a371"
      },
      "status": "completed",
      "subject": {
        "reference": "urn:uuid:8e0da818-d132-4d32-842d-3b3764cb3b70"
      },
      "context": {
        "reference": "urn:uuid:ee4d3e28-80e9-4f01-bc5b-60531b3acab2"
      },
      "authored": "2020-10-30T18:29:05+00:00",
      "item": [ {
        "linkId": "Tx1259",
        "text": "Have you pinched the soft part of the nose for AT LEAST 10 MINUTES without a break?",
        "answer": [ {
          "valueString": "yes"
        } ]
      } ]
    }
  }, {
    "fullUrl": "urn:uuid:e8fa6d02-d1f6-47a7-9f23-fd685872a371",
    "resource": {
      "resourceType": "Questionnaire",
      "id": "e8fa6d02-d1f6-47a7-9f23-fd685872a371",
      "identifier": [ {
        "value": "7434927"
      } ],
      "version": "2020-10-30T18:29:05.808Z",
      "status": "active",
      "experimental": false,
      "date": "2020-10-30T18:29:05+00:00",
      "publisher": "User ID: 'RB12' User name: 'Rachel Boyer' User skill set: 'T3'",
      "lastReviewDate": "2020-10-30",
      "subjectType": [ "Patient" ],
      "item": [ {
        "linkId": "7434927",
        "prefix": "1500",
        "text": "Have you pinched the soft part of the nose for AT LEAST 10 MINUTES without a break?",
        "type": "choice",
        "required": true,
        "repeats": false,
        "option": [ {
          "valueString": "yes, Selected: true"
        }, {
          "valueString": "not sure, Selected: false"
        }, {
          "valueString": "no, Selected: false"
        } ]
      } ]
    }
  }, {
    "fullUrl": "urn:uuid:e5c4b19d-ef2b-4b3a-b77f-587bc3d29d1c",
    "resource": {
      "resourceType": "QuestionnaireResponse",
      "id": "e5c4b19d-ef2b-4b3a-b77f-587bc3d29d1c",
      "identifier": {
        "value": "7434927"
      },
      "questionnaire": {
        "reference": "urn:uuid:501db670-b5f3-41e7-b54e-5fdbb34d9fe0"
      },
      "status": "completed",
      "subject": {
        "reference": "urn:uuid:8e0da818-d132-4d32-842d-3b3764cb3b70"
      },
      "context": {
        "reference": "urn:uuid:ee4d3e28-80e9-4f01-bc5b-60531b3acab2"
      },
      "authored": "2020-10-30T18:29:05+00:00",
      "item": [ {
        "linkId": "Tx221512",
        "text": "STRING:SDEDFullEDassessmentandmanagementcapability",
        "answer": [ {
          "valueString": "\"ED full ED assessment and management capability\""
        } ]
      } ]
    }
  }, {
    "fullUrl": "urn:uuid:501db670-b5f3-41e7-b54e-5fdbb34d9fe0",
    "resource": {
      "resourceType": "Questionnaire",
      "id": "501db670-b5f3-41e7-b54e-5fdbb34d9fe0",
      "identifier": [ {
        "value": "7434927"
      } ],
      "version": "2020-10-30T18:29:05.808Z",
      "status": "active",
      "experimental": false,
      "date": "2020-10-30T18:29:05+00:00",
      "publisher": "User ID: 'RB12' User name: 'Rachel Boyer' User skill set: 'T3'",
      "lastReviewDate": "2020-10-30",
      "subjectType": [ "Patient" ],
      "item": [ {
        "linkId": "7434927",
        "prefix": "1700",
        "text": "STRING:SDEDFullEDassessmentandmanagementcapability",
        "type": "choice",
        "required": true,
        "repeats": false,
        "option": [ {
          "valueString": "\"ED full ED assessment and management capability\", Selected: true"
        } ]
      } ]
    }
  }, {
    "fullUrl": "urn:uuid:0a0d6e84-ec2f-4d41-afe2-2f11e4e897a4",
    "resource": {
      "resourceType": "QuestionnaireResponse",
      "id": "0a0d6e84-ec2f-4d41-afe2-2f11e4e897a4",
      "identifier": {
        "value": "7434927"
      },
      "questionnaire": {
        "reference": "urn:uuid:0df5061a-036d-4f5e-a633-5041bfe27d5b"
      },
      "status": "completed",
      "subject": {
        "reference": "urn:uuid:8e0da818-d132-4d32-842d-3b3764cb3b70"
      },
      "context": {
        "reference": "urn:uuid:ee4d3e28-80e9-4f01-bc5b-60531b3acab2"
      },
      "authored": "2020-10-30T18:29:05+00:00"
    }
  }, {
    "fullUrl": "urn:uuid:0df5061a-036d-4f5e-a633-5041bfe27d5b",
    "resource": {
      "resourceType": "Questionnaire",
      "id": "0df5061a-036d-4f5e-a633-5041bfe27d5b",
      "identifier": [ {
        "value": "7434927"
      } ],
      "version": "2020-10-30T18:29:05.808Z",
      "status": "active",
      "experimental": false,
      "date": "2020-10-30T18:29:05+00:00",
      "publisher": "User ID: 'RB12' User name: 'Rachel Boyer' User skill set: 'T3'",
      "lastReviewDate": "2020-10-30",
      "subjectType": [ "Patient" ]
    }
  }, {
    "fullUrl": "urn:uuid:0db218ab-ac67-4ad6-95cd-616e43c15c71",
    "resource": {
      "resourceType": "QuestionnaireResponse",
      "id": "0db218ab-ac67-4ad6-95cd-616e43c15c71",
      "identifier": {
        "value": "7434927"
      },
      "questionnaire": {
        "reference": "urn:uuid:ea4d4216-32ab-49ed-a65d-730b4e5b4ff1"
      },
      "status": "completed",
      "subject": {
        "reference": "urn:uuid:8e0da818-d132-4d32-842d-3b3764cb3b70"
      },
      "context": {
        "reference": "urn:uuid:ee4d3e28-80e9-4f01-bc5b-60531b3acab2"
      },
      "authored": "2020-10-30T18:29:05+00:00"
    }
  }, {
    "fullUrl": "urn:uuid:ea4d4216-32ab-49ed-a65d-730b4e5b4ff1",
    "resource": {
      "resourceType": "Questionnaire",
      "id": "ea4d4216-32ab-49ed-a65d-730b4e5b4ff1",
      "identifier": [ {
        "value": "7434927"
      } ],
      "version": "2020-10-30T18:29:05.808Z",
      "status": "active",
      "experimental": false,
      "date": "2020-10-30T18:29:05+00:00",
      "publisher": "User ID: 'RB12' User name: 'Rachel Boyer' User skill set: 'T3'",
      "lastReviewDate": "2020-10-30",
      "subjectType": [ "Patient" ]
    }
  }, {
    "fullUrl": "urn:uuid:3fded9a4-d245-48f4-83fc-f0602370e64c",
    "resource": {
      "resourceType": "QuestionnaireResponse",
      "id": "3fded9a4-d245-48f4-83fc-f0602370e64c",
      "identifier": {
        "value": "7434927"
      },
      "questionnaire": {
        "reference": "urn:uuid:c473a8d1-aade-4389-be91-c43e33bcad3d"
      },
      "status": "completed",
      "subject": {
        "reference": "urn:uuid:8e0da818-d132-4d32-842d-3b3764cb3b70"
      },
      "context": {
        "reference": "urn:uuid:ee4d3e28-80e9-4f01-bc5b-60531b3acab2"
      },
      "authored": "2020-10-30T18:29:05+00:00"
    }
  }, {
    "fullUrl": "urn:uuid:c473a8d1-aade-4389-be91-c43e33bcad3d",
    "resource": {
      "resourceType": "Questionnaire",
      "id": "c473a8d1-aade-4389-be91-c43e33bcad3d",
      "identifier": [ {
        "value": "7434927"
      } ],
      "version": "2020-10-30T18:29:05.808Z",
      "status": "active",
      "experimental": false,
      "date": "2020-10-30T18:29:05+00:00",
      "publisher": "User ID: 'RB12' User name: 'Rachel Boyer' User skill set: 'T3'",
      "lastReviewDate": "2020-10-30",
      "subjectType": [ "Patient" ]
    }
  }, {
    "fullUrl": "urn:uuid:c26441dc-af46-4518-a24e-eb46bf866411",
    "resource": {
      "resourceType": "Observation",
      "id": "c26441dc-af46-4518-a24e-eb46bf866411",
      "status": "final",
      "code": {
        "coding": [ {
          "system": "http://snomed.info/sct",
          "code": "33962009",
          "display": "Presenting complaint"
        } ]
      },
      "subject": {
        "reference": "urn:uuid:8e0da818-d132-4d32-842d-3b3764cb3b70"
      },
      "context": {
        "reference": "urn:uuid:ee4d3e28-80e9-4f01-bc5b-60531b3acab2"
      }
    }
  }, {
    "fullUrl": "urn:uuid:149d1c10-ed9d-4329-9a86-6508841064e1",
    "resource": {
      "resourceType": "PractitionerRole",
      "id": "149d1c10-ed9d-4329-9a86-6508841064e1",
      "practitioner": {
        "reference": "urn:uuid:622f0b08-7a13-4e4b-81e4-06b2b6db4b3a"
      },
      "organization": {
        "reference": "urn:uuid:4f5492a7-cfb2-4e24-9b29-58438abaf337"
      },
      "code": [ {
        "coding": [ {
          "system": "2.16.840.1.113883.2.1.3.2.4.17.339",
          "code": "OTHER",
          "display": "Assessed by"
        } ]
      } ]
    }
  }, {
    "fullUrl": "urn:uuid:4f5492a7-cfb2-4e24-9b29-58438abaf337",
    "resource": {
      "resourceType": "Organization",
      "id": "4f5492a7-cfb2-4e24-9b29-58438abaf337",
      "identifier": [ {
        "value": "Y00397"
      } ],
      "name": "Devon 111 (Devon Doctors Group)"
    }
  }, {
    "fullUrl": "urn:uuid:be0d7918-e332-4118-b3ba-26683d352a43",
    "resource": {
      "resourceType": "PractitionerRole",
      "id": "be0d7918-e332-4118-b3ba-26683d352a43",
      "practitioner": {
        "reference": "urn:uuid:00dc4045-1db7-48b6-8603-537ed4b80770"
      },
      "organization": {
        "reference": "urn:uuid:2a1f7976-d6fc-4b6b-ba32-bcc123d5f4f0"
      },
      "code": [ {
        "coding": [ {
          "system": "2.16.840.1.113883.2.1.3.2.4.17.196",
          "code": "R0010",
          "display": "Medical Director"
        } ]
      } ]
    }
  }, {
    "fullUrl": "urn:uuid:2a1f7976-d6fc-4b6b-ba32-bcc123d5f4f0",
    "resource": {
      "resourceType": "Organization",
      "id": "2a1f7976-d6fc-4b6b-ba32-bcc123d5f4f0",
      "identifier": [ {
        "value": "Y00397"
      } ],
      "name": "Devon Doctors Group"
    }
  }, {
    "fullUrl": "urn:uuid:001385ff-adfe-4cb1-bdf1-9cbaf644fa73",
    "resource": {
      "resourceType": "RelatedPerson",
      "id": "001385ff-adfe-4cb1-bdf1-9cbaf644fa73",
      "patient": {
        "reference": "urn:uuid:8e0da818-d132-4d32-842d-3b3764cb3b70"
      },
      "relationship": {
        "coding": [ {
          "system": "http://hl7.org/fhir/v2/0131",
          "code": "C",
          "display": "Emergency Contact"
        } ]
      },
      "telecom": [ {
        "system": "phone",
        "value": "tel:01702123456"
      } ]
    }
  }, {
    "fullUrl": "urn:uuid:2e6c1098-2ce0-4fe5-866a-74a0414b8b2e",
    "resource": {
      "resourceType": "Device",
      "id": "2e6c1098-2ce0-4fe5-866a-74a0414b8b2e",
      "model": "111 Adaptor",
      "version": "1.0.1"
    }
  }, {
    "fullUrl": "urn:uuid:fbae1877-2459-4061-8e21-4231410ba59c",
    "resource": {
      "resourceType": "List",
      "id": "fbae1877-2459-4061-8e21-4231410ba59c",
      "status": "current",
      "mode": "working",
      "title": "111 Report List",
      "code": {
        "coding": [ {
          "system": "http://snomed.info/sct",
          "code": "225390008",
          "display": "Triage"
        } ]
      },
      "subject": {
        "reference": "urn:uuid:8e0da818-d132-4d32-842d-3b3764cb3b70"
      },
      "encounter": {
        "reference": "urn:uuid:ee4d3e28-80e9-4f01-bc5b-60531b3acab2"
      },
      "date": "2020-10-30T18:29:05+00:00",
      "source": {
        "reference": "urn:uuid:2e6c1098-2ce0-4fe5-866a-74a0414b8b2e"
      },
      "orderedBy": {
        "coding": [ {
          "system": "http://hl7.org/fhir/list-order",
          "code": "event-date",
          "display": "Sorted by Event Date"
        } ]
      },
      "entry": [ {
        "item": {
          "reference": "urn:uuid:e0f863fd-0f17-48e5-84c1-95c7d2d5fb53"
        }
      }, {
        "item": {
          "reference": "urn:uuid:319a0233-f4c1-4751-9d36-50f26a33c62f"
        }
      }, {
        "item": {
          "reference": "urn:uuid:c26441dc-af46-4518-a24e-eb46bf866411"
        }
      }, {
        "item": {
          "reference": "urn:uuid:4f5492a7-cfb2-4e24-9b29-58438abaf337"
        }
      }, {
        "item": {
          "reference": "urn:uuid:7e4a4698-62bf-44eb-95c4-bbdd6217cb4a"
        }
      }, {
        "item": {
          "reference": "urn:uuid:00dc4045-1db7-48b6-8603-537ed4b80770"
        }
      }, {
        "item": {
          "reference": "urn:uuid:001385ff-adfe-4cb1-bdf1-9cbaf644fa73"
        }
      }, {
        "item": {
          "reference": "urn:uuid:2a1f7976-d6fc-4b6b-ba32-bcc123d5f4f0"
        }
      }, {
        "item": {
          "reference": "urn:uuid:622f0b08-7a13-4e4b-81e4-06b2b6db4b3a"
        }
      }, {
        "item": {
          "reference": "urn:uuid:9c93cd55-1034-414b-832c-729719f9502b"
        }
      }, {
        "item": {
          "reference": "urn:uuid:4b5a2c59-438e-4fae-a914-7f22fb18b6bf"
        }
      }, {
        "item": {
          "reference": "urn:uuid:ea2ad25e-266a-4312-a941-a52373eb9589"
        }
      }, {
        "item": {
          "reference": "urn:uuid:358bd16a-b567-4344-bef3-8d82f3d1eb9f"
        }
      }, {
        "item": {
          "reference": "urn:uuid:6ee8000d-1a28-4b22-ae52-22af0cfa6e50"
        }
      }, {
        "item": {
          "reference": "urn:uuid:0a0d6e84-ec2f-4d41-afe2-2f11e4e897a4"
        }
      }, {
        "item": {
          "reference": "urn:uuid:c473a8d1-aade-4389-be91-c43e33bcad3d"
        }
      }, {
        "item": {
          "reference": "urn:uuid:9fd1ddab-514e-49d9-bcbc-232744e7d757"
        }
      }, {
        "item": {
          "reference": "urn:uuid:e0db2f2a-ac76-4a2e-93a0-ec2c61dc44bb"
        }
      }, {
        "item": {
          "reference": "urn:uuid:380b37cc-890b-4d4a-a1fa-d0e141862154"
        }
      }, {
        "item": {
          "reference": "urn:uuid:e9112ab5-3dca-489e-9ca2-a3cbd9de9a22"
        }
      }, {
        "item": {
          "reference": "urn:uuid:cb82cb89-b731-4de3-8d19-450d695755a1"
        }
      }, {
        "item": {
          "reference": "urn:uuid:e8fa6d02-d1f6-47a7-9f23-fd685872a371"
        }
      }, {
        "item": {
          "reference": "urn:uuid:f473d1c6-188d-49fc-9be5-50a272a0b04f"
        }
      }, {
        "item": {
          "reference": "urn:uuid:e4f878a5-a7a1-4daa-a319-a09c486976e0"
        }
      }, {
        "item": {
          "reference": "urn:uuid:3fded9a4-d245-48f4-83fc-f0602370e64c"
        }
      }, {
        "item": {
          "reference": "urn:uuid:501db670-b5f3-41e7-b54e-5fdbb34d9fe0"
        }
      }, {
        "item": {
          "reference": "urn:uuid:b7195361-8417-4c1b-8c08-947cf04f5a1c"
        }
      }, {
        "item": {
          "reference": "urn:uuid:0df5061a-036d-4f5e-a633-5041bfe27d5b"
        }
      }, {
        "item": {
          "reference": "urn:uuid:88cc67d7-85cc-40f6-a2a0-a6047ac5b441"
        }
      }, {
        "item": {
          "reference": "urn:uuid:4de82cfc-f782-4737-8574-8fc46d90311f"
        }
      }, {
        "item": {
          "reference": "urn:uuid:21a645db-1015-4f92-8056-a88981888d4e"
        }
      }, {
        "item": {
          "reference": "urn:uuid:83947f4f-0087-4fae-9138-a6e6362df4cb"
        }
      }, {
        "item": {
          "reference": "urn:uuid:716653a0-c3c7-4717-85d7-29ea099f1e12"
        }
      }, {
        "item": {
          "reference": "urn:uuid:cbba3ced-4537-405c-a49d-670006b62cc4"
        }
      }, {
        "item": {
          "reference": "urn:uuid:b8058573-a48a-4610-a9ea-a997a0bea44e"
        }
      }, {
        "item": {
          "reference": "urn:uuid:50baa787-98da-4355-9af9-e7efc3c13133"
        }
      }, {
        "item": {
          "reference": "urn:uuid:d908ed7c-8eb5-419c-854e-666b6647d9cd"
        }
      }, {
        "item": {
          "reference": "urn:uuid:afb5f449-3de9-4ca0-8ff0-fbada0d7f1fb"
        }
      }, {
        "item": {
          "reference": "urn:uuid:99ce08e0-220c-4f24-9d95-767d156de203"
        }
      }, {
        "item": {
          "reference": "urn:uuid:01b90da0-c67e-455b-a0fc-cf9e231e0ffb"
        }
      }, {
        "item": {
          "reference": "urn:uuid:a7d69f96-99e8-45cf-a6af-2360cf4815f5"
        }
      }, {
        "item": {
          "reference": "urn:uuid:8f143ea6-9620-45ad-b397-d018b1d8c659"
        }
      }, {
        "item": {
          "reference": "urn:uuid:3200f59e-d9e2-4365-9e8d-dcc8b08b3d75"
        }
      }, {
        "item": {
          "reference": "urn:uuid:0db218ab-ac67-4ad6-95cd-616e43c15c71"
        }
      }, {
        "item": {
          "reference": "urn:uuid:4ccddfa6-1377-4e92-b842-c3d400c9af49"
        }
      }, {
        "item": {
          "reference": "urn:uuid:4d9fbb37-e4bf-473e-b96c-22849191a2d3"
        }
      }, {
        "item": {
          "reference": "urn:uuid:728a8687-1576-4875-af53-a4467ab43332"
        }
      }, {
        "item": {
          "reference": "urn:uuid:bdf17ec7-e88e-4bcb-a11c-64dfbc11dde3"
        }
      }, {
        "item": {
          "reference": "urn:uuid:2d83d0a9-af92-4923-a385-a046d1d22ba7"
        }
      }, {
        "item": {
          "reference": "urn:uuid:882da14f-1a2f-4654-af32-e3c0881ba9da"
        }
      }, {
        "item": {
          "reference": "urn:uuid:ea4d4216-32ab-49ed-a65d-730b4e5b4ff1"
        }
      }, {
        "item": {
          "reference": "urn:uuid:5a46798c-a251-4a1c-b6eb-35ca9c892f2b"
        }
      }, {
        "item": {
          "reference": "urn:uuid:e5c4b19d-ef2b-4b3a-b77f-587bc3d29d1c"
        }
      }, {
        "item": {
          "reference": "urn:uuid:bf854243-0dfa-4af2-a092-439cbb92d776"
        }
      }, {
        "item": {
          "reference": "urn:uuid:a61bd5a2-3f06-435c-b1c3-161d496ef435"
        }
      }, {
        "item": {
          "reference": "urn:uuid:a8306671-ae76-4911-8ea1-e5211b5d53b2"
        }
      }, {
        "item": {
          "reference": "urn:uuid:fe4e3c08-fd2a-4dc6-a840-730b9754a2bd"
        }
      }, {
        "item": {
          "reference": "urn:uuid:a9d388b2-1b69-40bf-8228-50ada04f0fbf"
        }
      } ]
    }
  } ]
}