{
  "resourceType": "Bundle",
  "identifier": {
    "type": {
      "text": "ClinicalDocument VersionNumber"
    },
    "value": "1"
  },
  "type": "message",
  "entry": [ {
    "fullUrl": "urn:uuid:A12F527F-3808-44BC-9272-8C8A92884A37",
    "resource": {
      "resourceType": "MessageHeader",
      "id": "A12F527F-3808-44BC-9272-8C8A92884A37",
      "event": {
        "system": "https://fhir.nhs.uk/STU3/CodeSystem/EventType-1",
        "code": "referral-1",
        "display": "Referral"
      },
      "destination": [ {
        "endpoint": "urn:nhs-uk:addressing:ods:20000729:DOSServiceID:2000072936"
      } ],
      "timestamp": "2020-10-30T18:29:05.000+00:00",
      "source": {
        "name": "NHS 111 Adaptor",
        "endpoint": "http://localhost:8080/report"
      },
      "reason": {
        "coding": [ {
          "system": "urn:nhs-itk:ns:201005:interaction",
          "code": "urn:nhs-itk:interaction:primaryNHS111RepeatCallerDocumentSet-v1-0"
        } ]
      }
    }
  }, {
    "fullUrl": "urn:uuid:5d228674-1717-4953-ab05-b6afa17be924",
    "resource": {
      "resourceType": "Encounter",
      "id": "5d228674-1717-4953-ab05-b6afa17be924",
      "identifier": [ {
        "system": "2.16.840.1.113883.2.1.3.2.4.18.34",
        "value": "CF1F65AB-2392-4582-9E14-F0384358CB6A"
      }, {
        "system": "2.16.840.1.113883.2.1.3.2.4.18.35",
        "value": "7434927"
      } ],
      "status": "finished",
      "type": [ {
        "text": "111 Encounter Referral"
      } ],
      "subject": {
        "reference": "urn:uuid:e233f8ef-064c-4326-aafa-999ed8c86b67"
      },
      "participant": [ {
        "type": [ {
          "coding": [ {
            "system": "http://hl7.org/fhir/ValueSet/encounter-participant-type",
            "code": "PPRF",
            "display": "Author"
          } ]
        } ],
        "individual": {
          "reference": "urn:uuid:fed63072-4c77-4bf8-a2e5-12343ef4012b"
        }
      }, {
        "type": [ {
          "coding": [ {
            "system": "http://hl7.org/fhir/ValueSet/encounter-participant-type",
            "code": "ATND",
            "display": "Responsible Party"
          } ]
        } ],
        "individual": {
          "reference": "urn:uuid:adb52c0e-ecd1-494e-b0f3-90c3caf6600d"
        }
      } ],
      "period": {
        "start": "2020-10-30T18:29:05+00:00"
      },
      "location": [ {
        "location": {
          "reference": "urn:uuid:e7e982ff-8617-4d7d-ba45-58287b07fcd1"
        },
        "status": "active"
      }, {
        "location": {
          "reference": "urn:uuid:7115fc00-b7d8-4d56-9bde-9bfa9e1ef1a3"
        },
        "status": "completed"
      } ],
      "serviceProvider": {
        "reference": "urn:uuid:c62a639a-e620-4ff2-a140-57a7e5315c40"
      }
    }
  }, {
    "fullUrl": "urn:uuid:c62a639a-e620-4ff2-a140-57a7e5315c40",
    "resource": {
      "resourceType": "Organization",
      "id": "c62a639a-e620-4ff2-a140-57a7e5315c40",
      "active": true,
      "type": [ {
        "text": "CST"
      } ],
      "name": "Devon Doctors Group"
    }
  }, {
    "fullUrl": "urn:uuid:fed63072-4c77-4bf8-a2e5-12343ef4012b",
    "resource": {
      "resourceType": "Practitioner",
      "id": "fed63072-4c77-4bf8-a2e5-12343ef4012b",
      "active": true,
      "name": [ {
        "use": "official",
        "family": "Service Advisor",
        "given": [ "Dental" ]
      } ]
    }
  }, {
    "fullUrl": "urn:uuid:adb52c0e-ecd1-494e-b0f3-90c3caf6600d",
    "resource": {
      "resourceType": "Practitioner",
      "id": "adb52c0e-ecd1-494e-b0f3-90c3caf6600d",
      "active": true,
      "name": [ {
        "use": "official",
        "family": "Eggleton",
        "given": [ "Dr. Mark" ]
      } ]
    }
  }, {
    "fullUrl": "urn:uuid:e7e982ff-8617-4d7d-ba45-58287b07fcd1",
    "resource": {
      "resourceType": "Location",
      "id": "e7e982ff-8617-4d7d-ba45-58287b07fcd1",
      "managingOrganization": {
        "reference": "urn:uuid:bf6aca89-aa5f-4fc1-98df-68034e4bb8f9"
      }
    }
  }, {
    "fullUrl": "urn:uuid:bf6aca89-aa5f-4fc1-98df-68034e4bb8f9",
    "resource": {
      "resourceType": "Organization",
      "id": "bf6aca89-aa5f-4fc1-98df-68034e4bb8f9",
      "identifier": [ {
        "value": "J85990"
      } ],
      "type": [ {
        "text": "GP Practice"
      } ],
      "name": "Test Somerset"
    }
  }, {
    "fullUrl": "urn:uuid:7115fc00-b7d8-4d56-9bde-9bfa9e1ef1a3",
    "resource": {
      "resourceType": "Location",
      "id": "7115fc00-b7d8-4d56-9bde-9bfa9e1ef1a3",
      "name": "Incident Location",
      "address": {
        "type": "physical",
        "line": [ "NHS England", "Quarry House Quarry Hill", "Leeds", "West Yorkshire" ],
        "postalCode": "LS2 7UE"
      }
    }
  }, {
    "fullUrl": "urn:uuid:e233f8ef-064c-4326-aafa-999ed8c86b67",
    "resource": {
      "resourceType": "Patient",
      "id": "e233f8ef-064c-4326-aafa-999ed8c86b67",
      "identifier": [ {
        "extension": [ {
          "url": "https://fhir.hl7.org.uk/STU3/StructureDefinition/Extension-CareConnect-NHSNumberVerificationStatus-1",
          "valueCodeableConcept": {
            "coding": [ {
              "system": "https://fhir.hl7.org.uk/STU3/StructureDefinition/Extension-CareConnect-NHSNumberVerificationStatus-1",
              "code": "02"
            } ]
          }
        } ],
        "system": "https://fhir.nhs.uk/Id/nhs-number",
        "value": "9990238359"
      } ],
      "active": true,
      "name": [ {
        "use": "official",
        "family": "Xxtestpatientdzadn",
        "given": [ "Scrdonotuse" ]
      } ],
      "telecom": [ {
        "system": "phone",
        "value": "tel:01702123456",
        "use": "home"
      }, {
        "system": "phone",
        "value": "tel:01702123456"
      } ],
      "gender": "female",
      "birthDate": "1965-02-17",
      "address": [ {
        "use": "home",
        "line": [ "NHS England", "Quarry House Quarry Hill", "Leeds", "West Yorkshire" ],
        "postalCode": "LS2 7UE"
      } ],
      "generalPractitioner": [ {
        "reference": "urn:uuid:f91124b6-96ce-4b9b-a384-a891d9a8a2fc"
      } ]
    }
  }, {
    "fullUrl": "urn:uuid:f91124b6-96ce-4b9b-a384-a891d9a8a2fc",
    "resource": {
      "resourceType": "Organization",
      "id": "f91124b6-96ce-4b9b-a384-a891d9a8a2fc",
      "identifier": [ {
        "value": "J85990"
      } ],
      "type": [ {
        "text": "GP Practice"
      } ],
      "name": "Test Somerset"
    }
  }, {
    "fullUrl": "urn:uuid:2efb2011-85cc-4cf7-8493-64453f449e3b",
    "resource": {
      "resourceType": "HealthcareService",
      "id": "2efb2011-85cc-4cf7-8493-64453f449e3b",
      "active": true,
      "providedBy": {
        "reference": "urn:uuid:893a5f55-7d06-4de4-84b9-d1ce078a65d7"
      },
      "location": [ {
        "reference": "urn:uuid:3f684fe8-da39-4a51-8f8a-cdaac78c09e3"
      } ],
      "name": "**TESTING ONLY** DO NOT SEND PATIENTS - ED Test Service for EDDI"
    }
  }, {
    "fullUrl": "urn:uuid:3f684fe8-da39-4a51-8f8a-cdaac78c09e3",
    "resource": {
      "resourceType": "Location",
      "id": "3f684fe8-da39-4a51-8f8a-cdaac78c09e3",
      "managingOrganization": {
        "reference": "urn:uuid:893a5f55-7d06-4de4-84b9-d1ce078a65d7"
      }
    }
  }, {
    "fullUrl": "urn:uuid:893a5f55-7d06-4de4-84b9-d1ce078a65d7",
    "resource": {
      "resourceType": "Organization",
      "id": "893a5f55-7d06-4de4-84b9-d1ce078a65d7",
      "identifier": [ {
        "value": "20000729"
      } ],
      "type": [ {
        "coding": [ {
          "code": "PRCP",
          "display": "**TESTING ONLY** DO NOT SEND PATIENTS - ED Test Service for EDDI"
        } ]
      } ],
      "name": "**TESTING ONLY** DO NOT SEND PATIENTS - ED Test Service for EDDI"
    }
  }, {
    "fullUrl": "urn:uuid:f05637c4-a5e9-4ca3-b4eb-43f0852b9e1d",
    "resource": {
      "resourceType": "ReferralRequest",
      "id": "f05637c4-a5e9-4ca3-b4eb-43f0852b9e1d",
      "status": "active",
      "intent": "plan",
      "priority": "routine",
      "subject": {
        "reference": "urn:uuid:e233f8ef-064c-4326-aafa-999ed8c86b67"
      },
      "context": {
        "reference": "urn:uuid:5d228674-1717-4953-ab05-b6afa17be924"
      },
      "occurrencePeriod": {
        "start": "2022-04-07T07:52:15+00:00",
        "end": "2022-04-07T08:52:15+00:00"
      },
      "authoredOn": "2020-10-30T18:28:58+00:00",
      "requester": {
        "agent": {
          "reference": "urn:uuid:98a33605-0954-4b8f-a8c7-404c59265e3d"
        },
        "onBehalfOf": {
          "reference": "urn:uuid:c62a639a-e620-4ff2-a140-57a7e5315c40"
        }
      },
      "recipient": [ {
        "reference": "urn:uuid:2efb2011-85cc-4cf7-8493-64453f449e3b"
      } ],
      "reasonReference": [ {
        "reference": "urn:uuid:977a78e3-796d-48bb-b8fa-aa90d0c4e90a"
      } ],
      "supportingInfo": [ {
        "reference": "urn:uuid:9b027751-475a-46b3-afa4-4c00cadba97e"
      } ]
    }
  }, {
    "fullUrl": "urn:uuid:9b027751-475a-46b3-afa4-4c00cadba97e",
    "resource": {
      "resourceType": "ProcedureRequest",
      "id": "9b027751-475a-46b3-afa4-4c00cadba97e",
      "status": "active",
      "intent": "plan",
      "priority": "routine",
      "doNotPerform": false,
      "code": {
        "coding": [ {
          "system": "2.16.840.1.113883.2.1.3.2.4.17.325",
          "code": "Dx02",
          "display": "Attend a Treatment Centre within 1 hour"
        } ]
      },
      "subject": {
        "reference": "urn:uuid:e233f8ef-064c-4326-aafa-999ed8c86b67"
      },
      "occurrencePeriod": {
        "start": "2022-04-07T07:52:15+00:00",
        "end": "2022-04-07T08:52:15+00:00"
      },
      "reasonReference": [ {
        "reference": "urn:uuid:977a78e3-796d-48bb-b8fa-aa90d0c4e90a"
      } ]
    }
  }, {
    "fullUrl": "urn:uuid:c66c802b-9856-4d5f-ba77-c07faa490a20",
    "resource": {
      "resourceType": "Composition",
      "id": "c66c802b-9856-4d5f-ba77-c07faa490a20",
      "identifier": {
        "use": "usual",
        "value": "B53175B4-0A4A-4503-A6CD-94333AA01645"
      },
      "status": "final",
      "type": {
        "coding": [ {
          "system": "http://snomed.info/sct",
          "code": "371531000",
          "display": "Report of clinical encounter (record artifact)"
        } ]
      },
      "subject": {
        "reference": "urn:uuid:e233f8ef-064c-4326-aafa-999ed8c86b67"
      },
      "encounter": {
        "reference": "urn:uuid:5d228674-1717-4953-ab05-b6afa17be924"
      },
      "date": "2022-04-07T07:52:15+00:00",
      "author": [ {
        "reference": "urn:uuid:fed63072-4c77-4bf8-a2e5-12343ef4012b"
      } ],
      "title": "111 Report",
      "confidentiality": "N",
      "section": [ {
        "section": [ {
          "title": "Patient's Reported Condition",
          "text": {
            "status": "generated",
            "div": "<div xmlns=\"http://www.w3.org/1999/xhtml\">TEST&lt;br/&gt;</div>"
          }
        }, {
          "title": "Pathways Disposition",
          "text": {
            "status": "generated",
            "div": "<div xmlns=\"http://www.w3.org/1999/xhtml\">Attend a Treatment Centre within 1 hour (Dx02)\n                                                    &lt;br/&gt;&lt;br/&gt;\n                                                    Selected service: **TESTING ONLY** DO NOT SEND PATIENTS - ED Test Se&lt;br/&gt;</div>"
          }
        }, {
          "title": "Consultation Summary",
          "text": {
            "status": "generated",
            "div": "<div xmlns=\"http://www.w3.org/1999/xhtml\">Illness&lt;br/&gt;Warm to touch&lt;br/&gt;Nose bleeding freely&lt;br/&gt;Nose bleeding despite first aid measures&lt;br/&gt;</div>"
          }
        }, {
          "title": "Pathways Assessment",
          "text": {
            "status": "generated",
            "div": "<div xmlns=\"http://www.w3.org/1999/xhtml\">An injury or health problem was the reason for the contact.&lt;br/&gt;Heavy bleeding had not occurred in the previous 2 hours.&lt;br/&gt;An illness or health problem was the main problem.&lt;br/&gt;User Comments: TEST&lt;br/&gt;The individual was not fighting for breath.&lt;br/&gt;The main reason for the assessment was not an allergic reaction, heart attack, chest/upper back pain, probable stroke, recent fit/seizure or suicide attempt.&lt;br/&gt;The main reason for contact was not new confusion, declared diabetic hypo/hyperglycaemia, or ICD shock.&lt;br/&gt;The skin on the torso felt normal, warm or hot.&lt;br/&gt;Pathway selected - Nosebleeds without Injury&lt;br/&gt;The individual was not feeling faint or dizzy.&lt;br/&gt;The nose was continuing to bleed.&lt;br/&gt;There was no nasal foreign body.&lt;br/&gt;Constant pressure had been applied to the soft part of the nose for at least 10 minutes.&lt;br/&gt;Instructions given were: The individual needs to attend a treatment centre within 1 hour.&lt;br/&gt;Directory of Services referral: **TESTING ONLY** DO NOT SEND PATIENTS - ED Test Service for EDDI&lt;br/&gt;Advice given:\n                                                    Worsening\n                                                    &lt;br/&gt;</div>"
          }
        }, {
          "title": "Advice Given",
          "text": {
            "status": "generated",
            "div": "<div xmlns=\"http://www.w3.org/1999/xhtml\">If there are any new symptoms, or if the condition gets worse, changes or you have any other concerns, call us back.&lt;br/&gt;&lt;br/&gt;</div>"
          }
        }, {
          "title": "Special Patient Notes",
          "text": {
            "status": "generated",
            "div": "<div xmlns=\"http://www.w3.org/1999/xhtml\">Special Notes from an external system were flagged as being present for this patient.</div>"
          }
        } ]
      }, {
        "title": "ReferralRequest",
        "entry": [ {
          "reference": "urn:uuid:f05637c4-a5e9-4ca3-b4eb-43f0852b9e1d"
        } ]
      }, {
        "title": "QuestionnaireResponse",
        "entry": [ {
          "reference": "urn:uuid:c4efbf13-f6df-4733-bfe1-aef09e278fe9"
        } ]
      }, {
        "title": "QuestionnaireResponse",
        "entry": [ {
          "reference": "urn:uuid:0363645a-e65b-4c52-bb8e-49fc0fdced26"
        } ]
      }, {
        "title": "QuestionnaireResponse",
        "entry": [ {
          "reference": "urn:uuid:df4cda57-728d-49a3-9668-c2ee281516ee"
        } ]
      }, {
        "title": "QuestionnaireResponse",
        "entry": [ {
          "reference": "urn:uuid:5f8a98c5-ea9b-4dd9-b0ad-9a73d791f732"
        } ]
      }, {
        "title": "QuestionnaireResponse",
        "entry": [ {
          "reference": "urn:uuid:d4ea17b9-4707-4a13-8882-f22caa69ce6b"
        } ]
      }, {
        "title": "QuestionnaireResponse",
        "entry": [ {
          "reference": "urn:uuid:ec634092-552b-44ff-acfe-79b04e58542c"
        } ]
      }, {
        "title": "QuestionnaireResponse",
        "entry": [ {
          "reference": "urn:uuid:dd6fde95-d26a-44d6-8d8b-88f85b1eb609"
        } ]
      }, {
        "title": "QuestionnaireResponse",
        "entry": [ {
          "reference": "urn:uuid:69b20199-24b6-431f-9d72-d9f4b715966c"
        } ]
      }, {
        "title": "QuestionnaireResponse",
        "entry": [ {
          "reference": "urn:uuid:9e935a88-d681-461f-8fe4-1e2653115e7d"
        } ]
      }, {
        "title": "QuestionnaireResponse",
        "entry": [ {
          "reference": "urn:uuid:d97f7f21-d6f2-4edd-b510-eb926b1552fd"
        } ]
      }, {
        "title": "QuestionnaireResponse",
        "entry": [ {
          "reference": "urn:uuid:c2c09185-fd9e-4460-b36f-549e6151ea77"
        } ]
      }, {
        "title": "QuestionnaireResponse",
        "entry": [ {
          "reference": "urn:uuid:d58d8b4f-a532-4ef5-a2c3-989f5c1915c0"
        } ]
      }, {
        "title": "QuestionnaireResponse",
        "entry": [ {
          "reference": "urn:uuid:d6b6215f-9790-4fe8-822b-497e7421a9b3"
        } ]
      }, {
        "title": "QuestionnaireResponse",
        "entry": [ {
          "reference": "urn:uuid:71ef6d64-d9bb-4eb0-8ca2-c997a89c6a2e"
        } ]
      }, {
        "title": "QuestionnaireResponse",
        "entry": [ {
          "reference": "urn:uuid:5bb69956-8bfd-413c-93c9-b3d3e1136f04"
        } ]
      }, {
        "title": "QuestionnaireResponse",
        "entry": [ {
          "reference": "urn:uuid:d53a1702-9088-415c-a129-27f417f493df"
        } ]
      }, {
        "title": "QuestionnaireResponse",
        "entry": [ {
          "reference": "urn:uuid:c304b71c-44e4-41ae-a021-79ca96f6c6a6"
        } ]
      }, {
        "title": "QuestionnaireResponse",
        "entry": [ {
          "reference": "urn:uuid:c5ffb1d4-21ff-4255-8e44-09b95a20be0e"
        } ]
      }, {
        "title": "QuestionnaireResponse",
        "entry": [ {
          "reference": "urn:uuid:7e8fe10c-eb81-4683-a0a2-4c982aaa1762"
        } ]
      }, {
        "title": "QuestionnaireResponse",
        "entry": [ {
          "reference": "urn:uuid:ace4f661-2c51-439f-b1fa-fb24fd6e3ffc"
        } ]
      }, {
        "title": "QuestionnaireResponse",
        "entry": [ {
          "reference": "urn:uuid:f85e044f-41a3-4142-8e33-d95d622dc56c"
        } ]
      }, {
        "title": "QuestionnaireResponse",
        "entry": [ {
          "reference": "urn:uuid:e002e458-cecb-47f8-923d-e56cc01ebb28"
        } ]
      }, {
        "title": "QuestionnaireResponse",
        "entry": [ {
          "reference": "urn:uuid:c414331f-84b6-4b2e-9fb1-0ec0d9b9dc11"
        } ]
      } ]
    }
  }, {
    "fullUrl": "urn:uuid:76a77cf1-8294-4330-89d2-e5b46d5788a0",
    "resource": {
      "resourceType": "Consent",
      "id": "76a77cf1-8294-4330-89d2-e5b46d5788a0",
      "identifier": {
        "use": "usual",
        "value": "B53175B4-0A4A-4503-A6CD-94333AA01645"
      },
      "status": "active",
      "patient": {
        "reference": "urn:uuid:e233f8ef-064c-4326-aafa-999ed8c86b67"
      },
      "period": {
        "start": "2020-10-30T18:29:05+00:00"
      },
      "consentingParty": [ {
        "reference": "urn:uuid:e233f8ef-064c-4326-aafa-999ed8c86b67"
      } ],
      "action": [ {
        "coding": [ {
          "system": "http://snomed.info/sct",
          "code": "425691002",
          "display": "Consent given for electronic record sharing"
        } ],
        "text": "Consent given for electronic record sharing"
      } ],
      "organization": [ {
        "reference": "urn:uuid:c62a639a-e620-4ff2-a140-57a7e5315c40"
      } ],
      "policyRule": "http://hl7.org/fhir/ConsentPolicy/opt-out",
      "data": [ {
        "meaning": "related",
        "reference": {
          "reference": "urn:uuid:5d228674-1717-4953-ab05-b6afa17be924"
        }
      } ]
    }
  }, {
    "fullUrl": "urn:uuid:977a78e3-796d-48bb-b8fa-aa90d0c4e90a",
    "resource": {
      "resourceType": "Condition",
      "id": "977a78e3-796d-48bb-b8fa-aa90d0c4e90a",
      "clinicalStatus": "active",
      "verificationStatus": "unknown",
      "subject": {
        "reference": "urn:uuid:e233f8ef-064c-4326-aafa-999ed8c86b67"
      },
      "context": {
        "reference": "urn:uuid:5d228674-1717-4953-ab05-b6afa17be924"
      },
      "evidence": [ {
        "detail": [ {
          "reference": "urn:uuid:c4efbf13-f6df-4733-bfe1-aef09e278fe9"
        } ]
      }, {
        "detail": [ {
          "reference": "urn:uuid:0363645a-e65b-4c52-bb8e-49fc0fdced26"
        } ]
      }, {
        "detail": [ {
          "reference": "urn:uuid:df4cda57-728d-49a3-9668-c2ee281516ee"
        } ]
      }, {
        "detail": [ {
          "reference": "urn:uuid:5f8a98c5-ea9b-4dd9-b0ad-9a73d791f732"
        } ]
      }, {
        "detail": [ {
          "reference": "urn:uuid:d4ea17b9-4707-4a13-8882-f22caa69ce6b"
        } ]
      }, {
        "detail": [ {
          "reference": "urn:uuid:ec634092-552b-44ff-acfe-79b04e58542c"
        } ]
      }, {
        "detail": [ {
          "reference": "urn:uuid:dd6fde95-d26a-44d6-8d8b-88f85b1eb609"
        } ]
      }, {
        "detail": [ {
          "reference": "urn:uuid:69b20199-24b6-431f-9d72-d9f4b715966c"
        } ]
      }, {
        "detail": [ {
          "reference": "urn:uuid:9e935a88-d681-461f-8fe4-1e2653115e7d"
        } ]
      }, {
        "detail": [ {
          "reference": "urn:uuid:d97f7f21-d6f2-4edd-b510-eb926b1552fd"
        } ]
      }, {
        "detail": [ {
          "reference": "urn:uuid:c2c09185-fd9e-4460-b36f-549e6151ea77"
        } ]
      }, {
        "detail": [ {
          "reference": "urn:uuid:d58d8b4f-a532-4ef5-a2c3-989f5c1915c0"
        } ]
      }, {
        "detail": [ {
          "reference": "urn:uuid:d6b6215f-9790-4fe8-822b-497e7421a9b3"
        } ]
      }, {
        "detail": [ {
          "reference": "urn:uuid:71ef6d64-d9bb-4eb0-8ca2-c997a89c6a2e"
        } ]
      }, {
        "detail": [ {
          "reference": "urn:uuid:5bb69956-8bfd-413c-93c9-b3d3e1136f04"
        } ]
      }, {
        "detail": [ {
          "reference": "urn:uuid:d53a1702-9088-415c-a129-27f417f493df"
        } ]
      }, {
        "detail": [ {
          "reference": "urn:uuid:c304b71c-44e4-41ae-a021-79ca96f6c6a6"
        } ]
      }, {
        "detail": [ {
          "reference": "urn:uuid:c5ffb1d4-21ff-4255-8e44-09b95a20be0e"
        } ]
      }, {
        "detail": [ {
          "reference": "urn:uuid:7e8fe10c-eb81-4683-a0a2-4c982aaa1762"
        } ]
      }, {
        "detail": [ {
          "reference": "urn:uuid:ace4f661-2c51-439f-b1fa-fb24fd6e3ffc"
        } ]
      }, {
        "detail": [ {
          "reference": "urn:uuid:f85e044f-41a3-4142-8e33-d95d622dc56c"
        } ]
      }, {
        "detail": [ {
          "reference": "urn:uuid:e002e458-cecb-47f8-923d-e56cc01ebb28"
        } ]
      }, {
        "detail": [ {
          "reference": "urn:uuid:c414331f-84b6-4b2e-9fb1-0ec0d9b9dc11"
        } ]
      } ]
    }
  }, {
    "fullUrl": "urn:uuid:c4efbf13-f6df-4733-bfe1-aef09e278fe9",
    "resource": {
      "resourceType": "QuestionnaireResponse",
      "id": "c4efbf13-f6df-4733-bfe1-aef09e278fe9",
      "identifier": {
        "value": "7434927"
      },
      "questionnaire": {
        "reference": "urn:uuid:32ed36a7-7cfa-4f72-bd83-2af157dae02d"
      },
      "status": "completed",
      "subject": {
        "reference": "urn:uuid:e233f8ef-064c-4326-aafa-999ed8c86b67"
      },
      "context": {
        "reference": "urn:uuid:5d228674-1717-4953-ab05-b6afa17be924"
      },
      "authored": "2020-10-30T18:29:05+00:00",
      "item": [ {
        "linkId": "Tx220074",
        "text": "What is the reason for the contact?",
        "answer": [ {
          "valueString": "an injury or other health problem"
        } ]
      } ]
    }
  }, {
    "fullUrl": "urn:uuid:32ed36a7-7cfa-4f72-bd83-2af157dae02d",
    "resource": {
      "resourceType": "Questionnaire",
      "id": "32ed36a7-7cfa-4f72-bd83-2af157dae02d",
      "identifier": [ {
        "value": "7434927"
      } ],
      "version": "2020-10-30T18:29:05.808Z",
      "status": "active",
      "experimental": false,
      "date": "2020-10-30T18:29:05+00:00",
      "publisher": "User ID: 'RB12' User name: 'Rachel Boyer' User skill set: 'T3'",
      "lastReviewDate": "2020-10-30",
      "subjectType": [ "Patient" ],
      "item": [ {
        "linkId": "7434927",
        "prefix": "5",
        "text": "What is the reason for the contact?",
        "type": "choice",
        "required": true,
        "repeats": false,
        "option": [ {
          "valueString": "an injury or other health problem, Selected: true"
        }, {
          "valueString": "labour or childbirth, Selected: false"
        }, {
          "valueString": "a need to access another healthcare service, Selected: false"
        }, {
          "valueString": "a healthcare professional requesting contact with another clinician, Selected: false"
        }, {
          "valueString": "a report of results or tests, Selected: false"
        }, {
          "valueString": "a possible failure of contraception, Selected: false"
        }, {
          "valueString": "more, Selected: false"
        } ]
      } ]
    }
  }, {
    "fullUrl": "urn:uuid:0363645a-e65b-4c52-bb8e-49fc0fdced26",
    "resource": {
      "resourceType": "QuestionnaireResponse",
      "id": "0363645a-e65b-4c52-bb8e-49fc0fdced26",
      "identifier": {
        "value": "7434927"
      },
      "questionnaire": {
        "reference": "urn:uuid:eb1d1a43-b973-4ce6-bb9e-bd24365bc024"
      },
      "status": "completed",
      "subject": {
        "reference": "urn:uuid:e233f8ef-064c-4326-aafa-999ed8c86b67"
      },
      "context": {
        "reference": "urn:uuid:5d228674-1717-4953-ab05-b6afa17be924"
      },
      "authored": "2020-10-30T18:29:05+00:00",
      "item": [ {
        "linkId": "Tx221807",
        "text": "STRING:to'Immediatethreatstolife(SPA/OOHversion)'-'Majorbloodloss'stem",
        "answer": [ {
          "valueString": "\"present\""
        } ]
      } ]
    }
  }, {
    "fullUrl": "urn:uuid:eb1d1a43-b973-4ce6-bb9e-bd24365bc024",
    "resource": {
      "resourceType": "Questionnaire",
      "id": "eb1d1a43-b973-4ce6-bb9e-bd24365bc024",
      "identifier": [ {
        "value": "7434927"
      } ],
      "version": "2020-10-30T18:29:05.808Z",
      "status": "active",
      "experimental": false,
      "date": "2020-10-30T18:29:05+00:00",
      "publisher": "User ID: 'RB12' User name: 'Rachel Boyer' User skill set: 'T3'",
      "lastReviewDate": "2020-10-30",
      "subjectType": [ "Patient" ],
      "item": [ {
        "linkId": "7434927",
        "prefix": "200",
        "text": "STRING:to'Immediatethreatstolife(SPA/OOHversion)'-'Majorbloodloss'stem",
        "type": "choice",
        "required": true,
        "repeats": false,
        "option": [ {
          "valueString": "\"present\", Selected: true"
        } ]
      } ]
    }
  }, {
    "fullUrl": "urn:uuid:df4cda57-728d-49a3-9668-c2ee281516ee",
    "resource": {
      "resourceType": "QuestionnaireResponse",
      "id": "df4cda57-728d-49a3-9668-c2ee281516ee",
      "identifier": {
        "value": "7434927"
      },
      "questionnaire": {
        "reference": "urn:uuid:67e3b897-d2c0-4582-96bc-36acb4cf8429"
      },
      "status": "completed",
      "subject": {
        "reference": "urn:uuid:e233f8ef-064c-4326-aafa-999ed8c86b67"
      },
      "context": {
        "reference": "urn:uuid:5d228674-1717-4953-ab05-b6afa17be924"
      },
      "authored": "2020-10-30T18:29:05+00:00"
    }
  }, {
    "fullUrl": "urn:uuid:67e3b897-d2c0-4582-96bc-36acb4cf8429",
    "resource": {
      "resourceType": "Questionnaire",
      "id": "67e3b897-d2c0-4582-96bc-36acb4cf8429",
      "identifier": [ {
        "value": "7434927"
      } ],
      "version": "2020-10-30T18:29:05.808Z",
      "status": "active",
      "experimental": false,
      "date": "2020-10-30T18:29:05+00:00",
      "publisher": "User ID: 'RB12' User name: 'Rachel Boyer' User skill set: 'T3'",
      "lastReviewDate": "2020-10-30",
      "subjectType": [ "Patient" ]
    }
  }, {
    "fullUrl": "urn:uuid:5f8a98c5-ea9b-4dd9-b0ad-9a73d791f732",
    "resource": {
      "resourceType": "QuestionnaireResponse",
      "id": "5f8a98c5-ea9b-4dd9-b0ad-9a73d791f732",
      "identifier": {
        "value": "7434927"
      },
      "questionnaire": {
        "reference": "urn:uuid:08d927f6-2328-441e-b891-75ba4cb18305"
      },
      "status": "completed",
      "subject": {
        "reference": "urn:uuid:e233f8ef-064c-4326-aafa-999ed8c86b67"
      },
      "context": {
        "reference": "urn:uuid:5d228674-1717-4953-ab05-b6afa17be924"
      },
      "authored": "2020-10-30T18:29:05+00:00",
      "item": [ {
        "linkId": "Tx221799",
        "text": "STRING:injury,illnessorlabourestablishedinEntryFlow",
        "answer": [ {
          "valueString": "\"present\""
        } ]
      } ]
    }
  }, {
    "fullUrl": "urn:uuid:08d927f6-2328-441e-b891-75ba4cb18305",
    "resource": {
      "resourceType": "Questionnaire",
      "id": "08d927f6-2328-441e-b891-75ba4cb18305",
      "identifier": [ {
        "value": "7434927"
      } ],
      "version": "2020-10-30T18:29:05.808Z",
      "status": "active",
      "experimental": false,
      "date": "2020-10-30T18:29:05+00:00",
      "publisher": "User ID: 'RB12' User name: 'Rachel Boyer' User skill set: 'T3'",
      "lastReviewDate": "2020-10-30",
      "subjectType": [ "Patient" ],
      "item": [ {
        "linkId": "7434927",
        "prefix": "0",
        "text": "STRING:injury,illnessorlabourestablishedinEntryFlow",
        "type": "choice",
        "required": true,
        "repeats": false,
        "option": [ {
          "valueString": "\"present\", Selected: true"
        } ]
      } ]
    }
  }, {
    "fullUrl": "urn:uuid:d4ea17b9-4707-4a13-8882-f22caa69ce6b",
    "resource": {
      "resourceType": "QuestionnaireResponse",
      "id": "d4ea17b9-4707-4a13-8882-f22caa69ce6b",
      "identifier": {
        "value": "7434927"
      },
      "questionnaire": {
        "reference": "urn:uuid:58a3af2b-85b1-4ed7-8ca7-8c56c3481db8"
      },
      "status": "completed",
      "subject": {
        "reference": "urn:uuid:e233f8ef-064c-4326-aafa-999ed8c86b67"
      },
      "context": {
        "reference": "urn:uuid:5d228674-1717-4953-ab05-b6afa17be924"
      },
      "authored": "2020-10-30T18:29:05+00:00",
      "item": [ {
        "linkId": "Tx224120",
        "text": "Have you been bleeding RED BLOOD very heavily IN THE LAST 2 HOURS?",
        "answer": [ {
          "valueString": "no"
        } ]
      } ]
    }
  }, {
    "fullUrl": "urn:uuid:58a3af2b-85b1-4ed7-8ca7-8c56c3481db8",
    "resource": {
      "resourceType": "Questionnaire",
      "id": "58a3af2b-85b1-4ed7-8ca7-8c56c3481db8",
      "identifier": [ {
        "value": "7434927"
      } ],
      "version": "2020-10-30T18:29:05.808Z",
      "status": "active",
      "experimental": false,
      "date": "2020-10-30T18:29:05+00:00",
      "publisher": "User ID: 'RB12' User name: 'Rachel Boyer' User skill set: 'T3'",
      "lastReviewDate": "2020-10-30",
      "subjectType": [ "Patient" ],
      "item": [ {
        "linkId": "7434927",
        "prefix": "10100",
        "text": "Have you been bleeding RED BLOOD very heavily IN THE LAST 2 HOURS?",
        "type": "choice",
        "required": true,
        "repeats": false,
        "option": [ {
          "valueString": "yes, Selected: false"
        }, {
          "valueString": "not sure, Selected: false"
        }, {
          "valueString": "no, Selected: true"
        } ]
      } ]
    }
  }, {
    "fullUrl": "urn:uuid:ec634092-552b-44ff-acfe-79b04e58542c",
    "resource": {
      "resourceType": "QuestionnaireResponse",
      "id": "ec634092-552b-44ff-acfe-79b04e58542c",
      "identifier": {
        "value": "7434927"
      },
      "questionnaire": {
        "reference": "urn:uuid:97d7cd46-1418-403b-aaf1-e6c854393cf7"
      },
      "status": "completed",
      "subject": {
        "reference": "urn:uuid:e233f8ef-064c-4326-aafa-999ed8c86b67"
      },
      "context": {
        "reference": "urn:uuid:5d228674-1717-4953-ab05-b6afa17be924"
      },
      "authored": "2020-10-30T18:29:05+00:00",
      "item": [ {
        "linkId": "Tx221343",
        "text": "SocialConcernsExcluded",
        "answer": [ {
          "valueString": "==\"present\""
        } ]
      } ]
    }
  }, {
    "fullUrl": "urn:uuid:97d7cd46-1418-403b-aaf1-e6c854393cf7",
    "resource": {
      "resourceType": "Questionnaire",
      "id": "97d7cd46-1418-403b-aaf1-e6c854393cf7",
      "identifier": [ {
        "value": "7434927"
      } ],
      "version": "2020-10-30T18:29:05.808Z",
      "status": "active",
      "experimental": false,
      "date": "2020-10-30T18:29:05+00:00",
      "publisher": "User ID: 'RB12' User name: 'Rachel Boyer' User skill set: 'T3'",
      "lastReviewDate": "2020-10-30",
      "subjectType": [ "Patient" ],
      "item": [ {
        "linkId": "7434927",
        "prefix": "1100",
        "text": "SocialConcernsExcluded",
        "type": "choice",
        "required": true,
        "repeats": false,
        "option": [ {
          "valueString": "==\"present\", Selected: true"
        }, {
          "valueString": "*, Selected: false"
        } ]
      } ]
    }
  }, {
    "fullUrl": "urn:uuid:dd6fde95-d26a-44d6-8d8b-88f85b1eb609",
    "resource": {
      "resourceType": "QuestionnaireResponse",
      "id": "dd6fde95-d26a-44d6-8d8b-88f85b1eb609",
      "identifier": {
        "value": "7434927"
      },
      "questionnaire": {
        "reference": "urn:uuid:b8963b7f-7a31-4c95-8eae-4887234c6739"
      },
      "status": "completed",
      "subject": {
        "reference": "urn:uuid:e233f8ef-064c-4326-aafa-999ed8c86b67"
      },
      "context": {
        "reference": "urn:uuid:5d228674-1717-4953-ab05-b6afa17be924"
      },
      "authored": "2020-10-30T18:29:05+00:00",
      "item": [ {
        "linkId": "Tx130011",
        "text": "What is the main problem?",
        "answer": [ {
          "valueString": "illness or other health problem (specify)"
        } ]
      } ]
    }
  }, {
    "fullUrl": "urn:uuid:b8963b7f-7a31-4c95-8eae-4887234c6739",
    "resource": {
      "resourceType": "Questionnaire",
      "id": "b8963b7f-7a31-4c95-8eae-4887234c6739",
      "identifier": [ {
        "value": "7434927"
      } ],
      "version": "2020-10-30T18:29:05.808Z",
      "status": "active",
      "experimental": false,
      "date": "2020-10-30T18:29:05+00:00",
      "publisher": "User ID: 'RB12' User name: 'Rachel Boyer' User skill set: 'T3'",
      "lastReviewDate": "2020-10-30",
      "subjectType": [ "Patient" ],
      "item": [ {
        "linkId": "7434927",
        "prefix": "2300",
        "text": "What is the main problem?",
        "type": "choice",
        "required": true,
        "repeats": false,
        "option": [ {
          "valueString": "the individual has been told to follow a particular course of action (specify), Selected: false"
        }, {
          "valueString": "the individual is an identified frequent caller, Selected: false"
        }, {
          "valueString": "injury (specify), Selected: false"
        }, {
          "valueString": "illness or other health problem (specify), Selected: true"
        }, {
          "valueString": "child protection/vulnerable adult concern, Selected: false"
        }, {
          "valueString": "social or domestic emergency, Selected: false"
        }, {
          "valueString": "the environment potentially poses an immediate threat to life (specify), Selected: false"
        } ]
      } ]
    }
  }, {
    "fullUrl": "urn:uuid:69b20199-24b6-431f-9d72-d9f4b715966c",
    "resource": {
      "resourceType": "QuestionnaireResponse",
      "id": "69b20199-24b6-431f-9d72-d9f4b715966c",
      "identifier": {
        "value": "7434927"
      },
      "questionnaire": {
        "reference": "urn:uuid:c330243b-7d94-4a4f-9c59-3d94691b99d3"
      },
      "status": "completed",
      "subject": {
        "reference": "urn:uuid:e233f8ef-064c-4326-aafa-999ed8c86b67"
      },
      "context": {
        "reference": "urn:uuid:5d228674-1717-4953-ab05-b6afa17be924"
      },
      "authored": "2020-10-30T18:29:05+00:00"
    }
  }, {
    "fullUrl": "urn:uuid:c330243b-7d94-4a4f-9c59-3d94691b99d3",
    "resource": {
      "resourceType": "Questionnaire",
      "id": "c330243b-7d94-4a4f-9c59-3d94691b99d3",
      "identifier": [ {
        "value": "7434927"
      } ],
      "version": "2020-10-30T18:29:05.808Z",
      "status": "active",
      "experimental": false,
      "date": "2020-10-30T18:29:05+00:00",
      "publisher": "User ID: 'RB12' User name: 'Rachel Boyer' User skill set: 'T3'",
      "lastReviewDate": "2020-10-30",
      "subjectType": [ "Patient" ]
    }
  }, {
    "fullUrl": "urn:uuid:9e935a88-d681-461f-8fe4-1e2653115e7d",
    "resource": {
      "resourceType": "QuestionnaireResponse",
      "id": "9e935a88-d681-461f-8fe4-1e2653115e7d",
      "identifier": {
        "value": "7434927"
      },
      "questionnaire": {
        "reference": "urn:uuid:352803cd-a024-4a5b-9a32-9adefb3d5c7f"
      },
      "status": "completed",
      "subject": {
        "reference": "urn:uuid:e233f8ef-064c-4326-aafa-999ed8c86b67"
      },
      "context": {
        "reference": "urn:uuid:5d228674-1717-4953-ab05-b6afa17be924"
      },
      "authored": "2020-10-30T18:29:05+00:00",
      "item": [ {
        "linkId": "Tx61025",
        "text": "Are you so breathless that speaking more than a few words is impossible?",
        "answer": [ {
          "valueString": "no"
        } ]
      } ]
    }
  }, {
    "fullUrl": "urn:uuid:352803cd-a024-4a5b-9a32-9adefb3d5c7f",
    "resource": {
      "resourceType": "Questionnaire",
      "id": "352803cd-a024-4a5b-9a32-9adefb3d5c7f",
      "identifier": [ {
        "value": "7434927"
      } ],
      "version": "2020-10-30T18:29:05.808Z",
      "status": "active",
      "experimental": false,
      "date": "2020-10-30T18:29:05+00:00",
      "publisher": "User ID: 'RB12' User name: 'Rachel Boyer' User skill set: 'T3'",
      "lastReviewDate": "2020-10-30",
      "subjectType": [ "Patient" ],
      "item": [ {
        "linkId": "7434927",
        "prefix": "0",
        "text": "Are you so breathless that speaking more than a few words is impossible?",
        "type": "choice",
        "required": true,
        "repeats": false,
        "option": [ {
          "valueString": "yes, Selected: false"
        }, {
          "valueString": "not sure, Selected: false"
        }, {
          "valueString": "no, Selected: true"
        } ]
      } ]
    }
  }, {
    "fullUrl": "urn:uuid:d97f7f21-d6f2-4edd-b510-eb926b1552fd",
    "resource": {
      "resourceType": "QuestionnaireResponse",
      "id": "d97f7f21-d6f2-4edd-b510-eb926b1552fd",
      "identifier": {
        "value": "7434927"
      },
      "questionnaire": {
        "reference": "urn:uuid:36004579-4c4c-482b-8186-82f9b911589f"
      },
      "status": "completed",
      "subject": {
        "reference": "urn:uuid:e233f8ef-064c-4326-aafa-999ed8c86b67"
      },
      "context": {
        "reference": "urn:uuid:5d228674-1717-4953-ab05-b6afa17be924"
      },
      "authored": "2020-10-30T18:29:05+00:00",
      "item": [ {
        "linkId": "Tx220845",
        "text": "SYSTEM_FLUPANDEMIC",
        "answer": [ {
          "valueString": "==\"pandemic\""
        } ]
      } ]
    }
  }, {
    "fullUrl": "urn:uuid:36004579-4c4c-482b-8186-82f9b911589f",
    "resource": {
      "resourceType": "Questionnaire",
      "id": "36004579-4c4c-482b-8186-82f9b911589f",
      "identifier": [ {
        "value": "7434927"
      } ],
      "version": "2020-10-30T18:29:05.808Z",
      "status": "active",
      "experimental": false,
      "date": "2020-10-30T18:29:05+00:00",
      "publisher": "User ID: 'RB12' User name: 'Rachel Boyer' User skill set: 'T3'",
      "lastReviewDate": "2020-10-30",
      "subjectType": [ "Patient" ],
      "item": [ {
        "linkId": "7434927",
        "prefix": "100",
        "text": "SYSTEM_FLUPANDEMIC",
        "type": "choice",
        "required": true,
        "repeats": false,
        "option": [ {
          "valueString": "==\"pandemic\", Selected: true"
        }, {
          "valueString": "*, Selected: false"
        } ]
      } ]
    }
  }, {
    "fullUrl": "urn:uuid:c2c09185-fd9e-4460-b36f-549e6151ea77",
    "resource": {
      "resourceType": "QuestionnaireResponse",
      "id": "c2c09185-fd9e-4460-b36f-549e6151ea77",
      "identifier": {
        "value": "7434927"
      },
      "questionnaire": {
        "reference": "urn:uuid:e78ccfd9-678f-4bcf-967a-a342986cafe2"
      },
      "status": "completed",
      "subject": {
        "reference": "urn:uuid:e233f8ef-064c-4326-aafa-999ed8c86b67"
      },
      "context": {
        "reference": "urn:uuid:5d228674-1717-4953-ab05-b6afa17be924"
      },
      "authored": "2020-10-30T18:29:05+00:00",
      "item": [ {
        "linkId": "Tx223440",
        "text": "WHAT IS SAID TO BE THE MAIN REASON FOR THIS CONTACT?",
        "answer": [ {
          "valueString": "more"
        } ]
      } ]
    }
  }, {
    "fullUrl": "urn:uuid:e78ccfd9-678f-4bcf-967a-a342986cafe2",
    "resource": {
      "resourceType": "Questionnaire",
      "id": "e78ccfd9-678f-4bcf-967a-a342986cafe2",
      "identifier": [ {
        "value": "7434927"
      } ],
      "version": "2020-10-30T18:29:05.808Z",
      "status": "active",
      "experimental": false,
      "date": "2020-10-30T18:29:05+00:00",
      "publisher": "User ID: 'RB12' User name: 'Rachel Boyer' User skill set: 'T3'",
      "lastReviewDate": "2020-10-30",
      "subjectType": [ "Patient" ],
      "item": [ {
        "linkId": "7434927",
        "prefix": "5200",
        "text": "WHAT IS SAID TO BE THE MAIN REASON FOR THIS CONTACT?",
        "type": "choice",
        "required": true,
        "repeats": false,
        "option": [ {
          "valueString": "a probable allergic reaction now, Selected: false"
        }, {
          "valueString": "a probable heart attack, Selected: false"
        }, {
          "valueString": "chest or upper back pain, Selected: false"
        }, {
          "valueString": "a probable stroke or mini-stroke, Selected: false"
        }, {
          "valueString": "a probable fit or seizure within the last 12 hours, Selected: false"
        }, {
          "valueString": "a suicide attempt, Selected: false"
        }, {
          "valueString": "more, Selected: true"
        } ]
      } ]
    }
  }, {
    "fullUrl": "urn:uuid:d58d8b4f-a532-4ef5-a2c3-989f5c1915c0",
    "resource": {
      "resourceType": "QuestionnaireResponse",
      "id": "d58d8b4f-a532-4ef5-a2c3-989f5c1915c0",
      "identifier": {
        "value": "7434927"
      },
      "questionnaire": {
        "reference": "urn:uuid:28b25a74-6604-40d2-8c4c-cd1e9a4697bf"
      },
      "status": "completed",
      "subject": {
        "reference": "urn:uuid:e233f8ef-064c-4326-aafa-999ed8c86b67"
      },
      "context": {
        "reference": "urn:uuid:5d228674-1717-4953-ab05-b6afa17be924"
      },
      "authored": "2020-10-30T18:29:05+00:00",
      "item": [ {
        "linkId": "Tx220032",
        "text": "WHAT IS SAID TO BE THE MAIN REASON FOR THIS CONTACT?",
        "answer": [ {
          "valueString": "none of the above"
        } ]
      } ]
    }
  }, {
    "fullUrl": "urn:uuid:28b25a74-6604-40d2-8c4c-cd1e9a4697bf",
    "resource": {
      "resourceType": "Questionnaire",
      "id": "28b25a74-6604-40d2-8c4c-cd1e9a4697bf",
      "identifier": [ {
        "value": "7434927"
      } ],
      "version": "2020-10-30T18:29:05.808Z",
      "status": "active",
      "experimental": false,
      "date": "2020-10-30T18:29:05+00:00",
      "publisher": "User ID: 'RB12' User name: 'Rachel Boyer' User skill set: 'T3'",
      "lastReviewDate": "2020-10-30",
      "subjectType": [ "Patient" ],
      "item": [ {
        "linkId": "7434927",
        "prefix": "2200",
        "text": "WHAT IS SAID TO BE THE MAIN REASON FOR THIS CONTACT?",
        "type": "choice",
        "required": true,
        "repeats": false,
        "option": [ {
          "valueString": "new confusion now, Selected: false"
        }, {
          "valueString": "a diabetic hypo (low blood sugar) or a diabetic hyper (high blood sugar), Selected: false"
        }, {
          "valueString": "recovery from an ICD (implanted cardioverter defibrillator) shock, Selected: false"
        }, {
          "valueString": "none of the above, Selected: true"
        } ]
      } ]
    }
  }, {
    "fullUrl": "urn:uuid:d6b6215f-9790-4fe8-822b-497e7421a9b3",
    "resource": {
      "resourceType": "QuestionnaireResponse",
      "id": "d6b6215f-9790-4fe8-822b-497e7421a9b3",
      "identifier": {
        "value": "7434927"
      },
      "questionnaire": {
        "reference": "urn:uuid:2a0a293c-7a2e-4daf-aa1a-10db019eff3e"
      },
      "status": "completed",
      "subject": {
        "reference": "urn:uuid:e233f8ef-064c-4326-aafa-999ed8c86b67"
      },
      "context": {
        "reference": "urn:uuid:5d228674-1717-4953-ab05-b6afa17be924"
      },
      "authored": "2020-10-30T18:29:05+00:00",
      "item": [ {
        "linkId": "Tx223142",
        "text": "Does the skin on the chest, back or abdomen feel a normal temperature?",
        "answer": [ {
          "valueString": "yes - normal, warm or hot"
        } ]
      } ]
    }
  }, {
    "fullUrl": "urn:uuid:2a0a293c-7a2e-4daf-aa1a-10db019eff3e",
    "resource": {
      "resourceType": "Questionnaire",
      "id": "2a0a293c-7a2e-4daf-aa1a-10db019eff3e",
      "identifier": [ {
        "value": "7434927"
      } ],
      "version": "2020-10-30T18:29:05.808Z",
      "status": "active",
      "experimental": false,
      "date": "2020-10-30T18:29:05+00:00",
      "publisher": "User ID: 'RB12' User name: 'Rachel Boyer' User skill set: 'T3'",
      "lastReviewDate": "2020-10-30",
      "subjectType": [ "Patient" ],
      "item": [ {
        "linkId": "7434927",
        "prefix": "4200",
        "text": "Does the skin on the chest, back or abdomen feel a normal temperature?",
        "type": "choice",
        "required": true,
        "repeats": false,
        "option": [ {
          "valueString": "yes - normal, warm or hot, Selected: true"
        }, {
          "valueString": "not sure, Selected: false"
        }, {
          "valueString": "no - cool OR cold, Selected: false"
        }, {
          "valueString": "not safe to touch, Selected: false"
        } ]
      } ]
    }
  }, {
    "fullUrl": "urn:uuid:71ef6d64-d9bb-4eb0-8ca2-c997a89c6a2e",
    "resource": {
      "resourceType": "QuestionnaireResponse",
      "id": "71ef6d64-d9bb-4eb0-8ca2-c997a89c6a2e",
      "identifier": {
        "value": "7434927"
      },
      "questionnaire": {
        "reference": "urn:uuid:bcf0112a-8a13-4e9c-9de5-c797f2cde31c"
      },
      "status": "completed",
      "subject": {
        "reference": "urn:uuid:e233f8ef-064c-4326-aafa-999ed8c86b67"
      },
      "context": {
        "reference": "urn:uuid:5d228674-1717-4953-ab05-b6afa17be924"
      },
      "authored": "2020-10-30T18:29:05+00:00",
      "item": [ {
        "linkId": "Tx221724",
        "text": "STRING:ShockAsked",
        "answer": [ {
          "valueString": "\"present\""
        } ]
      } ]
    }
  }, {
    "fullUrl": "urn:uuid:bcf0112a-8a13-4e9c-9de5-c797f2cde31c",
    "resource": {
      "resourceType": "Questionnaire",
      "id": "bcf0112a-8a13-4e9c-9de5-c797f2cde31c",
      "identifier": [ {
        "value": "7434927"
      } ],
      "version": "2020-10-30T18:29:05.808Z",
      "status": "active",
      "experimental": false,
      "date": "2020-10-30T18:29:05+00:00",
      "publisher": "User ID: 'RB12' User name: 'Rachel Boyer' User skill set: 'T3'",
      "lastReviewDate": "2020-10-30",
      "subjectType": [ "Patient" ],
      "item": [ {
        "linkId": "7434927",
        "prefix": "3700",
        "text": "STRING:ShockAsked",
        "type": "choice",
        "required": true,
        "repeats": false,
        "option": [ {
          "valueString": "\"present\", Selected: true"
        } ]
      } ]
    }
  }, {
    "fullUrl": "urn:uuid:5bb69956-8bfd-413c-93c9-b3d3e1136f04",
    "resource": {
      "resourceType": "QuestionnaireResponse",
      "id": "5bb69956-8bfd-413c-93c9-b3d3e1136f04",
      "identifier": {
        "value": "7434927"
      },
      "questionnaire": {
        "reference": "urn:uuid:72323e59-5d5e-4e3c-9d5e-c834ca36d0f7"
      },
      "status": "completed",
      "subject": {
        "reference": "urn:uuid:e233f8ef-064c-4326-aafa-999ed8c86b67"
      },
      "context": {
        "reference": "urn:uuid:5d228674-1717-4953-ab05-b6afa17be924"
      },
      "authored": "2020-10-30T18:29:05+00:00"
    }
  }, {
    "fullUrl": "urn:uuid:72323e59-5d5e-4e3c-9d5e-c834ca36d0f7",
    "resource": {
      "resourceType": "Questionnaire",
      "id": "72323e59-5d5e-4e3c-9d5e-c834ca36d0f7",
      "identifier": [ {
        "value": "7434927"
      } ],
      "version": "2020-10-30T18:29:05.808Z",
      "status": "active",
      "experimental": false,
      "date": "2020-10-30T18:29:05+00:00",
      "publisher": "User ID: 'RB12' User name: 'Rachel Boyer' User skill set: 'T3'",
      "lastReviewDate": "2020-10-30",
      "subjectType": [ "Patient" ]
    }
  }, {
    "fullUrl": "urn:uuid:d53a1702-9088-415c-a129-27f417f493df",
    "resource": {
      "resourceType": "QuestionnaireResponse",
      "id": "d53a1702-9088-415c-a129-27f417f493df",
      "identifier": {
        "value": "7434927"
      },
      "questionnaire": {
        "reference": "urn:uuid:bf0f842a-a53f-41df-b382-2faed0dcf62d"
      },
      "status": "completed",
      "subject": {
        "reference": "urn:uuid:e233f8ef-064c-4326-aafa-999ed8c86b67"
      },
      "context": {
        "reference": "urn:uuid:5d228674-1717-4953-ab05-b6afa17be924"
      },
      "authored": "2020-10-30T18:29:05+00:00",
      "item": [ {
        "linkId": "Tx42307",
        "text": "Are you feeling faint or dizzy?",
        "answer": [ {
          "valueString": "no"
        } ]
      } ]
    }
  }, {
    "fullUrl": "urn:uuid:bf0f842a-a53f-41df-b382-2faed0dcf62d",
    "resource": {
      "resourceType": "Questionnaire",
      "id": "bf0f842a-a53f-41df-b382-2faed0dcf62d",
      "identifier": [ {
        "value": "7434927"
      } ],
      "version": "2020-10-30T18:29:05.808Z",
      "status": "active",
      "experimental": false,
      "date": "2020-10-30T18:29:05+00:00",
      "publisher": "User ID: 'RB12' User name: 'Rachel Boyer' User skill set: 'T3'",
      "lastReviewDate": "2020-10-30",
      "subjectType": [ "Patient" ],
      "item": [ {
        "linkId": "7434927",
        "prefix": "0",
        "text": "Are you feeling faint or dizzy?",
        "type": "choice",
        "required": true,
        "repeats": false,
        "option": [ {
          "valueString": "yes, Selected: false"
        }, {
          "valueString": "not sure, Selected: false"
        }, {
          "valueString": "no, Selected: true"
        } ]
      } ]
    }
  }, {
    "fullUrl": "urn:uuid:c304b71c-44e4-41ae-a021-79ca96f6c6a6",
    "resource": {
      "resourceType": "QuestionnaireResponse",
      "id": "c304b71c-44e4-41ae-a021-79ca96f6c6a6",
      "identifier": {
        "value": "7434927"
      },
      "questionnaire": {
        "reference": "urn:uuid:1fcc0603-4c6e-4b3f-97c0-282f39e9300e"
      },
      "status": "completed",
      "subject": {
        "reference": "urn:uuid:e233f8ef-064c-4326-aafa-999ed8c86b67"
      },
      "context": {
        "reference": "urn:uuid:5d228674-1717-4953-ab05-b6afa17be924"
      },
      "authored": "2020-10-30T18:29:05+00:00",
      "item": [ {
        "linkId": "Tx1260",
        "text": "Is the nose still bleeding?",
        "answer": [ {
          "valueString": "yes"
        } ]
      } ]
    }
  }, {
    "fullUrl": "urn:uuid:1fcc0603-4c6e-4b3f-97c0-282f39e9300e",
    "resource": {
      "resourceType": "Questionnaire",
      "id": "1fcc0603-4c6e-4b3f-97c0-282f39e9300e",
      "identifier": [ {
        "value": "7434927"
      } ],
      "version": "2020-10-30T18:29:05.808Z",
      "status": "active",
      "experimental": false,
      "date": "2020-10-30T18:29:05+00:00",
      "publisher": "User ID: 'RB12' User name: 'Rachel Boyer' User skill set: 'T3'",
      "lastReviewDate": "2020-10-30",
      "subjectType": [ "Patient" ],
      "item": [ {
        "linkId": "7434927",
        "prefix": "100",
        "text": "Is the nose still bleeding?",
        "type": "choice",
        "required": true,
        "repeats": false,
        "option": [ {
          "valueString": "yes, Selected: true"
        }, {
          "valueString": "not sure, Selected: false"
        }, {
          "valueString": "no, Selected: false"
        } ]
      } ]
    }
  }, {
    "fullUrl": "urn:uuid:c5ffb1d4-21ff-4255-8e44-09b95a20be0e",
    "resource": {
      "resourceType": "QuestionnaireResponse",
      "id": "c5ffb1d4-21ff-4255-8e44-09b95a20be0e",
      "identifier": {
        "value": "7434927"
      },
      "questionnaire": {
        "reference": "urn:uuid:cbf2d9ce-1353-4ff2-9327-d9c50aede277"
      },
      "status": "completed",
      "subject": {
        "reference": "urn:uuid:e233f8ef-064c-4326-aafa-999ed8c86b67"
      },
      "context": {
        "reference": "urn:uuid:5d228674-1717-4953-ab05-b6afa17be924"
      },
      "authored": "2020-10-30T18:29:05+00:00",
      "item": [ {
        "linkId": "Tx1258",
        "text": "Is anything stuck up the nose?",
        "answer": [ {
          "valueString": "no"
        } ]
      } ]
    }
  }, {
    "fullUrl": "urn:uuid:cbf2d9ce-1353-4ff2-9327-d9c50aede277",
    "resource": {
      "resourceType": "Questionnaire",
      "id": "cbf2d9ce-1353-4ff2-9327-d9c50aede277",
      "identifier": [ {
        "value": "7434927"
      } ],
      "version": "2020-10-30T18:29:05.808Z",
      "status": "active",
      "experimental": false,
      "date": "2020-10-30T18:29:05+00:00",
      "publisher": "User ID: 'RB12' User name: 'Rachel Boyer' User skill set: 'T3'",
      "lastReviewDate": "2020-10-30",
      "subjectType": [ "Patient" ],
      "item": [ {
        "linkId": "7434927",
        "prefix": "300",
        "text": "Is anything stuck up the nose?",
        "type": "choice",
        "required": true,
        "repeats": false,
        "option": [ {
          "valueString": "yes, Selected: false"
        }, {
          "valueString": "not sure, Selected: false"
        }, {
          "valueString": "no, Selected: true"
        } ]
      } ]
    }
  }, {
    "fullUrl": "urn:uuid:7e8fe10c-eb81-4683-a0a2-4c982aaa1762",
    "resource": {
      "resourceType": "QuestionnaireResponse",
      "id": "7e8fe10c-eb81-4683-a0a2-4c982aaa1762",
      "identifier": {
        "value": "7434927"
      },
      "questionnaire": {
        "reference": "urn:uuid:1b960114-3b2e-43fe-ace3-1c22ec854faf"
      },
      "status": "completed",
      "subject": {
        "reference": "urn:uuid:e233f8ef-064c-4326-aafa-999ed8c86b67"
      },
      "context": {
        "reference": "urn:uuid:5d228674-1717-4953-ab05-b6afa17be924"
      },
      "authored": "2020-10-30T18:29:05+00:00",
      "item": [ {
        "linkId": "Tx1259",
        "text": "Have you pinched the soft part of the nose for AT LEAST 10 MINUTES without a break?",
        "answer": [ {
          "valueString": "yes"
        } ]
      } ]
    }
  }, {
    "fullUrl": "urn:uuid:1b960114-3b2e-43fe-ace3-1c22ec854faf",
    "resource": {
      "resourceType": "Questionnaire",
      "id": "1b960114-3b2e-43fe-ace3-1c22ec854faf",
      "identifier": [ {
        "value": "7434927"
      } ],
      "version": "2020-10-30T18:29:05.808Z",
      "status": "active",
      "experimental": false,
      "date": "2020-10-30T18:29:05+00:00",
      "publisher": "User ID: 'RB12' User name: 'Rachel Boyer' User skill set: 'T3'",
      "lastReviewDate": "2020-10-30",
      "subjectType": [ "Patient" ],
      "item": [ {
        "linkId": "7434927",
        "prefix": "1500",
        "text": "Have you pinched the soft part of the nose for AT LEAST 10 MINUTES without a break?",
        "type": "choice",
        "required": true,
        "repeats": false,
        "option": [ {
          "valueString": "yes, Selected: true"
        }, {
          "valueString": "not sure, Selected: false"
        }, {
          "valueString": "no, Selected: false"
        } ]
      } ]
    }
  }, {
    "fullUrl": "urn:uuid:ace4f661-2c51-439f-b1fa-fb24fd6e3ffc",
    "resource": {
      "resourceType": "QuestionnaireResponse",
      "id": "ace4f661-2c51-439f-b1fa-fb24fd6e3ffc",
      "identifier": {
        "value": "7434927"
      },
      "questionnaire": {
        "reference": "urn:uuid:08211ed1-2455-48f2-926d-c9b8340a5279"
      },
      "status": "completed",
      "subject": {
        "reference": "urn:uuid:e233f8ef-064c-4326-aafa-999ed8c86b67"
      },
      "context": {
        "reference": "urn:uuid:5d228674-1717-4953-ab05-b6afa17be924"
      },
      "authored": "2020-10-30T18:29:05+00:00",
      "item": [ {
        "linkId": "Tx221512",
        "text": "STRING:SDEDFullEDassessmentandmanagementcapability",
        "answer": [ {
          "valueString": "\"ED full ED assessment and management capability\""
        } ]
      } ]
    }
  }, {
    "fullUrl": "urn:uuid:08211ed1-2455-48f2-926d-c9b8340a5279",
    "resource": {
      "resourceType": "Questionnaire",
      "id": "08211ed1-2455-48f2-926d-c9b8340a5279",
      "identifier": [ {
        "value": "7434927"
      } ],
      "version": "2020-10-30T18:29:05.808Z",
      "status": "active",
      "experimental": false,
      "date": "2020-10-30T18:29:05+00:00",
      "publisher": "User ID: 'RB12' User name: 'Rachel Boyer' User skill set: 'T3'",
      "lastReviewDate": "2020-10-30",
      "subjectType": [ "Patient" ],
      "item": [ {
        "linkId": "7434927",
        "prefix": "1700",
        "text": "STRING:SDEDFullEDassessmentandmanagementcapability",
        "type": "choice",
        "required": true,
        "repeats": false,
        "option": [ {
          "valueString": "\"ED full ED assessment and management capability\", Selected: true"
        } ]
      } ]
    }
  }, {
    "fullUrl": "urn:uuid:f85e044f-41a3-4142-8e33-d95d622dc56c",
    "resource": {
      "resourceType": "QuestionnaireResponse",
      "id": "f85e044f-41a3-4142-8e33-d95d622dc56c",
      "identifier": {
        "value": "7434927"
      },
      "questionnaire": {
        "reference": "urn:uuid:f9fdc612-bfde-4540-99a0-dad73b4e1c87"
      },
      "status": "completed",
      "subject": {
        "reference": "urn:uuid:e233f8ef-064c-4326-aafa-999ed8c86b67"
      },
      "context": {
        "reference": "urn:uuid:5d228674-1717-4953-ab05-b6afa17be924"
      },
      "authored": "2020-10-30T18:29:05+00:00"
    }
  }, {
    "fullUrl": "urn:uuid:f9fdc612-bfde-4540-99a0-dad73b4e1c87",
    "resource": {
      "resourceType": "Questionnaire",
      "id": "f9fdc612-bfde-4540-99a0-dad73b4e1c87",
      "identifier": [ {
        "value": "7434927"
      } ],
      "version": "2020-10-30T18:29:05.808Z",
      "status": "active",
      "experimental": false,
      "date": "2020-10-30T18:29:05+00:00",
      "publisher": "User ID: 'RB12' User name: 'Rachel Boyer' User skill set: 'T3'",
      "lastReviewDate": "2020-10-30",
      "subjectType": [ "Patient" ]
    }
  }, {
    "fullUrl": "urn:uuid:e002e458-cecb-47f8-923d-e56cc01ebb28",
    "resource": {
      "resourceType": "QuestionnaireResponse",
      "id": "e002e458-cecb-47f8-923d-e56cc01ebb28",
      "identifier": {
        "value": "7434927"
      },
      "questionnaire": {
        "reference": "urn:uuid:8a29a2b1-856f-41db-9bfe-aada7e1be156"
      },
      "status": "completed",
      "subject": {
        "reference": "urn:uuid:e233f8ef-064c-4326-aafa-999ed8c86b67"
      },
      "context": {
        "reference": "urn:uuid:5d228674-1717-4953-ab05-b6afa17be924"
      },
      "authored": "2020-10-30T18:29:05+00:00"
    }
  }, {
    "fullUrl": "urn:uuid:8a29a2b1-856f-41db-9bfe-aada7e1be156",
    "resource": {
      "resourceType": "Questionnaire",
      "id": "8a29a2b1-856f-41db-9bfe-aada7e1be156",
      "identifier": [ {
        "value": "7434927"
      } ],
      "version": "2020-10-30T18:29:05.808Z",
      "status": "active",
      "experimental": false,
      "date": "2020-10-30T18:29:05+00:00",
      "publisher": "User ID: 'RB12' User name: 'Rachel Boyer' User skill set: 'T3'",
      "lastReviewDate": "2020-10-30",
      "subjectType": [ "Patient" ]
    }
  }, {
    "fullUrl": "urn:uuid:c414331f-84b6-4b2e-9fb1-0ec0d9b9dc11",
    "resource": {
      "resourceType": "QuestionnaireResponse",
      "id": "c414331f-84b6-4b2e-9fb1-0ec0d9b9dc11",
      "identifier": {
        "value": "7434927"
      },
      "questionnaire": {
        "reference": "urn:uuid:46daf2c0-a569-4cc0-91c2-9e168034fc6e"
      },
      "status": "completed",
      "subject": {
        "reference": "urn:uuid:e233f8ef-064c-4326-aafa-999ed8c86b67"
      },
      "context": {
        "reference": "urn:uuid:5d228674-1717-4953-ab05-b6afa17be924"
      },
      "authored": "2020-10-30T18:29:05+00:00"
    }
  }, {
    "fullUrl": "urn:uuid:46daf2c0-a569-4cc0-91c2-9e168034fc6e",
    "resource": {
      "resourceType": "Questionnaire",
      "id": "46daf2c0-a569-4cc0-91c2-9e168034fc6e",
      "identifier": [ {
        "value": "7434927"
      } ],
      "version": "2020-10-30T18:29:05.808Z",
      "status": "active",
      "experimental": false,
      "date": "2020-10-30T18:29:05+00:00",
      "publisher": "User ID: 'RB12' User name: 'Rachel Boyer' User skill set: 'T3'",
      "lastReviewDate": "2020-10-30",
      "subjectType": [ "Patient" ]
    }
  }, {
    "fullUrl": "urn:uuid:e11f8816-547f-4d74-a086-eb9a3f99954f",
    "resource": {
      "resourceType": "Observation",
      "id": "e11f8816-547f-4d74-a086-eb9a3f99954f",
      "status": "final",
      "code": {
        "coding": [ {
          "system": "http://snomed.info/sct",
          "code": "33962009",
          "display": "Presenting complaint"
        } ]
      },
      "subject": {
        "reference": "urn:uuid:e233f8ef-064c-4326-aafa-999ed8c86b67"
      },
      "context": {
        "reference": "urn:uuid:5d228674-1717-4953-ab05-b6afa17be924"
      }
    }
  }, {
    "fullUrl": "urn:uuid:2e63382a-1dbf-4e09-bdb3-aa108fa6352f",
    "resource": {
      "resourceType": "PractitionerRole",
      "id": "2e63382a-1dbf-4e09-bdb3-aa108fa6352f",
      "practitioner": {
        "reference": "urn:uuid:fed63072-4c77-4bf8-a2e5-12343ef4012b"
      },
      "organization": {
        "reference": "urn:uuid:30a7aedd-38ba-471d-8560-06ddc6dcdd2c"
      },
      "code": [ {
        "coding": [ {
          "system": "2.16.840.1.113883.2.1.3.2.4.17.339",
          "code": "OTHER",
          "display": "Assessed by"
        } ]
      } ]
    }
  }, {
    "fullUrl": "urn:uuid:30a7aedd-38ba-471d-8560-06ddc6dcdd2c",
    "resource": {
      "resourceType": "Organization",
      "id": "30a7aedd-38ba-471d-8560-06ddc6dcdd2c",
      "identifier": [ {
        "value": "Y00397"
      } ],
      "name": "Devon 111 (Devon Doctors Group)"
    }
  }, {
    "fullUrl": "urn:uuid:98939b48-2bd1-4f89-99dd-fed101fecf91",
    "resource": {
      "resourceType": "PractitionerRole",
      "id": "98939b48-2bd1-4f89-99dd-fed101fecf91",
      "practitioner": {
        "reference": "urn:uuid:adb52c0e-ecd1-494e-b0f3-90c3caf6600d"
      },
      "organization": {
        "reference": "urn:uuid:6b20171c-2edb-41cf-a2dc-0d952d68f412"
      },
      "code": [ {
        "coding": [ {
          "system": "2.16.840.1.113883.2.1.3.2.4.17.196",
          "code": "R0010",
          "display": "Medical Director"
        } ]
      } ]
    }
  }, {
    "fullUrl": "urn:uuid:6b20171c-2edb-41cf-a2dc-0d952d68f412",
    "resource": {
      "resourceType": "Organization",
      "id": "6b20171c-2edb-41cf-a2dc-0d952d68f412",
      "identifier": [ {
        "value": "Y00397"
      } ],
      "name": "Devon Doctors Group"
    }
  }, {
    "fullUrl": "urn:uuid:e41968ea-0f9a-4ed4-b8b1-c2891ade8979",
    "resource": {
      "resourceType": "RelatedPerson",
      "id": "e41968ea-0f9a-4ed4-b8b1-c2891ade8979",
      "patient": {
        "reference": "urn:uuid:e233f8ef-064c-4326-aafa-999ed8c86b67"
      },
      "relationship": {
        "coding": [ {
          "system": "http://hl7.org/fhir/v2/0131",
          "code": "C",
          "display": "Emergency Contact"
        } ]
      },
      "telecom": [ {
        "system": "phone",
        "value": "tel:01702123456"
      } ]
    }
  }, {
    "fullUrl": "urn:uuid:98a33605-0954-4b8f-a8c7-404c59265e3d",
    "resource": {
      "resourceType": "Device",
      "id": "98a33605-0954-4b8f-a8c7-404c59265e3d",
      "model": "111 Adaptor",
      "version": "1.0.1"
    }
  }, {
    "fullUrl": "urn:uuid:d878012f-bf17-41c3-98b6-2ea8e5db87c7",
    "resource": {
      "resourceType": "List",
      "id": "d878012f-bf17-41c3-98b6-2ea8e5db87c7",
      "status": "current",
      "mode": "working",
      "title": "111 Report List",
      "code": {
        "coding": [ {
          "system": "http://snomed.info/sct",
          "code": "225390008",
          "display": "Triage"
        } ]
      },
      "subject": {
        "reference": "urn:uuid:e233f8ef-064c-4326-aafa-999ed8c86b67"
      },
      "encounter": {
        "reference": "urn:uuid:5d228674-1717-4953-ab05-b6afa17be924"
      },
      "date": "2022-04-07T07:52:15+00:00",
      "source": {
        "reference": "urn:uuid:98a33605-0954-4b8f-a8c7-404c59265e3d"
      },
      "orderedBy": {
        "coding": [ {
          "system": "http://hl7.org/fhir/list-order",
          "code": "event-date",
          "display": "Sorted by Event Date"
        } ]
      },
      "entry": [ {
        "item": {
          "reference": "urn:uuid:e11f8816-547f-4d74-a086-eb9a3f99954f"
        }
      }, {
        "item": {
          "reference": "urn:uuid:adb52c0e-ecd1-494e-b0f3-90c3caf6600d"
        }
      }, {
        "item": {
          "reference": "urn:uuid:e41968ea-0f9a-4ed4-b8b1-c2891ade8979"
        }
      }, {
        "item": {
          "reference": "urn:uuid:c62a639a-e620-4ff2-a140-57a7e5315c40"
        }
      }, {
        "item": {
          "reference": "urn:uuid:f91124b6-96ce-4b9b-a384-a891d9a8a2fc"
        }
      }, {
        "item": {
          "reference": "urn:uuid:fed63072-4c77-4bf8-a2e5-12343ef4012b"
        }
      }, {
        "item": {
          "reference": "urn:uuid:30a7aedd-38ba-471d-8560-06ddc6dcdd2c"
        }
      }, {
        "item": {
          "reference": "urn:uuid:6b20171c-2edb-41cf-a2dc-0d952d68f412"
        }
      }, {
        "item": {
          "reference": "urn:uuid:bf6aca89-aa5f-4fc1-98df-68034e4bb8f9"
        }
      }, {
        "item": {
          "reference": "urn:uuid:893a5f55-7d06-4de4-84b9-d1ce078a65d7"
        }
      }, {
        "item": {
          "reference": "urn:uuid:977a78e3-796d-48bb-b8fa-aa90d0c4e90a"
        }
      }, {
        "item": {
          "reference": "urn:uuid:c330243b-7d94-4a4f-9c59-3d94691b99d3"
        }
      }, {
        "item": {
          "reference": "urn:uuid:ec634092-552b-44ff-acfe-79b04e58542c"
        }
      }, {
        "item": {
          "reference": "urn:uuid:58a3af2b-85b1-4ed7-8ca7-8c56c3481db8"
        }
      }, {
        "item": {
          "reference": "urn:uuid:352803cd-a024-4a5b-9a32-9adefb3d5c7f"
        }
      }, {
        "item": {
          "reference": "urn:uuid:f85e044f-41a3-4142-8e33-d95d622dc56c"
        }
      }, {
        "item": {
          "reference": "urn:uuid:c5ffb1d4-21ff-4255-8e44-09b95a20be0e"
        }
      }, {
        "item": {
          "reference": "urn:uuid:69b20199-24b6-431f-9d72-d9f4b715966c"
        }
      }, {
        "item": {
          "reference": "urn:uuid:cbf2d9ce-1353-4ff2-9327-d9c50aede277"
        }
      }, {
        "item": {
          "reference": "urn:uuid:8a29a2b1-856f-41db-9bfe-aada7e1be156"
        }
      }, {
        "item": {
          "reference": "urn:uuid:28b25a74-6604-40d2-8c4c-cd1e9a4697bf"
        }
      }, {
        "item": {
          "reference": "urn:uuid:d4ea17b9-4707-4a13-8882-f22caa69ce6b"
        }
      }, {
        "item": {
          "reference": "urn:uuid:97d7cd46-1418-403b-aaf1-e6c854393cf7"
        }
      }, {
        "item": {
          "reference": "urn:uuid:bcf0112a-8a13-4e9c-9de5-c797f2cde31c"
        }
      }, {
        "item": {
          "reference": "urn:uuid:1fcc0603-4c6e-4b3f-97c0-282f39e9300e"
        }
      }, {
        "item": {
          "reference": "urn:uuid:df4cda57-728d-49a3-9668-c2ee281516ee"
        }
      }, {
        "item": {
          "reference": "urn:uuid:71ef6d64-d9bb-4eb0-8ca2-c997a89c6a2e"
        }
      }, {
        "item": {
          "reference": "urn:uuid:08211ed1-2455-48f2-926d-c9b8340a5279"
        }
      }, {
        "item": {
          "reference": "urn:uuid:d53a1702-9088-415c-a129-27f417f493df"
        }
      }, {
        "item": {
          "reference": "urn:uuid:7e8fe10c-eb81-4683-a0a2-4c982aaa1762"
        }
      }, {
        "item": {
          "reference": "urn:uuid:c304b71c-44e4-41ae-a021-79ca96f6c6a6"
        }
      }, {
        "item": {
          "reference": "urn:uuid:dd6fde95-d26a-44d6-8d8b-88f85b1eb609"
        }
      }, {
        "item": {
          "reference": "urn:uuid:ace4f661-2c51-439f-b1fa-fb24fd6e3ffc"
        }
      }, {
        "item": {
          "reference": "urn:uuid:46daf2c0-a569-4cc0-91c2-9e168034fc6e"
        }
      }, {
        "item": {
          "reference": "urn:uuid:d97f7f21-d6f2-4edd-b510-eb926b1552fd"
        }
      }, {
        "item": {
          "reference": "urn:uuid:36004579-4c4c-482b-8186-82f9b911589f"
        }
      }, {
        "item": {
          "reference": "urn:uuid:bf0f842a-a53f-41df-b382-2faed0dcf62d"
        }
      }, {
        "item": {
          "reference": "urn:uuid:67e3b897-d2c0-4582-96bc-36acb4cf8429"
        }
      }, {
        "item": {
          "reference": "urn:uuid:5f8a98c5-ea9b-4dd9-b0ad-9a73d791f732"
        }
      }, {
        "item": {
          "reference": "urn:uuid:f9fdc612-bfde-4540-99a0-dad73b4e1c87"
        }
      }, {
        "item": {
          "reference": "urn:uuid:c414331f-84b6-4b2e-9fb1-0ec0d9b9dc11"
        }
      }, {
        "item": {
          "reference": "urn:uuid:32ed36a7-7cfa-4f72-bd83-2af157dae02d"
        }
      }, {
        "item": {
          "reference": "urn:uuid:c4efbf13-f6df-4733-bfe1-aef09e278fe9"
        }
      }, {
        "item": {
          "reference": "urn:uuid:eb1d1a43-b973-4ce6-bb9e-bd24365bc024"
        }
      }, {
        "item": {
          "reference": "urn:uuid:08d927f6-2328-441e-b891-75ba4cb18305"
        }
      }, {
        "item": {
          "reference": "urn:uuid:72323e59-5d5e-4e3c-9d5e-c834ca36d0f7"
        }
      }, {
        "item": {
          "reference": "urn:uuid:9e935a88-d681-461f-8fe4-1e2653115e7d"
        }
      }, {
        "item": {
          "reference": "urn:uuid:2a0a293c-7a2e-4daf-aa1a-10db019eff3e"
        }
      }, {
        "item": {
          "reference": "urn:uuid:0363645a-e65b-4c52-bb8e-49fc0fdced26"
        }
      }, {
        "item": {
          "reference": "urn:uuid:c2c09185-fd9e-4460-b36f-549e6151ea77"
        }
      }, {
        "item": {
          "reference": "urn:uuid:1b960114-3b2e-43fe-ace3-1c22ec854faf"
        }
      }, {
        "item": {
          "reference": "urn:uuid:b8963b7f-7a31-4c95-8eae-4887234c6739"
        }
      }, {
        "item": {
          "reference": "urn:uuid:d6b6215f-9790-4fe8-822b-497e7421a9b3"
        }
      }, {
        "item": {
          "reference": "urn:uuid:e78ccfd9-678f-4bcf-967a-a342986cafe2"
        }
      }, {
        "item": {
          "reference": "urn:uuid:d58d8b4f-a532-4ef5-a2c3-989f5c1915c0"
        }
      }, {
        "item": {
          "reference": "urn:uuid:5bb69956-8bfd-413c-93c9-b3d3e1136f04"
        }
      }, {
        "item": {
          "reference": "urn:uuid:e002e458-cecb-47f8-923d-e56cc01ebb28"
        }
      }, {
        "item": {
          "reference": "urn:uuid:f05637c4-a5e9-4ca3-b4eb-43f0852b9e1d"
        }
      } ]
    }
  } ]
}