{
  "resourceType": "Bundle",
  "identifier": {
    "type": {
      "text": "ClinicalDocument VersionNumber"
    },
    "value": "1"
  },
  "type": "message",
  "entry": [ {
    "fullUrl": "urn:uuid:A12F527F-3808-44BC-9272-8C8A92884A37",
    "resource": {
      "resourceType": "MessageHeader",
      "id": "A12F527F-3808-44BC-9272-8C8A92884A37",
      "event": {
        "system": "https://fhir.nhs.uk/STU3/CodeSystem/EventType-1",
        "code": "referral-1",
        "display": "Referral"
      },
      "destination": [ {
        "endpoint": "urn:nhs-uk:addressing:ods:20000729:DOSServiceID:2000072936"
      } ],
      "timestamp": "2020-10-30T18:29:05.000+00:00",
      "source": {
        "name": "NHS 111 Adaptor",
        "endpoint": "http://localhost:8080/report"
      },
      "reason": {
        "coding": [ {
          "system": "urn:nhs-itk:ns:201005:interaction",
          "code": "urn:nhs-itk:interaction:primaryNHS111RepeatCallerDocumentSet-v1-0"
        } ]
      }
    },
    "response": {
      "status": "success",
      "lastModified": "2022-05-05T12:28:00.871+00:00"
    }
  }, {
    "fullUrl": "urn:uuid:afa7c9a2-5428-459e-bbfa-701af3a22fd2",
    "resource": {
      "resourceType": "Encounter",
      "id": "afa7c9a2-5428-459e-bbfa-701af3a22fd2",
      "identifier": [ {
        "system": "2.16.840.1.113883.2.1.3.2.4.18.34",
        "value": "CF1F65AB-2392-4582-9E14-F0384358CB6A"
      }, {
        "system": "2.16.840.1.113883.2.1.3.2.4.18.35",
        "value": "7434927"
      } ],
      "status": "finished",
      "type": [ {
        "text": "111 Encounter Referral"
      } ],
      "subject": {
        "reference": "urn:uuid:5feecb5e-fb49-4a48-b2a0-9cf4692191cc"
      },
      "participant": [ {
        "type": [ {
          "coding": [ {
            "system": "http://hl7.org/fhir/ValueSet/encounter-participant-type",
            "code": "PPRF",
            "display": "Author"
          } ]
        } ],
        "individual": {
          "reference": "urn:uuid:52b37a3b-735c-4bc8-87dd-b32ca77548fd"
        }
      }, {
        "type": [ {
          "coding": [ {
            "system": "http://hl7.org/fhir/ValueSet/encounter-participant-type",
            "code": "ATND",
            "display": "Responsible Party"
          } ]
        } ],
        "individual": {
          "reference": "urn:uuid:b1425bf8-6ab5-4e41-98d9-985f5b035b89"
        }
      } ],
      "period": {
        "start": "2020-10-30T18:28:13+00:00",
        "end": "2020-10-30T18:28:58+00:00"
      },
      "location": [ {
        "location": {
          "reference": "urn:uuid:cee0e3f3-5f3d-477c-875d-1dc01e6a9a65"
        },
        "status": "active"
      }, {
        "location": {
          "reference": "urn:uuid:2da0870c-5d7c-423a-9ca4-d7cc4d53b326"
        },
        "status": "completed"
      } ],
      "serviceProvider": {
        "reference": "urn:uuid:5f4152ee-50bb-4738-ad77-fbe31469bbdc"
      }
    }
  }, {
    "fullUrl": "urn:uuid:5f4152ee-50bb-4738-ad77-fbe31469bbdc",
    "resource": {
      "resourceType": "Organization",
      "id": "5f4152ee-50bb-4738-ad77-fbe31469bbdc",
      "active": true,
      "type": [ {
        "text": "CST"
      } ],
      "name": "Devon Doctors Group"
    }
  }, {
    "fullUrl": "urn:uuid:52b37a3b-735c-4bc8-87dd-b32ca77548fd",
    "resource": {
      "resourceType": "Practitioner",
      "id": "52b37a3b-735c-4bc8-87dd-b32ca77548fd",
      "active": true,
      "name": [ {
        "use": "official",
        "family": "Service Advisor",
        "given": [ "Dental" ]
      } ]
    }
  }, {
    "fullUrl": "urn:uuid:b1425bf8-6ab5-4e41-98d9-985f5b035b89",
    "resource": {
      "resourceType": "Practitioner",
      "id": "b1425bf8-6ab5-4e41-98d9-985f5b035b89",
      "active": true,
      "name": [ {
        "use": "official",
        "family": "Eggleton",
        "given": [ "Dr. Mark" ]
      } ]
    }
  }, {
    "fullUrl": "urn:uuid:cee0e3f3-5f3d-477c-875d-1dc01e6a9a65",
    "resource": {
      "resourceType": "Location",
      "id": "cee0e3f3-5f3d-477c-875d-1dc01e6a9a65",
      "managingOrganization": {
        "reference": "urn:uuid:5b16be48-7f65-459b-b891-4c81efd6e1ab"
      }
    }
  }, {
    "fullUrl": "urn:uuid:5b16be48-7f65-459b-b891-4c81efd6e1ab",
    "resource": {
      "resourceType": "Organization",
      "id": "5b16be48-7f65-459b-b891-4c81efd6e1ab",
      "identifier": [ {
        "value": "J85990"
      } ],
      "type": [ {
        "text": "GP Practice"
      } ],
      "name": "Test Somerset"
    }
  }, {
    "fullUrl": "urn:uuid:2da0870c-5d7c-423a-9ca4-d7cc4d53b326",
    "resource": {
      "resourceType": "Location",
      "id": "2da0870c-5d7c-423a-9ca4-d7cc4d53b326",
      "name": "Incident Location",
      "address": {
        "type": "physical",
        "line": [ "NHS England", "Quarry House Quarry Hill", "Leeds", "West Yorkshire" ],
        "postalCode": "LS2 7UE"
      }
    }
  }, {
    "fullUrl": "urn:uuid:5feecb5e-fb49-4a48-b2a0-9cf4692191cc",
    "resource": {
      "resourceType": "Patient",
      "id": "5feecb5e-fb49-4a48-b2a0-9cf4692191cc",
      "identifier": [ {
        "extension": [ {
          "url": "https://fhir.hl7.org.uk/STU3/StructureDefinition/Extension-CareConnect-NHSNumberVerificationStatus-1",
          "valueCodeableConcept": {
            "coding": [ {
              "system": "https://fhir.hl7.org.uk/STU3/StructureDefinition/Extension-CareConnect-NHSNumberVerificationStatus-1",
              "code": "02"
            } ]
          }
        } ],
        "system": "https://fhir.nhs.uk/Id/nhs-number",
        "value": "9990238359"
      } ],
      "active": true,
      "name": [ {
        "use": "official",
        "family": "Xxtestpatientdzadn",
        "given": [ "Scrdonotuse" ]
      } ],
      "telecom": [ {
        "system": "phone",
        "value": "tel:01702123456",
        "use": "home"
      }, {
        "system": "phone",
        "value": "tel:01702123456"
      } ],
      "gender": "female",
      "birthDate": "1965-02-17",
      "address": [ {
        "use": "home",
        "line": [ "NHS England", "Quarry House Quarry Hill", "Leeds", "West Yorkshire" ],
        "postalCode": "LS2 7UE"
      } ],
      "generalPractitioner": [ {
        "reference": "urn:uuid:5d97d588-2b4f-432a-93a1-35df1b70dfc2"
      } ]
    }
  }, {
    "fullUrl": "urn:uuid:5d97d588-2b4f-432a-93a1-35df1b70dfc2",
    "resource": {
      "resourceType": "Organization",
      "id": "5d97d588-2b4f-432a-93a1-35df1b70dfc2",
      "identifier": [ {
        "value": "J85990"
      } ],
      "type": [ {
        "text": "GP Practice"
      } ],
      "name": "Test Somerset"
    }
  }, {
    "fullUrl": "urn:uuid:5f3a1a4f-975c-4264-93c2-ebd5cf6adc60",
    "resource": {
      "resourceType": "HealthcareService",
      "id": "5f3a1a4f-975c-4264-93c2-ebd5cf6adc60",
      "active": true,
      "providedBy": {
        "reference": "urn:uuid:1279f4c8-b8b9-46bc-ad21-1ec8905eb0c8"
      },
      "location": [ {
        "reference": "urn:uuid:e9b97a24-3491-484f-bf45-3f0d854e65c5"
      } ],
      "name": "**TESTING ONLY** DO NOT SEND PATIENTS - ED Test Service for EDDI"
    }
  }, {
    "fullUrl": "urn:uuid:e9b97a24-3491-484f-bf45-3f0d854e65c5",
    "resource": {
      "resourceType": "Location",
      "id": "e9b97a24-3491-484f-bf45-3f0d854e65c5",
      "managingOrganization": {
        "reference": "urn:uuid:1279f4c8-b8b9-46bc-ad21-1ec8905eb0c8"
      }
    }
  }, {
    "fullUrl": "urn:uuid:1279f4c8-b8b9-46bc-ad21-1ec8905eb0c8",
    "resource": {
      "resourceType": "Organization",
      "id": "1279f4c8-b8b9-46bc-ad21-1ec8905eb0c8",
      "identifier": [ {
        "value": "20000729"
      } ],
      "type": [ {
        "coding": [ {
          "code": "PRCP",
          "display": "**TESTING ONLY** DO NOT SEND PATIENTS - ED Test Service for EDDI"
        } ]
      } ],
      "name": "**TESTING ONLY** DO NOT SEND PATIENTS - ED Test Service for EDDI"
    }
  }, {
    "fullUrl": "urn:uuid:d4f6b668-9e6b-4ce9-a736-37c61e08a456",
    "resource": {
      "resourceType": "ReferralRequest",
      "id": "d4f6b668-9e6b-4ce9-a736-37c61e08a456",
      "status": "active",
      "intent": "plan",
      "priority": "routine",
      "subject": {
        "reference": "urn:uuid:5feecb5e-fb49-4a48-b2a0-9cf4692191cc"
      },
      "context": {
        "reference": "urn:uuid:afa7c9a2-5428-459e-bbfa-701af3a22fd2"
      },
      "occurrencePeriod": {
        "start": "2020-10-30T18:29:05+00:00"
      },
      "authoredOn": "2020-10-30T18:28:58+00:00",
      "requester": {
        "agent": {
          "reference": "urn:uuid:159be11e-6092-4898-a174-d2b3fc289a42"
        },
        "onBehalfOf": {
          "reference": "urn:uuid:5f4152ee-50bb-4738-ad77-fbe31469bbdc"
        }
      },
      "recipient": [ {
        "reference": "urn:uuid:5f3a1a4f-975c-4264-93c2-ebd5cf6adc60"
      } ],
      "reasonReference": [ {
        "reference": "urn:uuid:f2b5ee35-cd6d-4485-8198-a8aee5ea898a"
      } ],
      "supportingInfo": [ {
        "reference": "urn:uuid:16de0190-ca65-465b-b01b-ffc7c78a3901"
      } ]
    }
  }, {
    "fullUrl": "urn:uuid:16de0190-ca65-465b-b01b-ffc7c78a3901",
    "resource": {
      "resourceType": "ProcedureRequest",
      "id": "16de0190-ca65-465b-b01b-ffc7c78a3901",
      "status": "active",
      "intent": "plan",
      "priority": "routine",
      "doNotPerform": false,
      "code": {
        "coding": [ {
          "system": "2.16.840.1.113883.2.1.3.2.4.17.325",
          "code": "Dx02",
          "display": "Attend a Treatment Centre within 1 hour"
        } ]
      },
      "subject": {
        "reference": "urn:uuid:5feecb5e-fb49-4a48-b2a0-9cf4692191cc"
      },
      "occurrencePeriod": {
        "start": "2020-10-30T18:29:05+00:00"
      },
      "reasonReference": [ {
        "reference": "urn:uuid:f2b5ee35-cd6d-4485-8198-a8aee5ea898a"
      } ]
    }
  }, {
    "fullUrl": "urn:uuid:cee9bd9a-189c-4677-8eea-fd5aa84eddcd",
    "resource": {
      "resourceType": "Composition",
      "id": "cee9bd9a-189c-4677-8eea-fd5aa84eddcd",
      "identifier": {
        "use": "usual",
        "value": "B53175B4-0A4A-4503-A6CD-94333AA01645"
      },
      "status": "final",
      "type": {
        "coding": [ {
          "system": "http://snomed.info/sct",
          "code": "371531000",
          "display": "Report of clinical encounter (record artifact)"
        } ]
      },
      "subject": {
        "reference": "urn:uuid:5feecb5e-fb49-4a48-b2a0-9cf4692191cc"
      },
      "encounter": {
        "reference": "urn:uuid:afa7c9a2-5428-459e-bbfa-701af3a22fd2"
      },
      "date": "2020-10-30T18:29:05+00:00",
      "author": [ {
        "reference": "urn:uuid:52b37a3b-735c-4bc8-87dd-b32ca77548fd"
      } ],
      "title": "111 Report",
      "confidentiality": "N",
      "section": [ {
        "section": [ {
          "title": "Patient's Reported Condition",
          "text": {
            "status": "generated",
            "div": "<div xmlns=\"http://www.w3.org/1999/xhtml\">TEST&lt;br/&gt;</div>"
          }
        }, {
          "title": "Pathways Disposition",
          "text": {
            "status": "generated",
            "div": "<div xmlns=\"http://www.w3.org/1999/xhtml\">Attend a Treatment Centre within 1 hour (Dx02)\n                                                    &lt;br/&gt;&lt;br/&gt;\n                                                    Selected service: **TESTING ONLY** DO NOT SEND PATIENTS - ED Test Se&lt;br/&gt;</div>"
          }
        }, {
          "title": "Consultation Summary",
          "text": {
            "status": "generated",
            "div": "<div xmlns=\"http://www.w3.org/1999/xhtml\">Illness&lt;br/&gt;Warm to touch&lt;br/&gt;Nose bleeding freely&lt;br/&gt;Nose bleeding despite first aid measures&lt;br/&gt;</div>"
          }
        }, {
          "title": "Pathways Assessment",
          "text": {
            "status": "generated",
            "div": "<div xmlns=\"http://www.w3.org/1999/xhtml\">An injury or health problem was the reason for the contact.&lt;br/&gt;Heavy bleeding had not occurred in the previous 2 hours.&lt;br/&gt;An illness or health problem was the main problem.&lt;br/&gt;User Comments: TEST&lt;br/&gt;The individual was not fighting for breath.&lt;br/&gt;The main reason for the assessment was not an allergic reaction, heart attack, chest/upper back pain, probable stroke, recent fit/seizure or suicide attempt.&lt;br/&gt;The main reason for contact was not new confusion, declared diabetic hypo/hyperglycaemia, or ICD shock.&lt;br/&gt;The skin on the torso felt normal, warm or hot.&lt;br/&gt;Pathway selected - Nosebleeds without Injury&lt;br/&gt;The individual was not feeling faint or dizzy.&lt;br/&gt;The nose was continuing to bleed.&lt;br/&gt;There was no nasal foreign body.&lt;br/&gt;Constant pressure had been applied to the soft part of the nose for at least 10 minutes.&lt;br/&gt;Instructions given were: The individual needs to attend a treatment centre within 1 hour.&lt;br/&gt;Directory of Services referral: **TESTING ONLY** DO NOT SEND PATIENTS - ED Test Service for EDDI&lt;br/&gt;Advice given:\n                                                    Worsening\n                                                    &lt;br/&gt;</div>"
          }
        }, {
          "title": "Advice Given",
          "text": {
            "status": "generated",
            "div": "<div xmlns=\"http://www.w3.org/1999/xhtml\">If there are any new symptoms, or if the condition gets worse, changes or you have any other concerns, call us back.&lt;br/&gt;&lt;br/&gt;</div>"
          }
        }, {
          "title": "Special Patient Notes",
          "text": {
            "status": "generated",
            "div": "<div xmlns=\"http://www.w3.org/1999/xhtml\">Special Notes from an external system were flagged as being present for this patient.</div>"
          }
        } ]
      }, {
        "title": "ReferralRequest",
        "entry": [ {
          "reference": "urn:uuid:d4f6b668-9e6b-4ce9-a736-37c61e08a456"
        } ]
      }, {
        "title": "QuestionnaireResponse",
        "entry": [ {
          "reference": "urn:uuid:d607709d-d610-4af2-8ac1-9abfb6c0580f"
        } ]
      }, {
        "title": "QuestionnaireResponse",
        "entry": [ {
          "reference": "urn:uuid:58a34b6d-b939-4233-b891-488add013611"
        } ]
      }, {
        "title": "QuestionnaireResponse",
        "entry": [ {
          "reference": "urn:uuid:cd0878c0-1f59-48ba-9450-773e68c1b37c"
        } ]
      }, {
        "title": "QuestionnaireResponse",
        "entry": [ {
          "reference": "urn:uuid:5d7fafad-6905-41ad-a6da-b260e2b924e6"
        } ]
      }, {
        "title": "QuestionnaireResponse",
        "entry": [ {
          "reference": "urn:uuid:daefbce1-3007-43e6-9d5c-cafcdf36ebe2"
        } ]
      }, {
        "title": "QuestionnaireResponse",
        "entry": [ {
          "reference": "urn:uuid:4c9f0e43-8d04-4297-887f-b28019680543"
        } ]
      }, {
        "title": "QuestionnaireResponse",
        "entry": [ {
          "reference": "urn:uuid:9e3627a0-adde-44d5-a10e-44d89e414c5f"
        } ]
      }, {
        "title": "QuestionnaireResponse",
        "entry": [ {
          "reference": "urn:uuid:4afba6a3-1066-418b-bd22-bc26c796bad7"
        } ]
      }, {
        "title": "QuestionnaireResponse",
        "entry": [ {
          "reference": "urn:uuid:925eb5ad-403c-455f-98dd-5499e9d0dbcd"
        } ]
      }, {
        "title": "QuestionnaireResponse",
        "entry": [ {
          "reference": "urn:uuid:426a16df-2c6b-4182-94ca-772a6b6fda36"
        } ]
      }, {
        "title": "QuestionnaireResponse",
        "entry": [ {
          "reference": "urn:uuid:46db63dd-709b-4b5c-a3c1-000bc31acd95"
        } ]
      }, {
        "title": "QuestionnaireResponse",
        "entry": [ {
          "reference": "urn:uuid:9bdc8e81-1709-4d67-a74e-67bfd6789664"
        } ]
      }, {
        "title": "QuestionnaireResponse",
        "entry": [ {
          "reference": "urn:uuid:ec131402-8ed9-41df-a6c3-b1cd272f3e1a"
        } ]
      }, {
        "title": "QuestionnaireResponse",
        "entry": [ {
          "reference": "urn:uuid:1ea1c0cd-0314-4a7d-b7c5-bfd3d4cb2883"
        } ]
      }, {
        "title": "QuestionnaireResponse",
        "entry": [ {
          "reference": "urn:uuid:8913d082-b47d-4eec-aade-5bff6ed393a0"
        } ]
      }, {
        "title": "QuestionnaireResponse",
        "entry": [ {
          "reference": "urn:uuid:cdc1f8fa-a136-4ebb-aa06-bec0f28f9c16"
        } ]
      }, {
        "title": "QuestionnaireResponse",
        "entry": [ {
          "reference": "urn:uuid:b877a9fd-b5f8-4a90-a794-5e80d40e2eaa"
        } ]
      }, {
        "title": "QuestionnaireResponse",
        "entry": [ {
          "reference": "urn:uuid:9fa08791-5bb1-4051-90b4-d88dd72ddad8"
        } ]
      }, {
        "title": "QuestionnaireResponse",
        "entry": [ {
          "reference": "urn:uuid:25117d99-e342-4c8f-a149-a36212892d1a"
        } ]
      }, {
        "title": "QuestionnaireResponse",
        "entry": [ {
          "reference": "urn:uuid:83d85a73-1b6c-44ce-8fa9-8a7d9459dd76"
        } ]
      }, {
        "title": "QuestionnaireResponse",
        "entry": [ {
          "reference": "urn:uuid:4a1a155b-e7e6-42da-8d70-80b8e7aa4fe8"
        } ]
      }, {
        "title": "QuestionnaireResponse",
        "entry": [ {
          "reference": "urn:uuid:ce2f7101-e765-4cfd-93c6-37d8d995b2b9"
        } ]
      }, {
        "title": "QuestionnaireResponse",
        "entry": [ {
          "reference": "urn:uuid:98525715-d460-485e-8b6e-92729e9ad8ce"
        } ]
      } ]
    }
  }, {
    "fullUrl": "urn:uuid:a43b6e39-bcf6-4e79-80c0-b63862a8f5b1",
    "resource": {
      "resourceType": "Consent",
      "id": "a43b6e39-bcf6-4e79-80c0-b63862a8f5b1",
      "identifier": {
        "use": "usual",
        "value": "B53175B4-0A4A-4503-A6CD-94333AA01645"
      },
      "status": "active",
      "patient": {
        "reference": "urn:uuid:5feecb5e-fb49-4a48-b2a0-9cf4692191cc"
      },
      "period": {
        "start": "2020-10-30T18:28:13+00:00",
        "end": "2020-10-30T18:28:58+00:00"
      },
      "consentingParty": [ {
        "reference": "urn:uuid:5feecb5e-fb49-4a48-b2a0-9cf4692191cc"
      } ],
      "action": [ {
        "coding": [ {
          "system": "http://snomed.info/sct",
          "code": "425691002",
          "display": "Consent given for electronic record sharing"
        } ],
        "text": "Consent given for electronic record sharing"
      } ],
      "organization": [ {
        "reference": "urn:uuid:5f4152ee-50bb-4738-ad77-fbe31469bbdc"
      } ],
      "policyRule": "http://hl7.org/fhir/ConsentPolicy/opt-out",
      "data": [ {
        "meaning": "related",
        "reference": {
          "reference": "urn:uuid:afa7c9a2-5428-459e-bbfa-701af3a22fd2"
        }
      } ]
    }
  }, {
    "fullUrl": "urn:uuid:f2b5ee35-cd6d-4485-8198-a8aee5ea898a",
    "resource": {
      "resourceType": "Condition",
      "id": "f2b5ee35-cd6d-4485-8198-a8aee5ea898a",
      "clinicalStatus": "active",
      "verificationStatus": "unknown",
      "subject": {
        "reference": "urn:uuid:5feecb5e-fb49-4a48-b2a0-9cf4692191cc"
      },
      "context": {
        "reference": "urn:uuid:afa7c9a2-5428-459e-bbfa-701af3a22fd2"
      },
      "evidence": [ {
        "detail": [ {
          "reference": "urn:uuid:d607709d-d610-4af2-8ac1-9abfb6c0580f"
        } ]
      }, {
        "detail": [ {
          "reference": "urn:uuid:58a34b6d-b939-4233-b891-488add013611"
        } ]
      }, {
        "detail": [ {
          "reference": "urn:uuid:cd0878c0-1f59-48ba-9450-773e68c1b37c"
        } ]
      }, {
        "detail": [ {
          "reference": "urn:uuid:5d7fafad-6905-41ad-a6da-b260e2b924e6"
        } ]
      }, {
        "detail": [ {
          "reference": "urn:uuid:daefbce1-3007-43e6-9d5c-cafcdf36ebe2"
        } ]
      }, {
        "detail": [ {
          "reference": "urn:uuid:4c9f0e43-8d04-4297-887f-b28019680543"
        } ]
      }, {
        "detail": [ {
          "reference": "urn:uuid:9e3627a0-adde-44d5-a10e-44d89e414c5f"
        } ]
      }, {
        "detail": [ {
          "reference": "urn:uuid:4afba6a3-1066-418b-bd22-bc26c796bad7"
        } ]
      }, {
        "detail": [ {
          "reference": "urn:uuid:925eb5ad-403c-455f-98dd-5499e9d0dbcd"
        } ]
      }, {
        "detail": [ {
          "reference": "urn:uuid:426a16df-2c6b-4182-94ca-772a6b6fda36"
        } ]
      }, {
        "detail": [ {
          "reference": "urn:uuid:46db63dd-709b-4b5c-a3c1-000bc31acd95"
        } ]
      }, {
        "detail": [ {
          "reference": "urn:uuid:9bdc8e81-1709-4d67-a74e-67bfd6789664"
        } ]
      }, {
        "detail": [ {
          "reference": "urn:uuid:ec131402-8ed9-41df-a6c3-b1cd272f3e1a"
        } ]
      }, {
        "detail": [ {
          "reference": "urn:uuid:1ea1c0cd-0314-4a7d-b7c5-bfd3d4cb2883"
        } ]
      }, {
        "detail": [ {
          "reference": "urn:uuid:8913d082-b47d-4eec-aade-5bff6ed393a0"
        } ]
      }, {
        "detail": [ {
          "reference": "urn:uuid:cdc1f8fa-a136-4ebb-aa06-bec0f28f9c16"
        } ]
      }, {
        "detail": [ {
          "reference": "urn:uuid:b877a9fd-b5f8-4a90-a794-5e80d40e2eaa"
        } ]
      }, {
        "detail": [ {
          "reference": "urn:uuid:9fa08791-5bb1-4051-90b4-d88dd72ddad8"
        } ]
      }, {
        "detail": [ {
          "reference": "urn:uuid:25117d99-e342-4c8f-a149-a36212892d1a"
        } ]
      }, {
        "detail": [ {
          "reference": "urn:uuid:83d85a73-1b6c-44ce-8fa9-8a7d9459dd76"
        } ]
      }, {
        "detail": [ {
          "reference": "urn:uuid:4a1a155b-e7e6-42da-8d70-80b8e7aa4fe8"
        } ]
      }, {
        "detail": [ {
          "reference": "urn:uuid:ce2f7101-e765-4cfd-93c6-37d8d995b2b9"
        } ]
      }, {
        "detail": [ {
          "reference": "urn:uuid:98525715-d460-485e-8b6e-92729e9ad8ce"
        } ]
      } ]
    }
  }, {
    "fullUrl": "urn:uuid:d607709d-d610-4af2-8ac1-9abfb6c0580f",
    "resource": {
      "resourceType": "QuestionnaireResponse",
      "id": "d607709d-d610-4af2-8ac1-9abfb6c0580f",
      "identifier": {
        "value": "7434927"
      },
      "questionnaire": {
        "reference": "urn:uuid:9bd15de3-ef8d-467c-933e-51b106876964"
      },
      "status": "completed",
      "subject": {
        "reference": "urn:uuid:5feecb5e-fb49-4a48-b2a0-9cf4692191cc"
      },
      "context": {
        "reference": "urn:uuid:afa7c9a2-5428-459e-bbfa-701af3a22fd2"
      },
      "authored": "2020-10-30T18:29:05+00:00",
      "item": [ {
        "linkId": "Tx220074",
        "text": "What is the reason for the contact?",
        "answer": [ {
          "valueString": "an injury or other health problem"
        } ]
      } ]
    }
  }, {
    "fullUrl": "urn:uuid:9bd15de3-ef8d-467c-933e-51b106876964",
    "resource": {
      "resourceType": "Questionnaire",
      "id": "9bd15de3-ef8d-467c-933e-51b106876964",
      "identifier": [ {
        "value": "7434927"
      } ],
      "version": "2020-10-30T18:29:05.808Z",
      "status": "active",
      "experimental": false,
      "date": "2020-10-30T18:29:05+00:00",
      "publisher": "User ID: 'RB12' User name: 'Rachel Boyer' User skill set: 'T3'",
      "lastReviewDate": "2020-10-30",
      "subjectType": [ "Patient" ],
      "item": [ {
        "linkId": "7434927",
        "prefix": "5",
        "text": "What is the reason for the contact?",
        "type": "choice",
        "required": true,
        "repeats": false,
        "option": [ {
          "valueString": "an injury or other health problem, Selected: true"
        }, {
          "valueString": "labour or childbirth, Selected: false"
        }, {
          "valueString": "a need to access another healthcare service, Selected: false"
        }, {
          "valueString": "a healthcare professional requesting contact with another clinician, Selected: false"
        }, {
          "valueString": "a report of results or tests, Selected: false"
        }, {
          "valueString": "a possible failure of contraception, Selected: false"
        }, {
          "valueString": "more, Selected: false"
        } ]
      } ]
    }
  }, {
    "fullUrl": "urn:uuid:58a34b6d-b939-4233-b891-488add013611",
    "resource": {
      "resourceType": "QuestionnaireResponse",
      "id": "58a34b6d-b939-4233-b891-488add013611",
      "identifier": {
        "value": "7434927"
      },
      "questionnaire": {
        "reference": "urn:uuid:7faa4e8a-63a8-48b5-81ef-b6ad629da643"
      },
      "status": "completed",
      "subject": {
        "reference": "urn:uuid:5feecb5e-fb49-4a48-b2a0-9cf4692191cc"
      },
      "context": {
        "reference": "urn:uuid:afa7c9a2-5428-459e-bbfa-701af3a22fd2"
      },
      "authored": "2020-10-30T18:29:05+00:00",
      "item": [ {
        "linkId": "Tx221807",
        "text": "STRING:to'Immediatethreatstolife(SPA/OOHversion)'-'Majorbloodloss'stem",
        "answer": [ {
          "valueString": "\"present\""
        } ]
      } ]
    }
  }, {
    "fullUrl": "urn:uuid:7faa4e8a-63a8-48b5-81ef-b6ad629da643",
    "resource": {
      "resourceType": "Questionnaire",
      "id": "7faa4e8a-63a8-48b5-81ef-b6ad629da643",
      "identifier": [ {
        "value": "7434927"
      } ],
      "version": "2020-10-30T18:29:05.808Z",
      "status": "active",
      "experimental": false,
      "date": "2020-10-30T18:29:05+00:00",
      "publisher": "User ID: 'RB12' User name: 'Rachel Boyer' User skill set: 'T3'",
      "lastReviewDate": "2020-10-30",
      "subjectType": [ "Patient" ],
      "item": [ {
        "linkId": "7434927",
        "prefix": "200",
        "text": "STRING:to'Immediatethreatstolife(SPA/OOHversion)'-'Majorbloodloss'stem",
        "type": "choice",
        "required": true,
        "repeats": false,
        "option": [ {
          "valueString": "\"present\", Selected: true"
        } ]
      } ]
    }
  }, {
    "fullUrl": "urn:uuid:cd0878c0-1f59-48ba-9450-773e68c1b37c",
    "resource": {
      "resourceType": "QuestionnaireResponse",
      "id": "cd0878c0-1f59-48ba-9450-773e68c1b37c",
      "identifier": {
        "value": "7434927"
      },
      "questionnaire": {
        "reference": "urn:uuid:b8581bd8-c146-40c0-80e3-1263cb5a14c5"
      },
      "status": "completed",
      "subject": {
        "reference": "urn:uuid:5feecb5e-fb49-4a48-b2a0-9cf4692191cc"
      },
      "context": {
        "reference": "urn:uuid:afa7c9a2-5428-459e-bbfa-701af3a22fd2"
      },
      "authored": "2020-10-30T18:29:05+00:00"
    }
  }, {
    "fullUrl": "urn:uuid:b8581bd8-c146-40c0-80e3-1263cb5a14c5",
    "resource": {
      "resourceType": "Questionnaire",
      "id": "b8581bd8-c146-40c0-80e3-1263cb5a14c5",
      "identifier": [ {
        "value": "7434927"
      } ],
      "version": "2020-10-30T18:29:05.808Z",
      "status": "active",
      "experimental": false,
      "date": "2020-10-30T18:29:05+00:00",
      "publisher": "User ID: 'RB12' User name: 'Rachel Boyer' User skill set: 'T3'",
      "lastReviewDate": "2020-10-30",
      "subjectType": [ "Patient" ]
    }
  }, {
    "fullUrl": "urn:uuid:5d7fafad-6905-41ad-a6da-b260e2b924e6",
    "resource": {
      "resourceType": "QuestionnaireResponse",
      "id": "5d7fafad-6905-41ad-a6da-b260e2b924e6",
      "identifier": {
        "value": "7434927"
      },
      "questionnaire": {
        "reference": "urn:uuid:76e40c4b-7213-40ea-85c6-ddcaa5a2ca52"
      },
      "status": "completed",
      "subject": {
        "reference": "urn:uuid:5feecb5e-fb49-4a48-b2a0-9cf4692191cc"
      },
      "context": {
        "reference": "urn:uuid:afa7c9a2-5428-459e-bbfa-701af3a22fd2"
      },
      "authored": "2020-10-30T18:29:05+00:00",
      "item": [ {
        "linkId": "Tx221799",
        "text": "STRING:injury,illnessorlabourestablishedinEntryFlow",
        "answer": [ {
          "valueString": "\"present\""
        } ]
      } ]
    }
  }, {
    "fullUrl": "urn:uuid:76e40c4b-7213-40ea-85c6-ddcaa5a2ca52",
    "resource": {
      "resourceType": "Questionnaire",
      "id": "76e40c4b-7213-40ea-85c6-ddcaa5a2ca52",
      "identifier": [ {
        "value": "7434927"
      } ],
      "version": "2020-10-30T18:29:05.808Z",
      "status": "active",
      "experimental": false,
      "date": "2020-10-30T18:29:05+00:00",
      "publisher": "User ID: 'RB12' User name: 'Rachel Boyer' User skill set: 'T3'",
      "lastReviewDate": "2020-10-30",
      "subjectType": [ "Patient" ],
      "item": [ {
        "linkId": "7434927",
        "prefix": "0",
        "text": "STRING:injury,illnessorlabourestablishedinEntryFlow",
        "type": "choice",
        "required": true,
        "repeats": false,
        "option": [ {
          "valueString": "\"present\", Selected: true"
        } ]
      } ]
    }
  }, {
    "fullUrl": "urn:uuid:daefbce1-3007-43e6-9d5c-cafcdf36ebe2",
    "resource": {
      "resourceType": "QuestionnaireResponse",
      "id": "daefbce1-3007-43e6-9d5c-cafcdf36ebe2",
      "identifier": {
        "value": "7434927"
      },
      "questionnaire": {
        "reference": "urn:uuid:7b20f953-f393-4876-bfa7-e1c46881df35"
      },
      "status": "completed",
      "subject": {
        "reference": "urn:uuid:5feecb5e-fb49-4a48-b2a0-9cf4692191cc"
      },
      "context": {
        "reference": "urn:uuid:afa7c9a2-5428-459e-bbfa-701af3a22fd2"
      },
      "authored": "2020-10-30T18:29:05+00:00",
      "item": [ {
        "linkId": "Tx224120",
        "text": "Have you been bleeding RED BLOOD very heavily IN THE LAST 2 HOURS?",
        "answer": [ {
          "valueString": "no"
        } ]
      } ]
    }
  }, {
    "fullUrl": "urn:uuid:7b20f953-f393-4876-bfa7-e1c46881df35",
    "resource": {
      "resourceType": "Questionnaire",
      "id": "7b20f953-f393-4876-bfa7-e1c46881df35",
      "identifier": [ {
        "value": "7434927"
      } ],
      "version": "2020-10-30T18:29:05.808Z",
      "status": "active",
      "experimental": false,
      "date": "2020-10-30T18:29:05+00:00",
      "publisher": "User ID: 'RB12' User name: 'Rachel Boyer' User skill set: 'T3'",
      "lastReviewDate": "2020-10-30",
      "subjectType": [ "Patient" ],
      "item": [ {
        "linkId": "7434927",
        "prefix": "10100",
        "text": "Have you been bleeding RED BLOOD very heavily IN THE LAST 2 HOURS?",
        "type": "choice",
        "required": true,
        "repeats": false,
        "option": [ {
          "valueString": "yes, Selected: false"
        }, {
          "valueString": "not sure, Selected: false"
        }, {
          "valueString": "no, Selected: true"
        } ]
      } ]
    }
  }, {
    "fullUrl": "urn:uuid:4c9f0e43-8d04-4297-887f-b28019680543",
    "resource": {
      "resourceType": "QuestionnaireResponse",
      "id": "4c9f0e43-8d04-4297-887f-b28019680543",
      "identifier": {
        "value": "7434927"
      },
      "questionnaire": {
        "reference": "urn:uuid:78ce3022-38e7-42c4-8122-be2cf5b37cb5"
      },
      "status": "completed",
      "subject": {
        "reference": "urn:uuid:5feecb5e-fb49-4a48-b2a0-9cf4692191cc"
      },
      "context": {
        "reference": "urn:uuid:afa7c9a2-5428-459e-bbfa-701af3a22fd2"
      },
      "authored": "2020-10-30T18:29:05+00:00",
      "item": [ {
        "linkId": "Tx221343",
        "text": "SocialConcernsExcluded",
        "answer": [ {
          "valueString": "==\"present\""
        } ]
      } ]
    }
  }, {
    "fullUrl": "urn:uuid:78ce3022-38e7-42c4-8122-be2cf5b37cb5",
    "resource": {
      "resourceType": "Questionnaire",
      "id": "78ce3022-38e7-42c4-8122-be2cf5b37cb5",
      "identifier": [ {
        "value": "7434927"
      } ],
      "version": "2020-10-30T18:29:05.808Z",
      "status": "active",
      "experimental": false,
      "date": "2020-10-30T18:29:05+00:00",
      "publisher": "User ID: 'RB12' User name: 'Rachel Boyer' User skill set: 'T3'",
      "lastReviewDate": "2020-10-30",
      "subjectType": [ "Patient" ],
      "item": [ {
        "linkId": "7434927",
        "prefix": "1100",
        "text": "SocialConcernsExcluded",
        "type": "choice",
        "required": true,
        "repeats": false,
        "option": [ {
          "valueString": "==\"present\", Selected: true"
        }, {
          "valueString": "*, Selected: false"
        } ]
      } ]
    }
  }, {
    "fullUrl": "urn:uuid:9e3627a0-adde-44d5-a10e-44d89e414c5f",
    "resource": {
      "resourceType": "QuestionnaireResponse",
      "id": "9e3627a0-adde-44d5-a10e-44d89e414c5f",
      "identifier": {
        "value": "7434927"
      },
      "questionnaire": {
        "reference": "urn:uuid:2cda8e2a-958e-4455-baa2-c109a166b2a1"
      },
      "status": "completed",
      "subject": {
        "reference": "urn:uuid:5feecb5e-fb49-4a48-b2a0-9cf4692191cc"
      },
      "context": {
        "reference": "urn:uuid:afa7c9a2-5428-459e-bbfa-701af3a22fd2"
      },
      "authored": "2020-10-30T18:29:05+00:00",
      "item": [ {
        "linkId": "Tx130011",
        "text": "What is the main problem?",
        "answer": [ {
          "valueString": "illness or other health problem (specify)"
        } ]
      } ]
    }
  }, {
    "fullUrl": "urn:uuid:2cda8e2a-958e-4455-baa2-c109a166b2a1",
    "resource": {
      "resourceType": "Questionnaire",
      "id": "2cda8e2a-958e-4455-baa2-c109a166b2a1",
      "identifier": [ {
        "value": "7434927"
      } ],
      "version": "2020-10-30T18:29:05.808Z",
      "status": "active",
      "experimental": false,
      "date": "2020-10-30T18:29:05+00:00",
      "publisher": "User ID: 'RB12' User name: 'Rachel Boyer' User skill set: 'T3'",
      "lastReviewDate": "2020-10-30",
      "subjectType": [ "Patient" ],
      "item": [ {
        "linkId": "7434927",
        "prefix": "2300",
        "text": "What is the main problem?",
        "type": "choice",
        "required": true,
        "repeats": false,
        "option": [ {
          "valueString": "the individual has been told to follow a particular course of action (specify), Selected: false"
        }, {
          "valueString": "the individual is an identified frequent caller, Selected: false"
        }, {
          "valueString": "injury (specify), Selected: false"
        }, {
          "valueString": "illness or other health problem (specify), Selected: true"
        }, {
          "valueString": "child protection/vulnerable adult concern, Selected: false"
        }, {
          "valueString": "social or domestic emergency, Selected: false"
        }, {
          "valueString": "the environment potentially poses an immediate threat to life (specify), Selected: false"
        } ]
      } ]
    }
  }, {
    "fullUrl": "urn:uuid:4afba6a3-1066-418b-bd22-bc26c796bad7",
    "resource": {
      "resourceType": "QuestionnaireResponse",
      "id": "4afba6a3-1066-418b-bd22-bc26c796bad7",
      "identifier": {
        "value": "7434927"
      },
      "questionnaire": {
        "reference": "urn:uuid:bdae6b02-e44c-4363-a818-f3e2fcd96f00"
      },
      "status": "completed",
      "subject": {
        "reference": "urn:uuid:5feecb5e-fb49-4a48-b2a0-9cf4692191cc"
      },
      "context": {
        "reference": "urn:uuid:afa7c9a2-5428-459e-bbfa-701af3a22fd2"
      },
      "authored": "2020-10-30T18:29:05+00:00"
    }
  }, {
    "fullUrl": "urn:uuid:bdae6b02-e44c-4363-a818-f3e2fcd96f00",
    "resource": {
      "resourceType": "Questionnaire",
      "id": "bdae6b02-e44c-4363-a818-f3e2fcd96f00",
      "identifier": [ {
        "value": "7434927"
      } ],
      "version": "2020-10-30T18:29:05.808Z",
      "status": "active",
      "experimental": false,
      "date": "2020-10-30T18:29:05+00:00",
      "publisher": "User ID: 'RB12' User name: 'Rachel Boyer' User skill set: 'T3'",
      "lastReviewDate": "2020-10-30",
      "subjectType": [ "Patient" ]
    }
  }, {
    "fullUrl": "urn:uuid:925eb5ad-403c-455f-98dd-5499e9d0dbcd",
    "resource": {
      "resourceType": "QuestionnaireResponse",
      "id": "925eb5ad-403c-455f-98dd-5499e9d0dbcd",
      "identifier": {
        "value": "7434927"
      },
      "questionnaire": {
        "reference": "urn:uuid:03e3b902-6178-40b3-b02a-7e2f8fd7e2a0"
      },
      "status": "completed",
      "subject": {
        "reference": "urn:uuid:5feecb5e-fb49-4a48-b2a0-9cf4692191cc"
      },
      "context": {
        "reference": "urn:uuid:afa7c9a2-5428-459e-bbfa-701af3a22fd2"
      },
      "authored": "2020-10-30T18:29:05+00:00",
      "item": [ {
        "linkId": "Tx61025",
        "text": "Are you so breathless that speaking more than a few words is impossible?",
        "answer": [ {
          "valueString": "no"
        } ]
      } ]
    }
  }, {
    "fullUrl": "urn:uuid:03e3b902-6178-40b3-b02a-7e2f8fd7e2a0",
    "resource": {
      "resourceType": "Questionnaire",
      "id": "03e3b902-6178-40b3-b02a-7e2f8fd7e2a0",
      "identifier": [ {
        "value": "7434927"
      } ],
      "version": "2020-10-30T18:29:05.808Z",
      "status": "active",
      "experimental": false,
      "date": "2020-10-30T18:29:05+00:00",
      "publisher": "User ID: 'RB12' User name: 'Rachel Boyer' User skill set: 'T3'",
      "lastReviewDate": "2020-10-30",
      "subjectType": [ "Patient" ],
      "item": [ {
        "linkId": "7434927",
        "prefix": "0",
        "text": "Are you so breathless that speaking more than a few words is impossible?",
        "type": "choice",
        "required": true,
        "repeats": false,
        "option": [ {
          "valueString": "yes, Selected: false"
        }, {
          "valueString": "not sure, Selected: false"
        }, {
          "valueString": "no, Selected: true"
        } ]
      } ]
    }
  }, {
    "fullUrl": "urn:uuid:426a16df-2c6b-4182-94ca-772a6b6fda36",
    "resource": {
      "resourceType": "QuestionnaireResponse",
      "id": "426a16df-2c6b-4182-94ca-772a6b6fda36",
      "identifier": {
        "value": "7434927"
      },
      "questionnaire": {
        "reference": "urn:uuid:6aae886f-7473-4027-8d37-1357d7a51391"
      },
      "status": "completed",
      "subject": {
        "reference": "urn:uuid:5feecb5e-fb49-4a48-b2a0-9cf4692191cc"
      },
      "context": {
        "reference": "urn:uuid:afa7c9a2-5428-459e-bbfa-701af3a22fd2"
      },
      "authored": "2020-10-30T18:29:05+00:00",
      "item": [ {
        "linkId": "Tx220845",
        "text": "SYSTEM_FLUPANDEMIC",
        "answer": [ {
          "valueString": "==\"pandemic\""
        } ]
      } ]
    }
  }, {
    "fullUrl": "urn:uuid:6aae886f-7473-4027-8d37-1357d7a51391",
    "resource": {
      "resourceType": "Questionnaire",
      "id": "6aae886f-7473-4027-8d37-1357d7a51391",
      "identifier": [ {
        "value": "7434927"
      } ],
      "version": "2020-10-30T18:29:05.808Z",
      "status": "active",
      "experimental": false,
      "date": "2020-10-30T18:29:05+00:00",
      "publisher": "User ID: 'RB12' User name: 'Rachel Boyer' User skill set: 'T3'",
      "lastReviewDate": "2020-10-30",
      "subjectType": [ "Patient" ],
      "item": [ {
        "linkId": "7434927",
        "prefix": "100",
        "text": "SYSTEM_FLUPANDEMIC",
        "type": "choice",
        "required": true,
        "repeats": false,
        "option": [ {
          "valueString": "==\"pandemic\", Selected: true"
        }, {
          "valueString": "*, Selected: false"
        } ]
      } ]
    }
  }, {
    "fullUrl": "urn:uuid:46db63dd-709b-4b5c-a3c1-000bc31acd95",
    "resource": {
      "resourceType": "QuestionnaireResponse",
      "id": "46db63dd-709b-4b5c-a3c1-000bc31acd95",
      "identifier": {
        "value": "7434927"
      },
      "questionnaire": {
        "reference": "urn:uuid:8149bba2-1ba3-4a10-bb4c-4bd8b4715cff"
      },
      "status": "completed",
      "subject": {
        "reference": "urn:uuid:5feecb5e-fb49-4a48-b2a0-9cf4692191cc"
      },
      "context": {
        "reference": "urn:uuid:afa7c9a2-5428-459e-bbfa-701af3a22fd2"
      },
      "authored": "2020-10-30T18:29:05+00:00",
      "item": [ {
        "linkId": "Tx223440",
        "text": "WHAT IS SAID TO BE THE MAIN REASON FOR THIS CONTACT?",
        "answer": [ {
          "valueString": "more"
        } ]
      } ]
    }
  }, {
    "fullUrl": "urn:uuid:8149bba2-1ba3-4a10-bb4c-4bd8b4715cff",
    "resource": {
      "resourceType": "Questionnaire",
      "id": "8149bba2-1ba3-4a10-bb4c-4bd8b4715cff",
      "identifier": [ {
        "value": "7434927"
      } ],
      "version": "2020-10-30T18:29:05.808Z",
      "status": "active",
      "experimental": false,
      "date": "2020-10-30T18:29:05+00:00",
      "publisher": "User ID: 'RB12' User name: 'Rachel Boyer' User skill set: 'T3'",
      "lastReviewDate": "2020-10-30",
      "subjectType": [ "Patient" ],
      "item": [ {
        "linkId": "7434927",
        "prefix": "5200",
        "text": "WHAT IS SAID TO BE THE MAIN REASON FOR THIS CONTACT?",
        "type": "choice",
        "required": true,
        "repeats": false,
        "option": [ {
          "valueString": "a probable allergic reaction now, Selected: false"
        }, {
          "valueString": "a probable heart attack, Selected: false"
        }, {
          "valueString": "chest or upper back pain, Selected: false"
        }, {
          "valueString": "a probable stroke or mini-stroke, Selected: false"
        }, {
          "valueString": "a probable fit or seizure within the last 12 hours, Selected: false"
        }, {
          "valueString": "a suicide attempt, Selected: false"
        }, {
          "valueString": "more, Selected: true"
        } ]
      } ]
    }
  }, {
    "fullUrl": "urn:uuid:9bdc8e81-1709-4d67-a74e-67bfd6789664",
    "resource": {
      "resourceType": "QuestionnaireResponse",
      "id": "9bdc8e81-1709-4d67-a74e-67bfd6789664",
      "identifier": {
        "value": "7434927"
      },
      "questionnaire": {
        "reference": "urn:uuid:8c0ae9af-c091-4b1a-8d4b-a53b2f3d48e3"
      },
      "status": "completed",
      "subject": {
        "reference": "urn:uuid:5feecb5e-fb49-4a48-b2a0-9cf4692191cc"
      },
      "context": {
        "reference": "urn:uuid:afa7c9a2-5428-459e-bbfa-701af3a22fd2"
      },
      "authored": "2020-10-30T18:29:05+00:00",
      "item": [ {
        "linkId": "Tx220032",
        "text": "WHAT IS SAID TO BE THE MAIN REASON FOR THIS CONTACT?",
        "answer": [ {
          "valueString": "none of the above"
        } ]
      } ]
    }
  }, {
    "fullUrl": "urn:uuid:8c0ae9af-c091-4b1a-8d4b-a53b2f3d48e3",
    "resource": {
      "resourceType": "Questionnaire",
      "id": "8c0ae9af-c091-4b1a-8d4b-a53b2f3d48e3",
      "identifier": [ {
        "value": "7434927"
      } ],
      "version": "2020-10-30T18:29:05.808Z",
      "status": "active",
      "experimental": false,
      "date": "2020-10-30T18:29:05+00:00",
      "publisher": "User ID: 'RB12' User name: 'Rachel Boyer' User skill set: 'T3'",
      "lastReviewDate": "2020-10-30",
      "subjectType": [ "Patient" ],
      "item": [ {
        "linkId": "7434927",
        "prefix": "2200",
        "text": "WHAT IS SAID TO BE THE MAIN REASON FOR THIS CONTACT?",
        "type": "choice",
        "required": true,
        "repeats": false,
        "option": [ {
          "valueString": "new confusion now, Selected: false"
        }, {
          "valueString": "a diabetic hypo (low blood sugar) or a diabetic hyper (high blood sugar), Selected: false"
        }, {
          "valueString": "recovery from an ICD (implanted cardioverter defibrillator) shock, Selected: false"
        }, {
          "valueString": "none of the above, Selected: true"
        } ]
      } ]
    }
  }, {
    "fullUrl": "urn:uuid:ec131402-8ed9-41df-a6c3-b1cd272f3e1a",
    "resource": {
      "resourceType": "QuestionnaireResponse",
      "id": "ec131402-8ed9-41df-a6c3-b1cd272f3e1a",
      "identifier": {
        "value": "7434927"
      },
      "questionnaire": {
        "reference": "urn:uuid:15c4fa2d-e932-41f6-a8d9-0014b4337f4c"
      },
      "status": "completed",
      "subject": {
        "reference": "urn:uuid:5feecb5e-fb49-4a48-b2a0-9cf4692191cc"
      },
      "context": {
        "reference": "urn:uuid:afa7c9a2-5428-459e-bbfa-701af3a22fd2"
      },
      "authored": "2020-10-30T18:29:05+00:00",
      "item": [ {
        "linkId": "Tx223142",
        "text": "Does the skin on the chest, back or abdomen feel a normal temperature?",
        "answer": [ {
          "valueString": "yes - normal, warm or hot"
        } ]
      } ]
    }
  }, {
    "fullUrl": "urn:uuid:15c4fa2d-e932-41f6-a8d9-0014b4337f4c",
    "resource": {
      "resourceType": "Questionnaire",
      "id": "15c4fa2d-e932-41f6-a8d9-0014b4337f4c",
      "identifier": [ {
        "value": "7434927"
      } ],
      "version": "2020-10-30T18:29:05.808Z",
      "status": "active",
      "experimental": false,
      "date": "2020-10-30T18:29:05+00:00",
      "publisher": "User ID: 'RB12' User name: 'Rachel Boyer' User skill set: 'T3'",
      "lastReviewDate": "2020-10-30",
      "subjectType": [ "Patient" ],
      "item": [ {
        "linkId": "7434927",
        "prefix": "4200",
        "text": "Does the skin on the chest, back or abdomen feel a normal temperature?",
        "type": "choice",
        "required": true,
        "repeats": false,
        "option": [ {
          "valueString": "yes - normal, warm or hot, Selected: true"
        }, {
          "valueString": "not sure, Selected: false"
        }, {
          "valueString": "no - cool OR cold, Selected: false"
        }, {
          "valueString": "not safe to touch, Selected: false"
        } ]
      } ]
    }
  }, {
    "fullUrl": "urn:uuid:1ea1c0cd-0314-4a7d-b7c5-bfd3d4cb2883",
    "resource": {
      "resourceType": "QuestionnaireResponse",
      "id": "1ea1c0cd-0314-4a7d-b7c5-bfd3d4cb2883",
      "identifier": {
        "value": "7434927"
      },
      "questionnaire": {
        "reference": "urn:uuid:ec5247ff-7ec3-4390-8967-6d28977b798a"
      },
      "status": "completed",
      "subject": {
        "reference": "urn:uuid:5feecb5e-fb49-4a48-b2a0-9cf4692191cc"
      },
      "context": {
        "reference": "urn:uuid:afa7c9a2-5428-459e-bbfa-701af3a22fd2"
      },
      "authored": "2020-10-30T18:29:05+00:00",
      "item": [ {
        "linkId": "Tx221724",
        "text": "STRING:ShockAsked",
        "answer": [ {
          "valueString": "\"present\""
        } ]
      } ]
    }
  }, {
    "fullUrl": "urn:uuid:ec5247ff-7ec3-4390-8967-6d28977b798a",
    "resource": {
      "resourceType": "Questionnaire",
      "id": "ec5247ff-7ec3-4390-8967-6d28977b798a",
      "identifier": [ {
        "value": "7434927"
      } ],
      "version": "2020-10-30T18:29:05.808Z",
      "status": "active",
      "experimental": false,
      "date": "2020-10-30T18:29:05+00:00",
      "publisher": "User ID: 'RB12' User name: 'Rachel Boyer' User skill set: 'T3'",
      "lastReviewDate": "2020-10-30",
      "subjectType": [ "Patient" ],
      "item": [ {
        "linkId": "7434927",
        "prefix": "3700",
        "text": "STRING:ShockAsked",
        "type": "choice",
        "required": true,
        "repeats": false,
        "option": [ {
          "valueString": "\"present\", Selected: true"
        } ]
      } ]
    }
  }, {
    "fullUrl": "urn:uuid:8913d082-b47d-4eec-aade-5bff6ed393a0",
    "resource": {
      "resourceType": "QuestionnaireResponse",
      "id": "8913d082-b47d-4eec-aade-5bff6ed393a0",
      "identifier": {
        "value": "7434927"
      },
      "questionnaire": {
        "reference": "urn:uuid:dfc9f37d-4be9-4dfa-bcb8-0ae8d15e5914"
      },
      "status": "completed",
      "subject": {
        "reference": "urn:uuid:5feecb5e-fb49-4a48-b2a0-9cf4692191cc"
      },
      "context": {
        "reference": "urn:uuid:afa7c9a2-5428-459e-bbfa-701af3a22fd2"
      },
      "authored": "2020-10-30T18:29:05+00:00"
    }
  }, {
    "fullUrl": "urn:uuid:dfc9f37d-4be9-4dfa-bcb8-0ae8d15e5914",
    "resource": {
      "resourceType": "Questionnaire",
      "id": "dfc9f37d-4be9-4dfa-bcb8-0ae8d15e5914",
      "identifier": [ {
        "value": "7434927"
      } ],
      "version": "2020-10-30T18:29:05.808Z",
      "status": "active",
      "experimental": false,
      "date": "2020-10-30T18:29:05+00:00",
      "publisher": "User ID: 'RB12' User name: 'Rachel Boyer' User skill set: 'T3'",
      "lastReviewDate": "2020-10-30",
      "subjectType": [ "Patient" ]
    }
  }, {
    "fullUrl": "urn:uuid:cdc1f8fa-a136-4ebb-aa06-bec0f28f9c16",
    "resource": {
      "resourceType": "QuestionnaireResponse",
      "id": "cdc1f8fa-a136-4ebb-aa06-bec0f28f9c16",
      "identifier": {
        "value": "7434927"
      },
      "questionnaire": {
        "reference": "urn:uuid:5a03e89c-28e9-4c9a-966f-9522b666fd75"
      },
      "status": "completed",
      "subject": {
        "reference": "urn:uuid:5feecb5e-fb49-4a48-b2a0-9cf4692191cc"
      },
      "context": {
        "reference": "urn:uuid:afa7c9a2-5428-459e-bbfa-701af3a22fd2"
      },
      "authored": "2020-10-30T18:29:05+00:00",
      "item": [ {
        "linkId": "Tx42307",
        "text": "Are you feeling faint or dizzy?",
        "answer": [ {
          "valueString": "no"
        } ]
      } ]
    }
  }, {
    "fullUrl": "urn:uuid:5a03e89c-28e9-4c9a-966f-9522b666fd75",
    "resource": {
      "resourceType": "Questionnaire",
      "id": "5a03e89c-28e9-4c9a-966f-9522b666fd75",
      "identifier": [ {
        "value": "7434927"
      } ],
      "version": "2020-10-30T18:29:05.808Z",
      "status": "active",
      "experimental": false,
      "date": "2020-10-30T18:29:05+00:00",
      "publisher": "User ID: 'RB12' User name: 'Rachel Boyer' User skill set: 'T3'",
      "lastReviewDate": "2020-10-30",
      "subjectType": [ "Patient" ],
      "item": [ {
        "linkId": "7434927",
        "prefix": "0",
        "text": "Are you feeling faint or dizzy?",
        "type": "choice",
        "required": true,
        "repeats": false,
        "option": [ {
          "valueString": "yes, Selected: false"
        }, {
          "valueString": "not sure, Selected: false"
        }, {
          "valueString": "no, Selected: true"
        } ]
      } ]
    }
  }, {
    "fullUrl": "urn:uuid:b877a9fd-b5f8-4a90-a794-5e80d40e2eaa",
    "resource": {
      "resourceType": "QuestionnaireResponse",
      "id": "b877a9fd-b5f8-4a90-a794-5e80d40e2eaa",
      "identifier": {
        "value": "7434927"
      },
      "questionnaire": {
        "reference": "urn:uuid:7d8536b2-84d4-4bb0-8239-bf2efbc14f48"
      },
      "status": "completed",
      "subject": {
        "reference": "urn:uuid:5feecb5e-fb49-4a48-b2a0-9cf4692191cc"
      },
      "context": {
        "reference": "urn:uuid:afa7c9a2-5428-459e-bbfa-701af3a22fd2"
      },
      "authored": "2020-10-30T18:29:05+00:00",
      "item": [ {
        "linkId": "Tx1260",
        "text": "Is the nose still bleeding?",
        "answer": [ {
          "valueString": "yes"
        } ]
      } ]
    }
  }, {
    "fullUrl": "urn:uuid:7d8536b2-84d4-4bb0-8239-bf2efbc14f48",
    "resource": {
      "resourceType": "Questionnaire",
      "id": "7d8536b2-84d4-4bb0-8239-bf2efbc14f48",
      "identifier": [ {
        "value": "7434927"
      } ],
      "version": "2020-10-30T18:29:05.808Z",
      "status": "active",
      "experimental": false,
      "date": "2020-10-30T18:29:05+00:00",
      "publisher": "User ID: 'RB12' User name: 'Rachel Boyer' User skill set: 'T3'",
      "lastReviewDate": "2020-10-30",
      "subjectType": [ "Patient" ],
      "item": [ {
        "linkId": "7434927",
        "prefix": "100",
        "text": "Is the nose still bleeding?",
        "type": "choice",
        "required": true,
        "repeats": false,
        "option": [ {
          "valueString": "yes, Selected: true"
        }, {
          "valueString": "not sure, Selected: false"
        }, {
          "valueString": "no, Selected: false"
        } ]
      } ]
    }
  }, {
    "fullUrl": "urn:uuid:9fa08791-5bb1-4051-90b4-d88dd72ddad8",
    "resource": {
      "resourceType": "QuestionnaireResponse",
      "id": "9fa08791-5bb1-4051-90b4-d88dd72ddad8",
      "identifier": {
        "value": "7434927"
      },
      "questionnaire": {
        "reference": "urn:uuid:e3c6e43c-f9f4-4c51-af5c-b5a1eb88ee91"
      },
      "status": "completed",
      "subject": {
        "reference": "urn:uuid:5feecb5e-fb49-4a48-b2a0-9cf4692191cc"
      },
      "context": {
        "reference": "urn:uuid:afa7c9a2-5428-459e-bbfa-701af3a22fd2"
      },
      "authored": "2020-10-30T18:29:05+00:00",
      "item": [ {
        "linkId": "Tx1258",
        "text": "Is anything stuck up the nose?",
        "answer": [ {
          "valueString": "no"
        } ]
      } ]
    }
  }, {
    "fullUrl": "urn:uuid:e3c6e43c-f9f4-4c51-af5c-b5a1eb88ee91",
    "resource": {
      "resourceType": "Questionnaire",
      "id": "e3c6e43c-f9f4-4c51-af5c-b5a1eb88ee91",
      "identifier": [ {
        "value": "7434927"
      } ],
      "version": "2020-10-30T18:29:05.808Z",
      "status": "active",
      "experimental": false,
      "date": "2020-10-30T18:29:05+00:00",
      "publisher": "User ID: 'RB12' User name: 'Rachel Boyer' User skill set: 'T3'",
      "lastReviewDate": "2020-10-30",
      "subjectType": [ "Patient" ],
      "item": [ {
        "linkId": "7434927",
        "prefix": "300",
        "text": "Is anything stuck up the nose?",
        "type": "choice",
        "required": true,
        "repeats": false,
        "option": [ {
          "valueString": "yes, Selected: false"
        }, {
          "valueString": "not sure, Selected: false"
        }, {
          "valueString": "no, Selected: true"
        } ]
      } ]
    }
  }, {
    "fullUrl": "urn:uuid:25117d99-e342-4c8f-a149-a36212892d1a",
    "resource": {
      "resourceType": "QuestionnaireResponse",
      "id": "25117d99-e342-4c8f-a149-a36212892d1a",
      "identifier": {
        "value": "7434927"
      },
      "questionnaire": {
        "reference": "urn:uuid:dfe88dbe-bd93-49ea-808b-520e73688cc0"
      },
      "status": "completed",
      "subject": {
        "reference": "urn:uuid:5feecb5e-fb49-4a48-b2a0-9cf4692191cc"
      },
      "context": {
        "reference": "urn:uuid:afa7c9a2-5428-459e-bbfa-701af3a22fd2"
      },
      "authored": "2020-10-30T18:29:05+00:00",
      "item": [ {
        "linkId": "Tx1259",
        "text": "Have you pinched the soft part of the nose for AT LEAST 10 MINUTES without a break?",
        "answer": [ {
          "valueString": "yes"
        } ]
      } ]
    }
  }, {
    "fullUrl": "urn:uuid:dfe88dbe-bd93-49ea-808b-520e73688cc0",
    "resource": {
      "resourceType": "Questionnaire",
      "id": "dfe88dbe-bd93-49ea-808b-520e73688cc0",
      "identifier": [ {
        "value": "7434927"
      } ],
      "version": "2020-10-30T18:29:05.808Z",
      "status": "active",
      "experimental": false,
      "date": "2020-10-30T18:29:05+00:00",
      "publisher": "User ID: 'RB12' User name: 'Rachel Boyer' User skill set: 'T3'",
      "lastReviewDate": "2020-10-30",
      "subjectType": [ "Patient" ],
      "item": [ {
        "linkId": "7434927",
        "prefix": "1500",
        "text": "Have you pinched the soft part of the nose for AT LEAST 10 MINUTES without a break?",
        "type": "choice",
        "required": true,
        "repeats": false,
        "option": [ {
          "valueString": "yes, Selected: true"
        }, {
          "valueString": "not sure, Selected: false"
        }, {
          "valueString": "no, Selected: false"
        } ]
      } ]
    }
  }, {
    "fullUrl": "urn:uuid:83d85a73-1b6c-44ce-8fa9-8a7d9459dd76",
    "resource": {
      "resourceType": "QuestionnaireResponse",
      "id": "83d85a73-1b6c-44ce-8fa9-8a7d9459dd76",
      "identifier": {
        "value": "7434927"
      },
      "questionnaire": {
        "reference": "urn:uuid:5ddf3664-39ca-4ffa-bac8-a0d1695789ef"
      },
      "status": "completed",
      "subject": {
        "reference": "urn:uuid:5feecb5e-fb49-4a48-b2a0-9cf4692191cc"
      },
      "context": {
        "reference": "urn:uuid:afa7c9a2-5428-459e-bbfa-701af3a22fd2"
      },
      "authored": "2020-10-30T18:29:05+00:00",
      "item": [ {
        "linkId": "Tx221512",
        "text": "STRING:SDEDFullEDassessmentandmanagementcapability",
        "answer": [ {
          "valueString": "\"ED full ED assessment and management capability\""
        } ]
      } ]
    }
  }, {
    "fullUrl": "urn:uuid:5ddf3664-39ca-4ffa-bac8-a0d1695789ef",
    "resource": {
      "resourceType": "Questionnaire",
      "id": "5ddf3664-39ca-4ffa-bac8-a0d1695789ef",
      "identifier": [ {
        "value": "7434927"
      } ],
      "version": "2020-10-30T18:29:05.808Z",
      "status": "active",
      "experimental": false,
      "date": "2020-10-30T18:29:05+00:00",
      "publisher": "User ID: 'RB12' User name: 'Rachel Boyer' User skill set: 'T3'",
      "lastReviewDate": "2020-10-30",
      "subjectType": [ "Patient" ],
      "item": [ {
        "linkId": "7434927",
        "prefix": "1700",
        "text": "STRING:SDEDFullEDassessmentandmanagementcapability",
        "type": "choice",
        "required": true,
        "repeats": false,
        "option": [ {
          "valueString": "\"ED full ED assessment and management capability\", Selected: true"
        } ]
      } ]
    }
  }, {
    "fullUrl": "urn:uuid:4a1a155b-e7e6-42da-8d70-80b8e7aa4fe8",
    "resource": {
      "resourceType": "QuestionnaireResponse",
      "id": "4a1a155b-e7e6-42da-8d70-80b8e7aa4fe8",
      "identifier": {
        "value": "7434927"
      },
      "questionnaire": {
        "reference": "urn:uuid:d180e12d-3d11-4375-8ef0-0b18697193dc"
      },
      "status": "completed",
      "subject": {
        "reference": "urn:uuid:5feecb5e-fb49-4a48-b2a0-9cf4692191cc"
      },
      "context": {
        "reference": "urn:uuid:afa7c9a2-5428-459e-bbfa-701af3a22fd2"
      },
      "authored": "2020-10-30T18:29:05+00:00"
    }
  }, {
    "fullUrl": "urn:uuid:d180e12d-3d11-4375-8ef0-0b18697193dc",
    "resource": {
      "resourceType": "Questionnaire",
      "id": "d180e12d-3d11-4375-8ef0-0b18697193dc",
      "identifier": [ {
        "value": "7434927"
      } ],
      "version": "2020-10-30T18:29:05.808Z",
      "status": "active",
      "experimental": false,
      "date": "2020-10-30T18:29:05+00:00",
      "publisher": "User ID: 'RB12' User name: 'Rachel Boyer' User skill set: 'T3'",
      "lastReviewDate": "2020-10-30",
      "subjectType": [ "Patient" ]
    }
  }, {
    "fullUrl": "urn:uuid:ce2f7101-e765-4cfd-93c6-37d8d995b2b9",
    "resource": {
      "resourceType": "QuestionnaireResponse",
      "id": "ce2f7101-e765-4cfd-93c6-37d8d995b2b9",
      "identifier": {
        "value": "7434927"
      },
      "questionnaire": {
        "reference": "urn:uuid:953d003a-e5c9-4e9c-af71-9b7d0d028c3e"
      },
      "status": "completed",
      "subject": {
        "reference": "urn:uuid:5feecb5e-fb49-4a48-b2a0-9cf4692191cc"
      },
      "context": {
        "reference": "urn:uuid:afa7c9a2-5428-459e-bbfa-701af3a22fd2"
      },
      "authored": "2020-10-30T18:29:05+00:00"
    }
  }, {
    "fullUrl": "urn:uuid:953d003a-e5c9-4e9c-af71-9b7d0d028c3e",
    "resource": {
      "resourceType": "Questionnaire",
      "id": "953d003a-e5c9-4e9c-af71-9b7d0d028c3e",
      "identifier": [ {
        "value": "7434927"
      } ],
      "version": "2020-10-30T18:29:05.808Z",
      "status": "active",
      "experimental": false,
      "date": "2020-10-30T18:29:05+00:00",
      "publisher": "User ID: 'RB12' User name: 'Rachel Boyer' User skill set: 'T3'",
      "lastReviewDate": "2020-10-30",
      "subjectType": [ "Patient" ]
    }
  }, {
    "fullUrl": "urn:uuid:98525715-d460-485e-8b6e-92729e9ad8ce",
    "resource": {
      "resourceType": "QuestionnaireResponse",
      "id": "98525715-d460-485e-8b6e-92729e9ad8ce",
      "identifier": {
        "value": "7434927"
      },
      "questionnaire": {
        "reference": "urn:uuid:c20baf79-5def-4099-ba40-1195e40bc630"
      },
      "status": "completed",
      "subject": {
        "reference": "urn:uuid:5feecb5e-fb49-4a48-b2a0-9cf4692191cc"
      },
      "context": {
        "reference": "urn:uuid:afa7c9a2-5428-459e-bbfa-701af3a22fd2"
      },
      "authored": "2020-10-30T18:29:05+00:00"
    }
  }, {
    "fullUrl": "urn:uuid:c20baf79-5def-4099-ba40-1195e40bc630",
    "resource": {
      "resourceType": "Questionnaire",
      "id": "c20baf79-5def-4099-ba40-1195e40bc630",
      "identifier": [ {
        "value": "7434927"
      } ],
      "version": "2020-10-30T18:29:05.808Z",
      "status": "active",
      "experimental": false,
      "date": "2020-10-30T18:29:05+00:00",
      "publisher": "User ID: 'RB12' User name: 'Rachel Boyer' User skill set: 'T3'",
      "lastReviewDate": "2020-10-30",
      "subjectType": [ "Patient" ]
    }
  }, {
    "fullUrl": "urn:uuid:781944c6-0116-4de2-a9fc-3372036889b5",
    "resource": {
      "resourceType": "Observation",
      "id": "781944c6-0116-4de2-a9fc-3372036889b5",
      "status": "final",
      "code": {
        "coding": [ {
          "system": "http://snomed.info/sct",
          "code": "33962009",
          "display": "Presenting complaint"
        } ]
      },
      "subject": {
        "reference": "urn:uuid:5feecb5e-fb49-4a48-b2a0-9cf4692191cc"
      },
      "context": {
        "reference": "urn:uuid:afa7c9a2-5428-459e-bbfa-701af3a22fd2"
      }
    }
  }, {
    "fullUrl": "urn:uuid:990a92c4-192b-4e51-89c7-1b24037d2f90",
    "resource": {
      "resourceType": "PractitionerRole",
      "id": "990a92c4-192b-4e51-89c7-1b24037d2f90",
      "practitioner": {
        "reference": "urn:uuid:52b37a3b-735c-4bc8-87dd-b32ca77548fd"
      },
      "organization": {
        "reference": "urn:uuid:f354f64e-bf94-4ec6-846f-6491b7d9c36f"
      },
      "code": [ {
        "coding": [ {
          "system": "2.16.840.1.113883.2.1.3.2.4.17.339",
          "code": "OTHER",
          "display": "Assessed by"
        } ]
      } ]
    }
  }, {
    "fullUrl": "urn:uuid:f354f64e-bf94-4ec6-846f-6491b7d9c36f",
    "resource": {
      "resourceType": "Organization",
      "id": "f354f64e-bf94-4ec6-846f-6491b7d9c36f",
      "identifier": [ {
        "value": "Y00397"
      } ],
      "name": "Devon 111 (Devon Doctors Group)"
    }
  }, {
    "fullUrl": "urn:uuid:dbbd1b5f-9c94-422b-b128-084a00050745",
    "resource": {
      "resourceType": "PractitionerRole",
      "id": "dbbd1b5f-9c94-422b-b128-084a00050745",
      "practitioner": {
        "reference": "urn:uuid:b1425bf8-6ab5-4e41-98d9-985f5b035b89"
      },
      "organization": {
        "reference": "urn:uuid:3a5fe907-fd75-49cd-b212-e6443c96e1f1"
      },
      "code": [ {
        "coding": [ {
          "system": "2.16.840.1.113883.2.1.3.2.4.17.196",
          "code": "R0010",
          "display": "Medical Director"
        } ]
      } ]
    }
  }, {
    "fullUrl": "urn:uuid:3a5fe907-fd75-49cd-b212-e6443c96e1f1",
    "resource": {
      "resourceType": "Organization",
      "id": "3a5fe907-fd75-49cd-b212-e6443c96e1f1",
      "identifier": [ {
        "value": "Y00397"
      } ],
      "name": "Devon Doctors Group"
    }
  }, {
    "fullUrl": "urn:uuid:886d8009-5f2f-4c0d-b9ca-e00f5658790a",
    "resource": {
      "resourceType": "RelatedPerson",
      "id": "886d8009-5f2f-4c0d-b9ca-e00f5658790a",
      "patient": {
        "reference": "urn:uuid:5feecb5e-fb49-4a48-b2a0-9cf4692191cc"
      },
      "relationship": {
        "coding": [ {
          "system": "http://hl7.org/fhir/v2/0131",
          "code": "C",
          "display": "Emergency Contact"
        } ]
      },
      "telecom": [ {
        "system": "phone",
        "value": "tel:01702123456"
      } ]
    }
  }, {
    "fullUrl": "urn:uuid:159be11e-6092-4898-a174-d2b3fc289a42",
    "resource": {
      "resourceType": "Device",
      "id": "159be11e-6092-4898-a174-d2b3fc289a42",
      "model": "111 Adaptor",
      "version": "1.0.1"
    }
  }, {
    "fullUrl": "urn:uuid:0863ac2f-38c8-4b6f-92dd-13f6a9609999",
    "resource": {
      "resourceType": "List",
      "id": "0863ac2f-38c8-4b6f-92dd-13f6a9609999",
      "status": "current",
      "mode": "working",
      "title": "111 Report List",
      "code": {
        "coding": [ {
          "system": "http://snomed.info/sct",
          "code": "225390008",
          "display": "Triage"
        } ]
      },
      "subject": {
        "reference": "urn:uuid:5feecb5e-fb49-4a48-b2a0-9cf4692191cc"
      },
      "encounter": {
        "reference": "urn:uuid:afa7c9a2-5428-459e-bbfa-701af3a22fd2"
      },
      "date": "2020-10-30T18:29:05+00:00",
      "source": {
        "reference": "urn:uuid:159be11e-6092-4898-a174-d2b3fc289a42"
      },
      "orderedBy": {
        "coding": [ {
          "system": "http://hl7.org/fhir/list-order",
          "code": "event-date",
          "display": "Sorted by Event Date"
        } ]
      },
      "entry": [ {
        "item": {
          "reference": "urn:uuid:5b16be48-7f65-459b-b891-4c81efd6e1ab"
        }
      }, {
        "item": {
          "reference": "urn:uuid:b1425bf8-6ab5-4e41-98d9-985f5b035b89"
        }
      }, {
        "item": {
          "reference": "urn:uuid:3a5fe907-fd75-49cd-b212-e6443c96e1f1"
        }
      }, {
        "item": {
          "reference": "urn:uuid:886d8009-5f2f-4c0d-b9ca-e00f5658790a"
        }
      }, {
        "item": {
          "reference": "urn:uuid:52b37a3b-735c-4bc8-87dd-b32ca77548fd"
        }
      }, {
        "item": {
          "reference": "urn:uuid:f2b5ee35-cd6d-4485-8198-a8aee5ea898a"
        }
      }, {
        "item": {
          "reference": "urn:uuid:1279f4c8-b8b9-46bc-ad21-1ec8905eb0c8"
        }
      }, {
        "item": {
          "reference": "urn:uuid:781944c6-0116-4de2-a9fc-3372036889b5"
        }
      }, {
        "item": {
          "reference": "urn:uuid:5d97d588-2b4f-432a-93a1-35df1b70dfc2"
        }
      }, {
        "item": {
          "reference": "urn:uuid:f354f64e-bf94-4ec6-846f-6491b7d9c36f"
        }
      }, {
        "item": {
          "reference": "urn:uuid:5f4152ee-50bb-4738-ad77-fbe31469bbdc"
        }
      }, {
        "item": {
          "reference": "urn:uuid:e3c6e43c-f9f4-4c51-af5c-b5a1eb88ee91"
        }
      }, {
        "item": {
          "reference": "urn:uuid:426a16df-2c6b-4182-94ca-772a6b6fda36"
        }
      }, {
        "item": {
          "reference": "urn:uuid:58a34b6d-b939-4233-b891-488add013611"
        }
      }, {
        "item": {
          "reference": "urn:uuid:8c0ae9af-c091-4b1a-8d4b-a53b2f3d48e3"
        }
      }, {
        "item": {
          "reference": "urn:uuid:953d003a-e5c9-4e9c-af71-9b7d0d028c3e"
        }
      }, {
        "item": {
          "reference": "urn:uuid:c20baf79-5def-4099-ba40-1195e40bc630"
        }
      }, {
        "item": {
          "reference": "urn:uuid:d607709d-d610-4af2-8ac1-9abfb6c0580f"
        }
      }, {
        "item": {
          "reference": "urn:uuid:15c4fa2d-e932-41f6-a8d9-0014b4337f4c"
        }
      }, {
        "item": {
          "reference": "urn:uuid:7b20f953-f393-4876-bfa7-e1c46881df35"
        }
      }, {
        "item": {
          "reference": "urn:uuid:ec5247ff-7ec3-4390-8967-6d28977b798a"
        }
      }, {
        "item": {
          "reference": "urn:uuid:98525715-d460-485e-8b6e-92729e9ad8ce"
        }
      }, {
        "item": {
          "reference": "urn:uuid:dfe88dbe-bd93-49ea-808b-520e73688cc0"
        }
      }, {
        "item": {
          "reference": "urn:uuid:daefbce1-3007-43e6-9d5c-cafcdf36ebe2"
        }
      }, {
        "item": {
          "reference": "urn:uuid:cd0878c0-1f59-48ba-9450-773e68c1b37c"
        }
      }, {
        "item": {
          "reference": "urn:uuid:8913d082-b47d-4eec-aade-5bff6ed393a0"
        }
      }, {
        "item": {
          "reference": "urn:uuid:03e3b902-6178-40b3-b02a-7e2f8fd7e2a0"
        }
      }, {
        "item": {
          "reference": "urn:uuid:b8581bd8-c146-40c0-80e3-1263cb5a14c5"
        }
      }, {
        "item": {
          "reference": "urn:uuid:4afba6a3-1066-418b-bd22-bc26c796bad7"
        }
      }, {
        "item": {
          "reference": "urn:uuid:9bd15de3-ef8d-467c-933e-51b106876964"
        }
      }, {
        "item": {
          "reference": "urn:uuid:46db63dd-709b-4b5c-a3c1-000bc31acd95"
        }
      }, {
        "item": {
          "reference": "urn:uuid:7faa4e8a-63a8-48b5-81ef-b6ad629da643"
        }
      }, {
        "item": {
          "reference": "urn:uuid:4c9f0e43-8d04-4297-887f-b28019680543"
        }
      }, {
        "item": {
          "reference": "urn:uuid:6aae886f-7473-4027-8d37-1357d7a51391"
        }
      }, {
        "item": {
          "reference": "urn:uuid:5a03e89c-28e9-4c9a-966f-9522b666fd75"
        }
      }, {
        "item": {
          "reference": "urn:uuid:2cda8e2a-958e-4455-baa2-c109a166b2a1"
        }
      }, {
        "item": {
          "reference": "urn:uuid:83d85a73-1b6c-44ce-8fa9-8a7d9459dd76"
        }
      }, {
        "item": {
          "reference": "urn:uuid:cdc1f8fa-a136-4ebb-aa06-bec0f28f9c16"
        }
      }, {
        "item": {
          "reference": "urn:uuid:78ce3022-38e7-42c4-8122-be2cf5b37cb5"
        }
      }, {
        "item": {
          "reference": "urn:uuid:9fa08791-5bb1-4051-90b4-d88dd72ddad8"
        }
      }, {
        "item": {
          "reference": "urn:uuid:dfc9f37d-4be9-4dfa-bcb8-0ae8d15e5914"
        }
      }, {
        "item": {
          "reference": "urn:uuid:b877a9fd-b5f8-4a90-a794-5e80d40e2eaa"
        }
      }, {
        "item": {
          "reference": "urn:uuid:ce2f7101-e765-4cfd-93c6-37d8d995b2b9"
        }
      }, {
        "item": {
          "reference": "urn:uuid:925eb5ad-403c-455f-98dd-5499e9d0dbcd"
        }
      }, {
        "item": {
          "reference": "urn:uuid:25117d99-e342-4c8f-a149-a36212892d1a"
        }
      }, {
        "item": {
          "reference": "urn:uuid:4a1a155b-e7e6-42da-8d70-80b8e7aa4fe8"
        }
      }, {
        "item": {
          "reference": "urn:uuid:bdae6b02-e44c-4363-a818-f3e2fcd96f00"
        }
      }, {
        "item": {
          "reference": "urn:uuid:d180e12d-3d11-4375-8ef0-0b18697193dc"
        }
      }, {
        "item": {
          "reference": "urn:uuid:1ea1c0cd-0314-4a7d-b7c5-bfd3d4cb2883"
        }
      }, {
        "item": {
          "reference": "urn:uuid:9bdc8e81-1709-4d67-a74e-67bfd6789664"
        }
      }, {
        "item": {
          "reference": "urn:uuid:76e40c4b-7213-40ea-85c6-ddcaa5a2ca52"
        }
      }, {
        "item": {
          "reference": "urn:uuid:9e3627a0-adde-44d5-a10e-44d89e414c5f"
        }
      }, {
        "item": {
          "reference": "urn:uuid:8149bba2-1ba3-4a10-bb4c-4bd8b4715cff"
        }
      }, {
        "item": {
          "reference": "urn:uuid:5d7fafad-6905-41ad-a6da-b260e2b924e6"
        }
      }, {
        "item": {
          "reference": "urn:uuid:7d8536b2-84d4-4bb0-8239-bf2efbc14f48"
        }
      }, {
        "item": {
          "reference": "urn:uuid:5ddf3664-39ca-4ffa-bac8-a0d1695789ef"
        }
      }, {
        "item": {
          "reference": "urn:uuid:ec131402-8ed9-41df-a6c3-b1cd272f3e1a"
        }
      }, {
        "item": {
          "reference": "urn:uuid:d4f6b668-9e6b-4ce9-a736-37c61e08a456"
        }
      } ]
    }
  } ]
}