{
  "resourceType": "Bundle",
  "meta": {
    "lastUpdated": "2022-05-12T06:46:15.228+00:00"
  },
  "identifier": {
    "type": {
      "text": "ClinicalDocument VersionNumber"
    },
    "value": "1"
  },
  "type": "message",
  "entry": [ {
    "fullUrl": "urn:uuid:2B77B3F5-3016-4A6D-821F-152CE420E58D",
    "resource": {
      "resourceType": "MessageHeader",
      "id": "2B77B3F5-3016-4A6D-821F-152CE420E58D",
      "event": {
        "system": "https://fhir.nhs.uk/STU3/CodeSystem/EventType-1",
        "code": "referral-1",
        "display": "Referral"
      },
      "destination": [ {
        "endpoint": "urn:nhs-uk:addressing:ods:EM396:DOSServiceID:26428"
      } ],
      "timestamp": "2025-10-30T09:45:22.000+00:00",
      "source": {
        "name": "NHS 111 Adaptor",
        "endpoint": "http://localhost:8080/report"
      },
      "reason": {
        "coding": [ {
          "system": "urn:nhs-itk:ns:201005:interaction",
          "code": "urn:nhs-itk:interaction:primaryNHS111RepeatCallerDocumentSet-v1-0"
        } ]
      }
    }
  }, {
    "fullUrl": "urn:uuid:ba9e0c41-83e1-4cd5-bc95-4d566065b595",
    "resource": {
      "resourceType": "Encounter",
      "id": "ba9e0c41-83e1-4cd5-bc95-4d566065b595",
      "identifier": [ {
        "system": "2.16.840.1.113883.2.1.3.2.4.18.34",
        "value": "D47E4F49-D4B8-4913-85B9-64AF5523B268"
      }, {
        "system": "2.16.840.1.113883.2.1.3.2.4.18.35",
        "value": "1193164"
      } ],
      "status": "finished",
      "type": [ {
        "text": "111 Encounter Referral"
      } ],
      "subject": {
        "reference": "urn:uuid:5e1ee836-9154-477d-b53d-cb5b31356355"
      },
      "participant": [ {
        "type": [ {
          "coding": [ {
            "system": "http://hl7.org/fhir/ValueSet/encounter-participant-type",
            "code": "PPRF",
            "display": "Author"
          } ]
        } ],
        "individual": {
          "reference": "urn:uuid:7c392283-78f7-463d-af67-549b9535647f"
        }
      }, {
        "type": [ {
          "coding": [ {
            "system": "http://hl7.org/fhir/ValueSet/encounter-participant-type",
            "code": "ATND",
            "display": "Responsible Party"
          } ]
        } ],
        "individual": {
          "reference": "urn:uuid:5c22e241-50a4-4992-9447-7896670d29dc"
        }
      } ],
      "period": {
        "start": "2020-10-30T09:42:40+00:00",
        "end": "2020-10-30T09:44:13+00:00"
      },
      "location": [ {
        "location": {
          "reference": "urn:uuid:759e3caa-7838-45e6-a776-5919ed6886c2"
        },
        "status": "active"
      }, {
        "location": {
          "reference": "urn:uuid:ddf90b79-cd0a-4840-af15-7e26677522fa"
        },
        "status": "completed"
      } ],
      "serviceProvider": {
        "reference": "urn:uuid:31c76433-7567-4a4a-8bde-b6baf0c82a77"
      }
    }
  }, {
    "fullUrl": "urn:uuid:31c76433-7567-4a4a-8bde-b6baf0c82a77",
    "resource": {
      "resourceType": "Organization",
      "id": "31c76433-7567-4a4a-8bde-b6baf0c82a77",
      "active": true,
      "type": [ {
        "text": "CST"
      } ],
      "name": "West Midlands Single Instance"
    }
  }, {
    "fullUrl": "urn:uuid:7c392283-78f7-463d-af67-549b9535647f",
    "resource": {
      "resourceType": "Practitioner",
      "id": "7c392283-78f7-463d-af67-549b9535647f",
      "active": true,
      "name": [ {
        "use": "official"
      } ]
    }
  }, {
    "fullUrl": "urn:uuid:5c22e241-50a4-4992-9447-7896670d29dc",
    "resource": {
      "resourceType": "Practitioner",
      "id": "5c22e241-50a4-4992-9447-7896670d29dc",
      "active": true,
      "name": [ {
        "use": "official",
        "family": "Walker",
        "given": [ "Alison" ]
      } ]
    }
  }, {
    "fullUrl": "urn:uuid:759e3caa-7838-45e6-a776-5919ed6886c2",
    "resource": {
      "resourceType": "Location",
      "id": "759e3caa-7838-45e6-a776-5919ed6886c2",
      "managingOrganization": {
        "reference": "urn:uuid:f57701fe-21ce-492a-b8e7-c887f9d256fe"
      }
    }
  }, {
    "fullUrl": "urn:uuid:f57701fe-21ce-492a-b8e7-c887f9d256fe",
    "resource": {
      "resourceType": "Organization",
      "id": "f57701fe-21ce-492a-b8e7-c887f9d256fe",
      "identifier": [ {
        "value": "F81718"
      } ],
      "type": [ {
        "text": "GP Practice"
      } ],
      "name": "LYDIA HOUSE PRACTICE"
    }
  }, {
    "fullUrl": "urn:uuid:ddf90b79-cd0a-4840-af15-7e26677522fa",
    "resource": {
      "resourceType": "Location",
      "id": "ddf90b79-cd0a-4840-af15-7e26677522fa",
      "name": "Incident Location",
      "address": {
        "type": "physical",
        "line": [ "Whitchurch Hospital", "Claypit Street", "Whitchurch", "Shropshire" ],
        "postalCode": "SY13 1NT"
      }
    }
  }, {
    "fullUrl": "urn:uuid:5e1ee836-9154-477d-b53d-cb5b31356355",
    "resource": {
      "resourceType": "Patient",
      "id": "5e1ee836-9154-477d-b53d-cb5b31356355",
      "identifier": [ {
        "extension": [ {
          "url": "https://fhir.hl7.org.uk/STU3/StructureDefinition/Extension-CareConnect-NHSNumberVerificationStatus-1",
          "valueCodeableConcept": {
            "coding": [ {
              "system": "https://fhir.hl7.org.uk/STU3/StructureDefinition/Extension-CareConnect-NHSNumberVerificationStatus-1",
              "code": "01"
            } ]
          }
        } ],
        "system": "https://fhir.nhs.uk/Id/nhs-number",
        "value": "9990238359"
      } ],
      "active": true,
      "name": [ {
        "use": "official",
        "family": "Xxtestpatientdzadn",
        "given": [ "Scrdonotuse" ]
      } ],
      "telecom": [ {
        "system": "phone",
        "value": "tel:01204428013",
        "use": "home"
      }, {
        "system": "phone",
        "value": "tel:01204428013"
      } ],
      "gender": "female",
      "birthDate": "1965-02-17",
      "address": [ {
        "use": "home",
        "line": [ "Test Address", "Captain Lees Road", "Westhoughton", "Bolton", "Greater Manchester" ],
        "postalCode": "BL5 3UB"
      }, {
        "type": "physical",
        "line": [ "Whitchurch Hospital", "Claypit Street", "Whitchurch", "Shropshire" ],
        "postalCode": "SY13 1NT"
      } ],
      "generalPractitioner": [ {
        "reference": "urn:uuid:10313eb2-1d36-4db3-9762-f46b4eda9141"
      } ]
    }
  }, {
    "fullUrl": "urn:uuid:10313eb2-1d36-4db3-9762-f46b4eda9141",
    "resource": {
      "resourceType": "Organization",
      "id": "10313eb2-1d36-4db3-9762-f46b4eda9141",
      "identifier": [ {
        "value": "F81718"
      } ],
      "type": [ {
        "text": "GP Practice"
      } ],
      "name": "LYDIA HOUSE PRACTICE"
    }
  }, {
    "fullUrl": "urn:uuid:c8a4e726-a02a-4b71-84de-3221d9316b39",
    "resource": {
      "resourceType": "HealthcareService",
      "id": "c8a4e726-a02a-4b71-84de-3221d9316b39",
      "active": true,
      "providedBy": {
        "reference": "urn:uuid:c7ce7bd4-bb30-4da6-9bee-9963726c7f82"
      },
      "location": [ {
        "reference": "urn:uuid:8160b895-b9a7-4402-9804-b862feb115f9"
      } ],
      "name": "Repeat Caller - Live (v2)"
    }
  }, {
    "fullUrl": "urn:uuid:8160b895-b9a7-4402-9804-b862feb115f9",
    "resource": {
      "resourceType": "Location",
      "id": "8160b895-b9a7-4402-9804-b862feb115f9",
      "managingOrganization": {
        "reference": "urn:uuid:c7ce7bd4-bb30-4da6-9bee-9963726c7f82"
      }
    }
  }, {
    "fullUrl": "urn:uuid:c7ce7bd4-bb30-4da6-9bee-9963726c7f82",
    "resource": {
      "resourceType": "Organization",
      "id": "c7ce7bd4-bb30-4da6-9bee-9963726c7f82",
      "identifier": [ {
        "value": "RHY25"
      } ],
      "type": [ {
        "coding": [ {
          "code": "PRCP",
          "display": "Repeat Caller - Live (v2)"
        } ]
      } ],
      "name": "Repeat Caller - Live (v2)"
    }
  }, {
    "fullUrl": "urn:uuid:d7f5f33e-84bc-42b3-9d6c-dffae9e645f5",
    "resource": {
      "resourceType": "ReferralRequest",
      "id": "d7f5f33e-84bc-42b3-9d6c-dffae9e645f5",
      "status": "active",
      "intent": "plan",
      "priority": "routine",
      "subject": {
        "reference": "urn:uuid:5e1ee836-9154-477d-b53d-cb5b31356355"
      },
      "context": {
        "reference": "urn:uuid:ba9e0c41-83e1-4cd5-bc95-4d566065b595"
      },
      "occurrencePeriod": {
        "start": "2025-10-30T09:45:22+00:00"
      },
      "authoredOn": "2020-10-30T09:44:13+00:00",
      "requester": {
        "agent": {
          "reference": "urn:uuid:16c28228-fe9a-4aa7-b2ff-30c66a530539"
        },
        "onBehalfOf": {
          "reference": "urn:uuid:31c76433-7567-4a4a-8bde-b6baf0c82a77"
        }
      },
      "recipient": [ {
        "reference": "urn:uuid:c8a4e726-a02a-4b71-84de-3221d9316b39"
      } ],
      "reasonReference": [ {
        "reference": "urn:uuid:3b65b4fe-4f83-4da9-84eb-299f19a77363"
      } ],
      "supportingInfo": [ {
        "reference": "urn:uuid:4734a9be-711e-4768-89de-8ab201a31848"
      } ]
    }
  }, {
    "fullUrl": "urn:uuid:4734a9be-711e-4768-89de-8ab201a31848",
    "resource": {
      "resourceType": "ProcedureRequest",
      "id": "4734a9be-711e-4768-89de-8ab201a31848",
      "status": "active",
      "intent": "plan",
      "priority": "routine",
      "doNotPerform": false,
      "code": {
        "coding": [ {
          "system": "2.16.840.1.113883.2.1.3.2.4.17.325",
          "code": "Dx05",
          "display": "To contact a local service within 2 hours"
        } ]
      },
      "subject": {
        "reference": "urn:uuid:5e1ee836-9154-477d-b53d-cb5b31356355"
      },
      "occurrencePeriod": {
        "start": "2025-10-30T09:45:22+00:00"
      },
      "reasonReference": [ {
        "reference": "urn:uuid:3b65b4fe-4f83-4da9-84eb-299f19a77363"
      } ]
    }
  }, {
    "fullUrl": "urn:uuid:19ac4f6f-8c2a-427a-8ca1-3d66749ea3eb",
    "resource": {
      "resourceType": "Composition",
      "id": "19ac4f6f-8c2a-427a-8ca1-3d66749ea3eb",
      "identifier": {
        "use": "usual",
        "value": "499BEC45-8F01-498C-A61F-B8AC124ED50E"
      },
      "status": "final",
      "type": {
        "coding": [ {
          "system": "http://snomed.info/sct",
          "code": "371531000",
          "display": "Report of clinical encounter (record artifact)"
        } ]
      },
      "subject": {
        "reference": "urn:uuid:5e1ee836-9154-477d-b53d-cb5b31356355"
      },
      "encounter": {
        "reference": "urn:uuid:ba9e0c41-83e1-4cd5-bc95-4d566065b595"
      },
      "date": "2025-10-30T09:45:22+00:00",
      "author": [ {
        "reference": "urn:uuid:7c392283-78f7-463d-af67-549b9535647f"
      } ],
      "title": "111 Report",
      "confidentiality": "N",
      "section": [ {
        "section": [ {
          "title": "Patient's Reported Condition",
          "text": {
            "status": "generated",
            "div": "<div xmlns=\"http://www.w3.org/1999/xhtml\">&lt;br/&gt;WHITCHURCH MIU TEST</div>"
          }
        }, {
          "title": "Pathways Disposition",
          "text": {
            "status": "generated",
            "div": "<div xmlns=\"http://www.w3.org/1999/xhtml\">&lt;br/&gt;\n                                                    &lt;br/&gt;\n                                                    &lt;br/&gt;To contact a local service within 2 hours (Dx05)\n\n                                                    Selected service: DO NOT BOOK APPOINTMENT - TESTING Whitchurch Minor Injury Unit</div>"
          }
        }, {
          "title": "Consultation Summary",
          "text": {
            "status": "generated",
            "div": "<div xmlns=\"http://www.w3.org/1999/xhtml\">&lt;br/&gt;\n                                                    &lt;br/&gt;\n                                                    &lt;br/&gt;\n                                                    &lt;br/&gt;\n                                                    &lt;br/&gt;InjuryBite or stingInsect or spider biteSting/bite more than 6 hours agoVery severe, deep limb pain</div>"
          }
        }, {
          "title": "Pathways Assessment",
          "text": {
            "status": "generated",
            "div": "<div xmlns=\"http://www.w3.org/1999/xhtml\">&lt;br/&gt;\n                                                    &lt;br/&gt;\n                                                    &lt;br/&gt;\n                                                    &lt;br/&gt;\n                                                    &lt;br/&gt;\n                                                    &lt;br/&gt;\n                                                    &lt;br/&gt;\n                                                    &lt;br/&gt;\n                                                    &lt;br/&gt;\n                                                    &lt;br/&gt;\n                                                    &lt;br/&gt;\n                                                    &lt;br/&gt;\n                                                    &lt;br/&gt;\n                                                    &lt;br/&gt;\n                                                    &lt;br/&gt;\n                                                    &lt;br/&gt;\n                                                    &lt;br/&gt;\n                                                    &lt;br/&gt;An injury or health problem was the reason for the contact.Heavy bleeding had not occurred in the previous 2 hours.An injury or symptom relating to an injury was the main problem.User Comments: TESTThere was a minor injury (a bite or sting).User Comments: TESTPathway selected - Bites and StingsThe bite or sting was caused by an insect or spider.User Comments: TESTThe sting/bite had not occurred within the previous 6 hours.The individual had been stung less than 10 timesThe individual was not experiencing nausea and/or vomiting.The sting did not involve the eyes, mouth or limb.There was no insect/insect part remaining attached to the skinThere was very severe, deep pain.Instructions given were: The individual needs to contact a local service within 2 hours.Directory of Services referral: DO NOT BOOK APPOINTMENT - TESTING Whitchurch Minor Injury UnitAdvice given:\n                                                    Worsening</div>"
          }
        }, {
          "title": "Advice Given",
          "text": {
            "status": "generated",
            "div": "<div xmlns=\"http://www.w3.org/1999/xhtml\">&lt;br/&gt;\n                                                    &lt;br/&gt;If there are any new symptoms, or if the condition gets worse, changes or you have any other concerns, call us back.</div>"
          }
        }, {
          "title": "Special Patient Notes",
          "text": {
            "status": "generated",
            "div": "<div xmlns=\"http://www.w3.org/1999/xhtml\">&lt;content styleCode=&quot;bold&quot;&gt;Note:&lt;/content&gt;\n                                                    &lt;br/&gt;\n                                                    &lt;content&gt;TEST NOTE West Midlands Single Instance&lt;/content&gt;\n                                                    &lt;br/&gt;\n                                                    &lt;br/&gt;Special Notes from an external system were flagged as being present for this patient.</div>"
          }
        } ]
      }, {
        "title": "ReferralRequest",
        "entry": [ {
          "reference": "urn:uuid:d7f5f33e-84bc-42b3-9d6c-dffae9e645f5"
        } ]
      }, {
        "title": "QuestionnaireResponse",
        "entry": [ {
          "reference": "urn:uuid:2d97eb67-28b1-4f9d-a7d1-423c1a7595f5"
        } ]
      }, {
        "title": "QuestionnaireResponse",
        "entry": [ {
          "reference": "urn:uuid:88e1bc9a-52ee-4ced-bcb0-f80034ffc5a0"
        } ]
      }, {
        "title": "QuestionnaireResponse",
        "entry": [ {
          "reference": "urn:uuid:98ecef5d-b467-40b0-97ee-c7a33e07bc86"
        } ]
      }, {
        "title": "QuestionnaireResponse",
        "entry": [ {
          "reference": "urn:uuid:fab08424-a168-4bad-8f31-2b0c0581e15c"
        } ]
      }, {
        "title": "QuestionnaireResponse",
        "entry": [ {
          "reference": "urn:uuid:af17581d-3128-460b-aa42-dbd3daf42fca"
        } ]
      }, {
        "title": "QuestionnaireResponse",
        "entry": [ {
          "reference": "urn:uuid:bcfcd9ca-7676-45ec-9603-2fee8a1b6b25"
        } ]
      }, {
        "title": "QuestionnaireResponse",
        "entry": [ {
          "reference": "urn:uuid:fc98c6c8-5833-44f9-9fea-04e4edcb17ce"
        } ]
      }, {
        "title": "QuestionnaireResponse",
        "entry": [ {
          "reference": "urn:uuid:1286de04-a8b4-4ba7-855e-66f01ef0ef2e"
        } ]
      }, {
        "title": "QuestionnaireResponse",
        "entry": [ {
          "reference": "urn:uuid:970c5c15-faac-4591-82ae-a077048116be"
        } ]
      }, {
        "title": "QuestionnaireResponse",
        "entry": [ {
          "reference": "urn:uuid:56aa38a9-c311-4acb-ba13-800623fa88f5"
        } ]
      }, {
        "title": "QuestionnaireResponse",
        "entry": [ {
          "reference": "urn:uuid:420f3408-f6ea-46f0-95f9-b1e128afae57"
        } ]
      }, {
        "title": "QuestionnaireResponse",
        "entry": [ {
          "reference": "urn:uuid:66c2d1f1-ccef-4a50-a41c-c285cbc1ef50"
        } ]
      }, {
        "title": "QuestionnaireResponse",
        "entry": [ {
          "reference": "urn:uuid:60761f54-6d93-4498-be22-42caeea03d54"
        } ]
      }, {
        "title": "QuestionnaireResponse",
        "entry": [ {
          "reference": "urn:uuid:49b544b7-2923-4652-bd72-19a0dca6a298"
        } ]
      }, {
        "title": "QuestionnaireResponse",
        "entry": [ {
          "reference": "urn:uuid:42139c37-e2c8-486a-b8af-4a2438471a6d"
        } ]
      }, {
        "title": "QuestionnaireResponse",
        "entry": [ {
          "reference": "urn:uuid:c3b04b6e-c7bd-4268-ba47-8b8adc4f15ff"
        } ]
      }, {
        "title": "QuestionnaireResponse",
        "entry": [ {
          "reference": "urn:uuid:94f35f56-97b5-4c21-950f-4a8e6a1360b5"
        } ]
      }, {
        "title": "QuestionnaireResponse",
        "entry": [ {
          "reference": "urn:uuid:af595a9f-6e31-44b0-ba84-0d64b46d72f0"
        } ]
      }, {
        "title": "QuestionnaireResponse",
        "entry": [ {
          "reference": "urn:uuid:47e32df6-2cb7-4d85-b008-6369a5cfd4b2"
        } ]
      }, {
        "title": "QuestionnaireResponse",
        "entry": [ {
          "reference": "urn:uuid:72ef06f7-a1d2-4cd4-9a29-ec3347bda092"
        } ]
      }, {
        "title": "QuestionnaireResponse",
        "entry": [ {
          "reference": "urn:uuid:708756b8-0c07-4f61-9276-64d0f3297d53"
        } ]
      }, {
        "title": "QuestionnaireResponse",
        "entry": [ {
          "reference": "urn:uuid:6de1fc7d-5c3c-46dd-8a6e-52e2a8e8c35e"
        } ]
      } ]
    }
  }, {
    "fullUrl": "urn:uuid:dbba947b-f886-4072-8a6a-7fcbd4c84050",
    "resource": {
      "resourceType": "Consent",
      "id": "dbba947b-f886-4072-8a6a-7fcbd4c84050",
      "identifier": {
        "use": "usual",
        "value": "499BEC45-8F01-498C-A61F-B8AC124ED50E"
      },
      "status": "active",
      "patient": {
        "reference": "urn:uuid:5e1ee836-9154-477d-b53d-cb5b31356355"
      },
      "period": {
        "start": "2020-10-30T09:42:40+00:00",
        "end": "2020-10-30T09:44:13+00:00"
      },
      "consentingParty": [ {
        "reference": "urn:uuid:5e1ee836-9154-477d-b53d-cb5b31356355"
      } ],
      "action": [ {
        "coding": [ {
          "system": "http://snomed.info/sct",
          "code": "425691002",
          "display": "Consent given for electronic record sharing"
        } ],
        "text": "Consent given for electronic record sharing"
      } ],
      "organization": [ {
        "reference": "urn:uuid:31c76433-7567-4a4a-8bde-b6baf0c82a77"
      } ],
      "policyRule": "http://hl7.org/fhir/ConsentPolicy/opt-out",
      "data": [ {
        "meaning": "related",
        "reference": {
          "reference": "urn:uuid:ba9e0c41-83e1-4cd5-bc95-4d566065b595"
        }
      } ]
    }
  }, {
    "fullUrl": "urn:uuid:3b65b4fe-4f83-4da9-84eb-299f19a77363",
    "resource": {
      "resourceType": "Condition",
      "id": "3b65b4fe-4f83-4da9-84eb-299f19a77363",
      "clinicalStatus": "active",
      "verificationStatus": "unknown",
      "subject": {
        "reference": "urn:uuid:5e1ee836-9154-477d-b53d-cb5b31356355"
      },
      "context": {
        "reference": "urn:uuid:ba9e0c41-83e1-4cd5-bc95-4d566065b595"
      },
      "evidence": [ {
        "detail": [ {
          "reference": "urn:uuid:2d97eb67-28b1-4f9d-a7d1-423c1a7595f5"
        } ]
      }, {
        "detail": [ {
          "reference": "urn:uuid:88e1bc9a-52ee-4ced-bcb0-f80034ffc5a0"
        } ]
      }, {
        "detail": [ {
          "reference": "urn:uuid:98ecef5d-b467-40b0-97ee-c7a33e07bc86"
        } ]
      }, {
        "detail": [ {
          "reference": "urn:uuid:fab08424-a168-4bad-8f31-2b0c0581e15c"
        } ]
      }, {
        "detail": [ {
          "reference": "urn:uuid:af17581d-3128-460b-aa42-dbd3daf42fca"
        } ]
      }, {
        "detail": [ {
          "reference": "urn:uuid:bcfcd9ca-7676-45ec-9603-2fee8a1b6b25"
        } ]
      }, {
        "detail": [ {
          "reference": "urn:uuid:fc98c6c8-5833-44f9-9fea-04e4edcb17ce"
        } ]
      }, {
        "detail": [ {
          "reference": "urn:uuid:1286de04-a8b4-4ba7-855e-66f01ef0ef2e"
        } ]
      }, {
        "detail": [ {
          "reference": "urn:uuid:970c5c15-faac-4591-82ae-a077048116be"
        } ]
      }, {
        "detail": [ {
          "reference": "urn:uuid:56aa38a9-c311-4acb-ba13-800623fa88f5"
        } ]
      }, {
        "detail": [ {
          "reference": "urn:uuid:420f3408-f6ea-46f0-95f9-b1e128afae57"
        } ]
      }, {
        "detail": [ {
          "reference": "urn:uuid:66c2d1f1-ccef-4a50-a41c-c285cbc1ef50"
        } ]
      }, {
        "detail": [ {
          "reference": "urn:uuid:60761f54-6d93-4498-be22-42caeea03d54"
        } ]
      }, {
        "detail": [ {
          "reference": "urn:uuid:49b544b7-2923-4652-bd72-19a0dca6a298"
        } ]
      }, {
        "detail": [ {
          "reference": "urn:uuid:42139c37-e2c8-486a-b8af-4a2438471a6d"
        } ]
      }, {
        "detail": [ {
          "reference": "urn:uuid:c3b04b6e-c7bd-4268-ba47-8b8adc4f15ff"
        } ]
      }, {
        "detail": [ {
          "reference": "urn:uuid:94f35f56-97b5-4c21-950f-4a8e6a1360b5"
        } ]
      }, {
        "detail": [ {
          "reference": "urn:uuid:af595a9f-6e31-44b0-ba84-0d64b46d72f0"
        } ]
      }, {
        "detail": [ {
          "reference": "urn:uuid:47e32df6-2cb7-4d85-b008-6369a5cfd4b2"
        } ]
      }, {
        "detail": [ {
          "reference": "urn:uuid:72ef06f7-a1d2-4cd4-9a29-ec3347bda092"
        } ]
      }, {
        "detail": [ {
          "reference": "urn:uuid:708756b8-0c07-4f61-9276-64d0f3297d53"
        } ]
      }, {
        "detail": [ {
          "reference": "urn:uuid:6de1fc7d-5c3c-46dd-8a6e-52e2a8e8c35e"
        } ]
      } ]
    }
  }, {
    "fullUrl": "urn:uuid:2d97eb67-28b1-4f9d-a7d1-423c1a7595f5",
    "resource": {
      "resourceType": "QuestionnaireResponse",
      "id": "2d97eb67-28b1-4f9d-a7d1-423c1a7595f5",
      "identifier": {
        "value": "1193164"
      },
      "questionnaire": {
        "reference": "urn:uuid:53ece910-277c-43c1-a523-1a79c7e168d3"
      },
      "status": "completed",
      "subject": {
        "reference": "urn:uuid:5e1ee836-9154-477d-b53d-cb5b31356355"
      },
      "context": {
        "reference": "urn:uuid:ba9e0c41-83e1-4cd5-bc95-4d566065b595"
      },
      "authored": "2020-10-30T09:45:23+00:00",
      "item": [ {
        "linkId": "Tx220074",
        "text": "What is the reason for the contact?",
        "answer": [ {
          "valueString": "an injury or other health problem"
        } ]
      } ]
    }
  }, {
    "fullUrl": "urn:uuid:53ece910-277c-43c1-a523-1a79c7e168d3",
    "resource": {
      "resourceType": "Questionnaire",
      "id": "53ece910-277c-43c1-a523-1a79c7e168d3",
      "identifier": [ {
        "value": "1193164"
      } ],
      "version": "2020-10-30T09:45:23.026Z",
      "status": "active",
      "experimental": false,
      "date": "2020-10-30T09:45:23+00:00",
      "publisher": "User ID: 'HOLDENR' User name: 'Rachael Holden' User skill set: 'T3'",
      "lastReviewDate": "2020-10-30",
      "subjectType": [ "Patient" ],
      "item": [ {
        "linkId": "1193164",
        "prefix": "5",
        "text": "What is the reason for the contact?",
        "type": "choice",
        "required": true,
        "repeats": false,
        "option": [ {
          "valueString": "an injury or other health problem, Selected: true"
        }, {
          "valueString": "labour or childbirth, Selected: false"
        }, {
          "valueString": "a need to access another healthcare service, Selected: false"
        }, {
          "valueString": "a healthcare professional requesting contact with another clinician, Selected: false"
        }, {
          "valueString": "a report of results or tests, Selected: false"
        }, {
          "valueString": "a possible failure of contraception, Selected: false"
        }, {
          "valueString": "more, Selected: false"
        } ]
      } ]
    }
  }, {
    "fullUrl": "urn:uuid:88e1bc9a-52ee-4ced-bcb0-f80034ffc5a0",
    "resource": {
      "resourceType": "QuestionnaireResponse",
      "id": "88e1bc9a-52ee-4ced-bcb0-f80034ffc5a0",
      "identifier": {
        "value": "1193164"
      },
      "questionnaire": {
        "reference": "urn:uuid:a4d8ce57-9568-4cb6-a490-3171e27da4ce"
      },
      "status": "completed",
      "subject": {
        "reference": "urn:uuid:5e1ee836-9154-477d-b53d-cb5b31356355"
      },
      "context": {
        "reference": "urn:uuid:ba9e0c41-83e1-4cd5-bc95-4d566065b595"
      },
      "authored": "2020-10-30T09:45:23+00:00",
      "item": [ {
        "linkId": "Tx221807",
        "text": "STRING:to'Immediatethreatstolife(SPA/OOHversion)'-'Majorbloodloss'stem",
        "answer": [ {
          "valueString": "\"present\""
        } ]
      } ]
    }
  }, {
    "fullUrl": "urn:uuid:a4d8ce57-9568-4cb6-a490-3171e27da4ce",
    "resource": {
      "resourceType": "Questionnaire",
      "id": "a4d8ce57-9568-4cb6-a490-3171e27da4ce",
      "identifier": [ {
        "value": "1193164"
      } ],
      "version": "2020-10-30T09:45:23.026Z",
      "status": "active",
      "experimental": false,
      "date": "2020-10-30T09:45:23+00:00",
      "publisher": "User ID: 'HOLDENR' User name: 'Rachael Holden' User skill set: 'T3'",
      "lastReviewDate": "2020-10-30",
      "subjectType": [ "Patient" ],
      "item": [ {
        "linkId": "1193164",
        "prefix": "200",
        "text": "STRING:to'Immediatethreatstolife(SPA/OOHversion)'-'Majorbloodloss'stem",
        "type": "choice",
        "required": true,
        "repeats": false,
        "option": [ {
          "valueString": "\"present\", Selected: true"
        } ]
      } ]
    }
  }, {
    "fullUrl": "urn:uuid:98ecef5d-b467-40b0-97ee-c7a33e07bc86",
    "resource": {
      "resourceType": "QuestionnaireResponse",
      "id": "98ecef5d-b467-40b0-97ee-c7a33e07bc86",
      "identifier": {
        "value": "1193164"
      },
      "questionnaire": {
        "reference": "urn:uuid:f188ae26-a794-4505-b260-aff4cb50093a"
      },
      "status": "completed",
      "subject": {
        "reference": "urn:uuid:5e1ee836-9154-477d-b53d-cb5b31356355"
      },
      "context": {
        "reference": "urn:uuid:ba9e0c41-83e1-4cd5-bc95-4d566065b595"
      },
      "authored": "2020-10-30T09:45:23+00:00"
    }
  }, {
    "fullUrl": "urn:uuid:f188ae26-a794-4505-b260-aff4cb50093a",
    "resource": {
      "resourceType": "Questionnaire",
      "id": "f188ae26-a794-4505-b260-aff4cb50093a",
      "identifier": [ {
        "value": "1193164"
      } ],
      "version": "2020-10-30T09:45:23.026Z",
      "status": "active",
      "experimental": false,
      "date": "2020-10-30T09:45:23+00:00",
      "publisher": "User ID: 'HOLDENR' User name: 'Rachael Holden' User skill set: 'T3'",
      "lastReviewDate": "2020-10-30",
      "subjectType": [ "Patient" ]
    }
  }, {
    "fullUrl": "urn:uuid:fab08424-a168-4bad-8f31-2b0c0581e15c",
    "resource": {
      "resourceType": "QuestionnaireResponse",
      "id": "fab08424-a168-4bad-8f31-2b0c0581e15c",
      "identifier": {
        "value": "1193164"
      },
      "questionnaire": {
        "reference": "urn:uuid:3422d380-620c-42d5-b9f1-dc91dec03442"
      },
      "status": "completed",
      "subject": {
        "reference": "urn:uuid:5e1ee836-9154-477d-b53d-cb5b31356355"
      },
      "context": {
        "reference": "urn:uuid:ba9e0c41-83e1-4cd5-bc95-4d566065b595"
      },
      "authored": "2020-10-30T09:45:23+00:00",
      "item": [ {
        "linkId": "Tx221799",
        "text": "STRING:injury,illnessorlabourestablishedinEntryFlow",
        "answer": [ {
          "valueString": "\"present\""
        } ]
      } ]
    }
  }, {
    "fullUrl": "urn:uuid:3422d380-620c-42d5-b9f1-dc91dec03442",
    "resource": {
      "resourceType": "Questionnaire",
      "id": "3422d380-620c-42d5-b9f1-dc91dec03442",
      "identifier": [ {
        "value": "1193164"
      } ],
      "version": "2020-10-30T09:45:23.026Z",
      "status": "active",
      "experimental": false,
      "date": "2020-10-30T09:45:23+00:00",
      "publisher": "User ID: 'HOLDENR' User name: 'Rachael Holden' User skill set: 'T3'",
      "lastReviewDate": "2020-10-30",
      "subjectType": [ "Patient" ],
      "item": [ {
        "linkId": "1193164",
        "prefix": "0",
        "text": "STRING:injury,illnessorlabourestablishedinEntryFlow",
        "type": "choice",
        "required": true,
        "repeats": false,
        "option": [ {
          "valueString": "\"present\", Selected: true"
        } ]
      } ]
    }
  }, {
    "fullUrl": "urn:uuid:af17581d-3128-460b-aa42-dbd3daf42fca",
    "resource": {
      "resourceType": "QuestionnaireResponse",
      "id": "af17581d-3128-460b-aa42-dbd3daf42fca",
      "identifier": {
        "value": "1193164"
      },
      "questionnaire": {
        "reference": "urn:uuid:ca5101f5-b726-4784-b8ac-ade20d85020b"
      },
      "status": "completed",
      "subject": {
        "reference": "urn:uuid:5e1ee836-9154-477d-b53d-cb5b31356355"
      },
      "context": {
        "reference": "urn:uuid:ba9e0c41-83e1-4cd5-bc95-4d566065b595"
      },
      "authored": "2020-10-30T09:45:23+00:00",
      "item": [ {
        "linkId": "Tx224120",
        "text": "Have you been bleeding RED BLOOD very heavily IN THE LAST 2 HOURS?",
        "answer": [ {
          "valueString": "no"
        } ]
      } ]
    }
  }, {
    "fullUrl": "urn:uuid:ca5101f5-b726-4784-b8ac-ade20d85020b",
    "resource": {
      "resourceType": "Questionnaire",
      "id": "ca5101f5-b726-4784-b8ac-ade20d85020b",
      "identifier": [ {
        "value": "1193164"
      } ],
      "version": "2020-10-30T09:45:23.026Z",
      "status": "active",
      "experimental": false,
      "date": "2020-10-30T09:45:23+00:00",
      "publisher": "User ID: 'HOLDENR' User name: 'Rachael Holden' User skill set: 'T3'",
      "lastReviewDate": "2020-10-30",
      "subjectType": [ "Patient" ],
      "item": [ {
        "linkId": "1193164",
        "prefix": "10100",
        "text": "Have you been bleeding RED BLOOD very heavily IN THE LAST 2 HOURS?",
        "type": "choice",
        "required": true,
        "repeats": false,
        "option": [ {
          "valueString": "yes, Selected: false"
        }, {
          "valueString": "not sure, Selected: false"
        }, {
          "valueString": "no, Selected: true"
        } ]
      } ]
    }
  }, {
    "fullUrl": "urn:uuid:bcfcd9ca-7676-45ec-9603-2fee8a1b6b25",
    "resource": {
      "resourceType": "QuestionnaireResponse",
      "id": "bcfcd9ca-7676-45ec-9603-2fee8a1b6b25",
      "identifier": {
        "value": "1193164"
      },
      "questionnaire": {
        "reference": "urn:uuid:78eb5961-2a3e-4e8a-9d86-7459ae5d561b"
      },
      "status": "completed",
      "subject": {
        "reference": "urn:uuid:5e1ee836-9154-477d-b53d-cb5b31356355"
      },
      "context": {
        "reference": "urn:uuid:ba9e0c41-83e1-4cd5-bc95-4d566065b595"
      },
      "authored": "2020-10-30T09:45:23+00:00",
      "item": [ {
        "linkId": "Tx221343",
        "text": "SocialConcernsExcluded",
        "answer": [ {
          "valueString": "==\"present\""
        } ]
      } ]
    }
  }, {
    "fullUrl": "urn:uuid:78eb5961-2a3e-4e8a-9d86-7459ae5d561b",
    "resource": {
      "resourceType": "Questionnaire",
      "id": "78eb5961-2a3e-4e8a-9d86-7459ae5d561b",
      "identifier": [ {
        "value": "1193164"
      } ],
      "version": "2020-10-30T09:45:23.026Z",
      "status": "active",
      "experimental": false,
      "date": "2020-10-30T09:45:23+00:00",
      "publisher": "User ID: 'HOLDENR' User name: 'Rachael Holden' User skill set: 'T3'",
      "lastReviewDate": "2020-10-30",
      "subjectType": [ "Patient" ],
      "item": [ {
        "linkId": "1193164",
        "prefix": "1100",
        "text": "SocialConcernsExcluded",
        "type": "choice",
        "required": true,
        "repeats": false,
        "option": [ {
          "valueString": "==\"present\", Selected: true"
        }, {
          "valueString": "*, Selected: false"
        } ]
      } ]
    }
  }, {
    "fullUrl": "urn:uuid:fc98c6c8-5833-44f9-9fea-04e4edcb17ce",
    "resource": {
      "resourceType": "QuestionnaireResponse",
      "id": "fc98c6c8-5833-44f9-9fea-04e4edcb17ce",
      "identifier": {
        "value": "1193164"
      },
      "questionnaire": {
        "reference": "urn:uuid:6ed36846-44e0-478d-ab4a-b8698b6d1b30"
      },
      "status": "completed",
      "subject": {
        "reference": "urn:uuid:5e1ee836-9154-477d-b53d-cb5b31356355"
      },
      "context": {
        "reference": "urn:uuid:ba9e0c41-83e1-4cd5-bc95-4d566065b595"
      },
      "authored": "2020-10-30T09:45:23+00:00",
      "item": [ {
        "linkId": "Tx130011",
        "text": "What is the main problem?",
        "answer": [ {
          "valueString": "injury (specify)"
        } ]
      } ]
    }
  }, {
    "fullUrl": "urn:uuid:6ed36846-44e0-478d-ab4a-b8698b6d1b30",
    "resource": {
      "resourceType": "Questionnaire",
      "id": "6ed36846-44e0-478d-ab4a-b8698b6d1b30",
      "identifier": [ {
        "value": "1193164"
      } ],
      "version": "2020-10-30T09:45:23.026Z",
      "status": "active",
      "experimental": false,
      "date": "2020-10-30T09:45:23+00:00",
      "publisher": "User ID: 'HOLDENR' User name: 'Rachael Holden' User skill set: 'T3'",
      "lastReviewDate": "2020-10-30",
      "subjectType": [ "Patient" ],
      "item": [ {
        "linkId": "1193164",
        "prefix": "2300",
        "text": "What is the main problem?",
        "type": "choice",
        "required": true,
        "repeats": false,
        "option": [ {
          "valueString": "the individual has been told to follow a particular course of action (specify), Selected: false"
        }, {
          "valueString": "the individual is an identified frequent caller, Selected: false"
        }, {
          "valueString": "injury (specify), Selected: true"
        }, {
          "valueString": "illness or other health problem (specify), Selected: false"
        }, {
          "valueString": "child protection/vulnerable adult concern, Selected: false"
        }, {
          "valueString": "social or domestic emergency, Selected: false"
        }, {
          "valueString": "the environment potentially poses an immediate threat to life (specify), Selected: false"
        } ]
      } ]
    }
  }, {
    "fullUrl": "urn:uuid:1286de04-a8b4-4ba7-855e-66f01ef0ef2e",
    "resource": {
      "resourceType": "QuestionnaireResponse",
      "id": "1286de04-a8b4-4ba7-855e-66f01ef0ef2e",
      "identifier": {
        "value": "1193164"
      },
      "questionnaire": {
        "reference": "urn:uuid:fc5a05fc-71dd-4665-833b-23ab79621b8e"
      },
      "status": "completed",
      "subject": {
        "reference": "urn:uuid:5e1ee836-9154-477d-b53d-cb5b31356355"
      },
      "context": {
        "reference": "urn:uuid:ba9e0c41-83e1-4cd5-bc95-4d566065b595"
      },
      "authored": "2020-10-30T09:45:23+00:00",
      "item": [ {
        "linkId": "Tx224119",
        "text": "FROM WHAT YOU HAVE HEARD IS THIS A MINOR INJURY?",
        "answer": [ {
          "valueString": "yes - a minor bite or sting (specify)"
        } ]
      } ]
    }
  }, {
    "fullUrl": "urn:uuid:fc5a05fc-71dd-4665-833b-23ab79621b8e",
    "resource": {
      "resourceType": "Questionnaire",
      "id": "fc5a05fc-71dd-4665-833b-23ab79621b8e",
      "identifier": [ {
        "value": "1193164"
      } ],
      "version": "2020-10-30T09:45:23.026Z",
      "status": "active",
      "experimental": false,
      "date": "2020-10-30T09:45:23+00:00",
      "publisher": "User ID: 'HOLDENR' User name: 'Rachael Holden' User skill set: 'T3'",
      "lastReviewDate": "2020-10-30",
      "subjectType": [ "Patient" ],
      "item": [ {
        "linkId": "1193164",
        "prefix": "15000",
        "text": "FROM WHAT YOU HAVE HEARD IS THIS A MINOR INJURY?",
        "type": "choice",
        "required": true,
        "repeats": false,
        "option": [ {
          "valueString": "yes - a minor bite or sting (specify), Selected: true"
        }, {
          "valueString": "yes - a scratch, graze or minor wound, Selected: false"
        }, {
          "valueString": "yes - skin minor foreign body or skin glued, Selected: false"
        }, {
          "valueString": "yes - trauma blisters, Selected: false"
        }, {
          "valueString": "yes - a single finger or toe injury, Selected: false"
        }, {
          "valueString": "not sure, Selected: false"
        }, {
          "valueString": "no, Selected: false"
        } ]
      } ]
    }
  }, {
    "fullUrl": "urn:uuid:970c5c15-faac-4591-82ae-a077048116be",
    "resource": {
      "resourceType": "QuestionnaireResponse",
      "id": "970c5c15-faac-4591-82ae-a077048116be",
      "identifier": {
        "value": "1193164"
      },
      "questionnaire": {
        "reference": "urn:uuid:85eba1b7-5c43-4655-863d-9ca2bab11971"
      },
      "status": "completed",
      "subject": {
        "reference": "urn:uuid:5e1ee836-9154-477d-b53d-cb5b31356355"
      },
      "context": {
        "reference": "urn:uuid:ba9e0c41-83e1-4cd5-bc95-4d566065b595"
      },
      "authored": "2020-10-30T09:45:23+00:00",
      "item": [ {
        "linkId": "Tx225125",
        "text": "SYSTEM_INJURYMODULE",
        "answer": [ {
          "valueString": "==\"injurymodule\""
        } ]
      } ]
    }
  }, {
    "fullUrl": "urn:uuid:85eba1b7-5c43-4655-863d-9ca2bab11971",
    "resource": {
      "resourceType": "Questionnaire",
      "id": "85eba1b7-5c43-4655-863d-9ca2bab11971",
      "identifier": [ {
        "value": "1193164"
      } ],
      "version": "2020-10-30T09:45:23.026Z",
      "status": "active",
      "experimental": false,
      "date": "2020-10-30T09:45:23+00:00",
      "publisher": "User ID: 'HOLDENR' User name: 'Rachael Holden' User skill set: 'T3'",
      "lastReviewDate": "2020-10-30",
      "subjectType": [ "Patient" ],
      "item": [ {
        "linkId": "1193164",
        "prefix": "23700",
        "text": "SYSTEM_INJURYMODULE",
        "type": "choice",
        "required": true,
        "repeats": false,
        "option": [ {
          "valueString": "==\"injurymodule\", Selected: true"
        }, {
          "valueString": "*, Selected: false"
        } ]
      } ]
    }
  }, {
    "fullUrl": "urn:uuid:56aa38a9-c311-4acb-ba13-800623fa88f5",
    "resource": {
      "resourceType": "QuestionnaireResponse",
      "id": "56aa38a9-c311-4acb-ba13-800623fa88f5",
      "identifier": {
        "value": "1193164"
      },
      "questionnaire": {
        "reference": "urn:uuid:4b24fea2-3d3d-40ed-a7bd-210b9b0dcd8f"
      },
      "status": "completed",
      "subject": {
        "reference": "urn:uuid:5e1ee836-9154-477d-b53d-cb5b31356355"
      },
      "context": {
        "reference": "urn:uuid:ba9e0c41-83e1-4cd5-bc95-4d566065b595"
      },
      "authored": "2020-10-30T09:45:23+00:00"
    }
  }, {
    "fullUrl": "urn:uuid:4b24fea2-3d3d-40ed-a7bd-210b9b0dcd8f",
    "resource": {
      "resourceType": "Questionnaire",
      "id": "4b24fea2-3d3d-40ed-a7bd-210b9b0dcd8f",
      "identifier": [ {
        "value": "1193164"
      } ],
      "version": "2020-10-30T09:45:23.026Z",
      "status": "active",
      "experimental": false,
      "date": "2020-10-30T09:45:23+00:00",
      "publisher": "User ID: 'HOLDENR' User name: 'Rachael Holden' User skill set: 'T3'",
      "lastReviewDate": "2020-10-30",
      "subjectType": [ "Patient" ]
    }
  }, {
    "fullUrl": "urn:uuid:420f3408-f6ea-46f0-95f9-b1e128afae57",
    "resource": {
      "resourceType": "QuestionnaireResponse",
      "id": "420f3408-f6ea-46f0-95f9-b1e128afae57",
      "identifier": {
        "value": "1193164"
      },
      "questionnaire": {
        "reference": "urn:uuid:4760bde7-c91a-4f55-ad66-9cc9bf87222d"
      },
      "status": "completed",
      "subject": {
        "reference": "urn:uuid:5e1ee836-9154-477d-b53d-cb5b31356355"
      },
      "context": {
        "reference": "urn:uuid:ba9e0c41-83e1-4cd5-bc95-4d566065b595"
      },
      "authored": "2020-10-30T09:45:23+00:00",
      "item": [ {
        "linkId": "Tx3529",
        "text": "WHAT WAS THE CAUSE?",
        "answer": [ {
          "valueString": "an insect or spider (specify if known)"
        } ]
      } ]
    }
  }, {
    "fullUrl": "urn:uuid:4760bde7-c91a-4f55-ad66-9cc9bf87222d",
    "resource": {
      "resourceType": "Questionnaire",
      "id": "4760bde7-c91a-4f55-ad66-9cc9bf87222d",
      "identifier": [ {
        "value": "1193164"
      } ],
      "version": "2020-10-30T09:45:23.026Z",
      "status": "active",
      "experimental": false,
      "date": "2020-10-30T09:45:23+00:00",
      "publisher": "User ID: 'HOLDENR' User name: 'Rachael Holden' User skill set: 'T3'",
      "lastReviewDate": "2020-10-30",
      "subjectType": [ "Patient" ],
      "item": [ {
        "linkId": "1193164",
        "prefix": "0",
        "text": "WHAT WAS THE CAUSE?",
        "type": "choice",
        "required": true,
        "repeats": false,
        "option": [ {
          "valueString": "a person, Selected: false"
        }, {
          "valueString": "an animal (specify if known), Selected: false"
        }, {
          "valueString": "a snake (specify if known), Selected: false"
        }, {
          "valueString": "an insect or spider (specify if known), Selected: true"
        }, {
          "valueString": "stung by a water creature (specify if known), Selected: false"
        }, {
          "valueString": "bitten by a water creature (specify if known), Selected: false"
        }, {
          "valueString": "not sure, Selected: false"
        } ]
      } ]
    }
  }, {
    "fullUrl": "urn:uuid:66c2d1f1-ccef-4a50-a41c-c285cbc1ef50",
    "resource": {
      "resourceType": "QuestionnaireResponse",
      "id": "66c2d1f1-ccef-4a50-a41c-c285cbc1ef50",
      "identifier": {
        "value": "1193164"
      },
      "questionnaire": {
        "reference": "urn:uuid:d24bdcac-a8f1-4a6f-9a22-1b23e7f7e5a5"
      },
      "status": "completed",
      "subject": {
        "reference": "urn:uuid:5e1ee836-9154-477d-b53d-cb5b31356355"
      },
      "context": {
        "reference": "urn:uuid:ba9e0c41-83e1-4cd5-bc95-4d566065b595"
      },
      "authored": "2020-10-30T09:45:23+00:00"
    }
  }, {
    "fullUrl": "urn:uuid:d24bdcac-a8f1-4a6f-9a22-1b23e7f7e5a5",
    "resource": {
      "resourceType": "Questionnaire",
      "id": "d24bdcac-a8f1-4a6f-9a22-1b23e7f7e5a5",
      "identifier": [ {
        "value": "1193164"
      } ],
      "version": "2020-10-30T09:45:23.026Z",
      "status": "active",
      "experimental": false,
      "date": "2020-10-30T09:45:23+00:00",
      "publisher": "User ID: 'HOLDENR' User name: 'Rachael Holden' User skill set: 'T3'",
      "lastReviewDate": "2020-10-30",
      "subjectType": [ "Patient" ]
    }
  }, {
    "fullUrl": "urn:uuid:60761f54-6d93-4498-be22-42caeea03d54",
    "resource": {
      "resourceType": "QuestionnaireResponse",
      "id": "60761f54-6d93-4498-be22-42caeea03d54",
      "identifier": {
        "value": "1193164"
      },
      "questionnaire": {
        "reference": "urn:uuid:411d17e4-2500-43e7-b9e1-2a79aeef6ce6"
      },
      "status": "completed",
      "subject": {
        "reference": "urn:uuid:5e1ee836-9154-477d-b53d-cb5b31356355"
      },
      "context": {
        "reference": "urn:uuid:ba9e0c41-83e1-4cd5-bc95-4d566065b595"
      },
      "authored": "2020-10-30T09:45:23+00:00",
      "item": [ {
        "linkId": "Tx220302",
        "text": "Did it happen WITHIN THE LAST 6 HOURS?",
        "answer": [ {
          "valueString": "no"
        } ]
      } ]
    }
  }, {
    "fullUrl": "urn:uuid:411d17e4-2500-43e7-b9e1-2a79aeef6ce6",
    "resource": {
      "resourceType": "Questionnaire",
      "id": "411d17e4-2500-43e7-b9e1-2a79aeef6ce6",
      "identifier": [ {
        "value": "1193164"
      } ],
      "version": "2020-10-30T09:45:23.026Z",
      "status": "active",
      "experimental": false,
      "date": "2020-10-30T09:45:23+00:00",
      "publisher": "User ID: 'HOLDENR' User name: 'Rachael Holden' User skill set: 'T3'",
      "lastReviewDate": "2020-10-30",
      "subjectType": [ "Patient" ],
      "item": [ {
        "linkId": "1193164",
        "prefix": "0",
        "text": "Did it happen WITHIN THE LAST 6 HOURS?",
        "type": "choice",
        "required": true,
        "repeats": false,
        "option": [ {
          "valueString": "yes, Selected: false"
        }, {
          "valueString": "not sure, Selected: false"
        }, {
          "valueString": "no, Selected: true"
        } ]
      } ]
    }
  }, {
    "fullUrl": "urn:uuid:49b544b7-2923-4652-bd72-19a0dca6a298",
    "resource": {
      "resourceType": "QuestionnaireResponse",
      "id": "49b544b7-2923-4652-bd72-19a0dca6a298",
      "identifier": {
        "value": "1193164"
      },
      "questionnaire": {
        "reference": "urn:uuid:94c4ffee-f844-4cea-b5e7-51a31dd043f8"
      },
      "status": "completed",
      "subject": {
        "reference": "urn:uuid:5e1ee836-9154-477d-b53d-cb5b31356355"
      },
      "context": {
        "reference": "urn:uuid:ba9e0c41-83e1-4cd5-bc95-4d566065b595"
      },
      "authored": "2020-10-30T09:45:23+00:00",
      "item": [ {
        "linkId": "Tx3543",
        "text": "Have you been stung 10 or more times?",
        "answer": [ {
          "valueString": "no"
        } ]
      } ]
    }
  }, {
    "fullUrl": "urn:uuid:94c4ffee-f844-4cea-b5e7-51a31dd043f8",
    "resource": {
      "resourceType": "Questionnaire",
      "id": "94c4ffee-f844-4cea-b5e7-51a31dd043f8",
      "identifier": [ {
        "value": "1193164"
      } ],
      "version": "2020-10-30T09:45:23.026Z",
      "status": "active",
      "experimental": false,
      "date": "2020-10-30T09:45:23+00:00",
      "publisher": "User ID: 'HOLDENR' User name: 'Rachael Holden' User skill set: 'T3'",
      "lastReviewDate": "2020-10-30",
      "subjectType": [ "Patient" ],
      "item": [ {
        "linkId": "1193164",
        "prefix": "2900",
        "text": "Have you been stung 10 or more times?",
        "type": "choice",
        "required": true,
        "repeats": false,
        "option": [ {
          "valueString": "yes, Selected: false"
        }, {
          "valueString": "not sure, Selected: false"
        }, {
          "valueString": "no, Selected: true"
        } ]
      } ]
    }
  }, {
    "fullUrl": "urn:uuid:42139c37-e2c8-486a-b8af-4a2438471a6d",
    "resource": {
      "resourceType": "QuestionnaireResponse",
      "id": "42139c37-e2c8-486a-b8af-4a2438471a6d",
      "identifier": {
        "value": "1193164"
      },
      "questionnaire": {
        "reference": "urn:uuid:2563b1e6-93f7-4083-9fcd-9934613a761c"
      },
      "status": "completed",
      "subject": {
        "reference": "urn:uuid:5e1ee836-9154-477d-b53d-cb5b31356355"
      },
      "context": {
        "reference": "urn:uuid:ba9e0c41-83e1-4cd5-bc95-4d566065b595"
      },
      "authored": "2020-10-30T09:45:23+00:00",
      "item": [ {
        "linkId": "Tx3557",
        "text": "Have you got nausea or vomiting now?",
        "answer": [ {
          "valueString": "no"
        } ]
      } ]
    }
  }, {
    "fullUrl": "urn:uuid:2563b1e6-93f7-4083-9fcd-9934613a761c",
    "resource": {
      "resourceType": "Questionnaire",
      "id": "2563b1e6-93f7-4083-9fcd-9934613a761c",
      "identifier": [ {
        "value": "1193164"
      } ],
      "version": "2020-10-30T09:45:23.026Z",
      "status": "active",
      "experimental": false,
      "date": "2020-10-30T09:45:23+00:00",
      "publisher": "User ID: 'HOLDENR' User name: 'Rachael Holden' User skill set: 'T3'",
      "lastReviewDate": "2020-10-30",
      "subjectType": [ "Patient" ],
      "item": [ {
        "linkId": "1193164",
        "prefix": "3000",
        "text": "Have you got nausea or vomiting now?",
        "type": "choice",
        "required": true,
        "repeats": false,
        "option": [ {
          "valueString": "yes, Selected: false"
        }, {
          "valueString": "not sure, Selected: false"
        }, {
          "valueString": "no, Selected: true"
        } ]
      } ]
    }
  }, {
    "fullUrl": "urn:uuid:c3b04b6e-c7bd-4268-ba47-8b8adc4f15ff",
    "resource": {
      "resourceType": "QuestionnaireResponse",
      "id": "c3b04b6e-c7bd-4268-ba47-8b8adc4f15ff",
      "identifier": {
        "value": "1193164"
      },
      "questionnaire": {
        "reference": "urn:uuid:1e687e42-8f29-41ef-a097-111bd82fbaa1"
      },
      "status": "completed",
      "subject": {
        "reference": "urn:uuid:5e1ee836-9154-477d-b53d-cb5b31356355"
      },
      "context": {
        "reference": "urn:uuid:ba9e0c41-83e1-4cd5-bc95-4d566065b595"
      },
      "authored": "2020-10-30T09:45:23+00:00",
      "item": [ {
        "linkId": "Tx3561",
        "text": "Have you been bitten or stung in any of these areas?",
        "answer": [ {
          "valueString": "no"
        } ]
      } ]
    }
  }, {
    "fullUrl": "urn:uuid:1e687e42-8f29-41ef-a097-111bd82fbaa1",
    "resource": {
      "resourceType": "Questionnaire",
      "id": "1e687e42-8f29-41ef-a097-111bd82fbaa1",
      "identifier": [ {
        "value": "1193164"
      } ],
      "version": "2020-10-30T09:45:23.026Z",
      "status": "active",
      "experimental": false,
      "date": "2020-10-30T09:45:23+00:00",
      "publisher": "User ID: 'HOLDENR' User name: 'Rachael Holden' User skill set: 'T3'",
      "lastReviewDate": "2020-10-30",
      "subjectType": [ "Patient" ],
      "item": [ {
        "linkId": "1193164",
        "prefix": "3900",
        "text": "Have you been bitten or stung in any of these areas?",
        "type": "choice",
        "required": true,
        "repeats": false,
        "option": [ {
          "valueString": "the eyeball, Selected: false"
        }, {
          "valueString": "inside the mouth or on the lips, Selected: false"
        }, {
          "valueString": "limb, Selected: false"
        }, {
          "valueString": "not sure, Selected: false"
        }, {
          "valueString": "no, Selected: true"
        } ]
      } ]
    }
  }, {
    "fullUrl": "urn:uuid:94f35f56-97b5-4c21-950f-4a8e6a1360b5",
    "resource": {
      "resourceType": "QuestionnaireResponse",
      "id": "94f35f56-97b5-4c21-950f-4a8e6a1360b5",
      "identifier": {
        "value": "1193164"
      },
      "questionnaire": {
        "reference": "urn:uuid:b5e964da-bbc6-45ad-8261-2998fd8928e7"
      },
      "status": "completed",
      "subject": {
        "reference": "urn:uuid:5e1ee836-9154-477d-b53d-cb5b31356355"
      },
      "context": {
        "reference": "urn:uuid:ba9e0c41-83e1-4cd5-bc95-4d566065b595"
      },
      "authored": "2020-10-30T09:45:23+00:00",
      "item": [ {
        "linkId": "Tx3544",
        "text": "Is the insect or part of the insect still attached to the skin?",
        "answer": [ {
          "valueString": "no"
        } ]
      } ]
    }
  }, {
    "fullUrl": "urn:uuid:b5e964da-bbc6-45ad-8261-2998fd8928e7",
    "resource": {
      "resourceType": "Questionnaire",
      "id": "b5e964da-bbc6-45ad-8261-2998fd8928e7",
      "identifier": [ {
        "value": "1193164"
      } ],
      "version": "2020-10-30T09:45:23.026Z",
      "status": "active",
      "experimental": false,
      "date": "2020-10-30T09:45:23+00:00",
      "publisher": "User ID: 'HOLDENR' User name: 'Rachael Holden' User skill set: 'T3'",
      "lastReviewDate": "2020-10-30",
      "subjectType": [ "Patient" ],
      "item": [ {
        "linkId": "1193164",
        "prefix": "9400",
        "text": "Is the insect or part of the insect still attached to the skin?",
        "type": "choice",
        "required": true,
        "repeats": false,
        "option": [ {
          "valueString": "yes, Selected: false"
        }, {
          "valueString": "not sure, Selected: false"
        }, {
          "valueString": "no, Selected: true"
        } ]
      } ]
    }
  }, {
    "fullUrl": "urn:uuid:af595a9f-6e31-44b0-ba84-0d64b46d72f0",
    "resource": {
      "resourceType": "QuestionnaireResponse",
      "id": "af595a9f-6e31-44b0-ba84-0d64b46d72f0",
      "identifier": {
        "value": "1193164"
      },
      "questionnaire": {
        "reference": "urn:uuid:3f0c9f66-05ad-4d0c-beab-973f0aa48a42"
      },
      "status": "completed",
      "subject": {
        "reference": "urn:uuid:5e1ee836-9154-477d-b53d-cb5b31356355"
      },
      "context": {
        "reference": "urn:uuid:ba9e0c41-83e1-4cd5-bc95-4d566065b595"
      },
      "authored": "2020-10-30T09:45:23+00:00",
      "item": [ {
        "linkId": "Tx1449",
        "text": "Have you got very severe pain deep inside the affected area?",
        "answer": [ {
          "valueString": "yes"
        } ]
      } ]
    }
  }, {
    "fullUrl": "urn:uuid:3f0c9f66-05ad-4d0c-beab-973f0aa48a42",
    "resource": {
      "resourceType": "Questionnaire",
      "id": "3f0c9f66-05ad-4d0c-beab-973f0aa48a42",
      "identifier": [ {
        "value": "1193164"
      } ],
      "version": "2020-10-30T09:45:23.026Z",
      "status": "active",
      "experimental": false,
      "date": "2020-10-30T09:45:23+00:00",
      "publisher": "User ID: 'HOLDENR' User name: 'Rachael Holden' User skill set: 'T3'",
      "lastReviewDate": "2020-10-30",
      "subjectType": [ "Patient" ],
      "item": [ {
        "linkId": "1193164",
        "prefix": "19700",
        "text": "Have you got very severe pain deep inside the affected area?",
        "type": "choice",
        "required": true,
        "repeats": false,
        "option": [ {
          "valueString": "yes, Selected: true"
        }, {
          "valueString": "not sure, Selected: false"
        }, {
          "valueString": "no, Selected: false"
        } ]
      } ]
    }
  }, {
    "fullUrl": "urn:uuid:47e32df6-2cb7-4d85-b008-6369a5cfd4b2",
    "resource": {
      "resourceType": "QuestionnaireResponse",
      "id": "47e32df6-2cb7-4d85-b008-6369a5cfd4b2",
      "identifier": {
        "value": "1193164"
      },
      "questionnaire": {
        "reference": "urn:uuid:8af984a5-ae41-4d07-9a20-a78fd52b0941"
      },
      "status": "completed",
      "subject": {
        "reference": "urn:uuid:5e1ee836-9154-477d-b53d-cb5b31356355"
      },
      "context": {
        "reference": "urn:uuid:ba9e0c41-83e1-4cd5-bc95-4d566065b595"
      },
      "authored": "2020-10-30T09:45:23+00:00",
      "item": [ {
        "linkId": "Tx221449",
        "text": "STRING:SDPCFullPrimaryCareassessmentandprescribingcapability",
        "answer": [ {
          "valueString": "\"PC full Primary Care assessment and prescribing capability\""
        } ]
      } ]
    }
  }, {
    "fullUrl": "urn:uuid:8af984a5-ae41-4d07-9a20-a78fd52b0941",
    "resource": {
      "resourceType": "Questionnaire",
      "id": "8af984a5-ae41-4d07-9a20-a78fd52b0941",
      "identifier": [ {
        "value": "1193164"
      } ],
      "version": "2020-10-30T09:45:23.026Z",
      "status": "active",
      "experimental": false,
      "date": "2020-10-30T09:45:23+00:00",
      "publisher": "User ID: 'HOLDENR' User name: 'Rachael Holden' User skill set: 'T3'",
      "lastReviewDate": "2020-10-30",
      "subjectType": [ "Patient" ],
      "item": [ {
        "linkId": "1193164",
        "prefix": "19900",
        "text": "STRING:SDPCFullPrimaryCareassessmentandprescribingcapability",
        "type": "choice",
        "required": true,
        "repeats": false,
        "option": [ {
          "valueString": "\"PC full Primary Care assessment and prescribing capability\", Selected: true"
        } ]
      } ]
    }
  }, {
    "fullUrl": "urn:uuid:72ef06f7-a1d2-4cd4-9a29-ec3347bda092",
    "resource": {
      "resourceType": "QuestionnaireResponse",
      "id": "72ef06f7-a1d2-4cd4-9a29-ec3347bda092",
      "identifier": {
        "value": "1193164"
      },
      "questionnaire": {
        "reference": "urn:uuid:96b12aec-ebb0-41f4-82e4-1d4271fde043"
      },
      "status": "completed",
      "subject": {
        "reference": "urn:uuid:5e1ee836-9154-477d-b53d-cb5b31356355"
      },
      "context": {
        "reference": "urn:uuid:ba9e0c41-83e1-4cd5-bc95-4d566065b595"
      },
      "authored": "2020-10-30T09:45:23+00:00"
    }
  }, {
    "fullUrl": "urn:uuid:96b12aec-ebb0-41f4-82e4-1d4271fde043",
    "resource": {
      "resourceType": "Questionnaire",
      "id": "96b12aec-ebb0-41f4-82e4-1d4271fde043",
      "identifier": [ {
        "value": "1193164"
      } ],
      "version": "2020-10-30T09:45:23.026Z",
      "status": "active",
      "experimental": false,
      "date": "2020-10-30T09:45:23+00:00",
      "publisher": "User ID: 'HOLDENR' User name: 'Rachael Holden' User skill set: 'T3'",
      "lastReviewDate": "2020-10-30",
      "subjectType": [ "Patient" ]
    }
  }, {
    "fullUrl": "urn:uuid:708756b8-0c07-4f61-9276-64d0f3297d53",
    "resource": {
      "resourceType": "QuestionnaireResponse",
      "id": "708756b8-0c07-4f61-9276-64d0f3297d53",
      "identifier": {
        "value": "1193164"
      },
      "questionnaire": {
        "reference": "urn:uuid:d8ba459d-ae0d-4f2b-8dfb-db57cff56001"
      },
      "status": "completed",
      "subject": {
        "reference": "urn:uuid:5e1ee836-9154-477d-b53d-cb5b31356355"
      },
      "context": {
        "reference": "urn:uuid:ba9e0c41-83e1-4cd5-bc95-4d566065b595"
      },
      "authored": "2020-10-30T09:45:23+00:00"
    }
  }, {
    "fullUrl": "urn:uuid:d8ba459d-ae0d-4f2b-8dfb-db57cff56001",
    "resource": {
      "resourceType": "Questionnaire",
      "id": "d8ba459d-ae0d-4f2b-8dfb-db57cff56001",
      "identifier": [ {
        "value": "1193164"
      } ],
      "version": "2020-10-30T09:45:23.026Z",
      "status": "active",
      "experimental": false,
      "date": "2020-10-30T09:45:23+00:00",
      "publisher": "User ID: 'HOLDENR' User name: 'Rachael Holden' User skill set: 'T3'",
      "lastReviewDate": "2020-10-30",
      "subjectType": [ "Patient" ]
    }
  }, {
    "fullUrl": "urn:uuid:6de1fc7d-5c3c-46dd-8a6e-52e2a8e8c35e",
    "resource": {
      "resourceType": "QuestionnaireResponse",
      "id": "6de1fc7d-5c3c-46dd-8a6e-52e2a8e8c35e",
      "identifier": {
        "value": "1193164"
      },
      "questionnaire": {
        "reference": "urn:uuid:795957d7-2400-427f-9827-73aca06b6767"
      },
      "status": "completed",
      "subject": {
        "reference": "urn:uuid:5e1ee836-9154-477d-b53d-cb5b31356355"
      },
      "context": {
        "reference": "urn:uuid:ba9e0c41-83e1-4cd5-bc95-4d566065b595"
      },
      "authored": "2020-10-30T09:45:23+00:00"
    }
  }, {
    "fullUrl": "urn:uuid:795957d7-2400-427f-9827-73aca06b6767",
    "resource": {
      "resourceType": "Questionnaire",
      "id": "795957d7-2400-427f-9827-73aca06b6767",
      "identifier": [ {
        "value": "1193164"
      } ],
      "version": "2020-10-30T09:45:23.026Z",
      "status": "active",
      "experimental": false,
      "date": "2020-10-30T09:45:23+00:00",
      "publisher": "User ID: 'HOLDENR' User name: 'Rachael Holden' User skill set: 'T3'",
      "lastReviewDate": "2020-10-30",
      "subjectType": [ "Patient" ]
    }
  }, {
    "fullUrl": "urn:uuid:c66114e6-b7dd-4055-b7f8-c1628be910ad",
    "resource": {
      "resourceType": "Observation",
      "id": "c66114e6-b7dd-4055-b7f8-c1628be910ad",
      "status": "final",
      "code": {
        "coding": [ {
          "system": "http://snomed.info/sct",
          "code": "33962009",
          "display": "Presenting complaint"
        } ]
      },
      "subject": {
        "reference": "urn:uuid:5e1ee836-9154-477d-b53d-cb5b31356355"
      },
      "context": {
        "reference": "urn:uuid:ba9e0c41-83e1-4cd5-bc95-4d566065b595"
      }
    }
  }, {
    "fullUrl": "urn:uuid:d89bb2eb-81e3-4948-bd90-58c25be9dd33",
    "resource": {
      "resourceType": "PractitionerRole",
      "id": "d89bb2eb-81e3-4948-bd90-58c25be9dd33",
      "practitioner": {
        "reference": "urn:uuid:7c392283-78f7-463d-af67-549b9535647f"
      },
      "organization": {
        "reference": "urn:uuid:16be99fd-d338-439f-ade3-4b0dd748b871"
      },
      "code": [ {
        "coding": [ {
          "system": "2.16.840.1.113883.2.1.3.2.4.17.339",
          "code": "DOCTOR",
          "display": "Doctor"
        } ]
      } ]
    }
  }, {
    "fullUrl": "urn:uuid:16be99fd-d338-439f-ade3-4b0dd748b871",
    "resource": {
      "resourceType": "Organization",
      "id": "16be99fd-d338-439f-ade3-4b0dd748b871",
      "identifier": [ {
        "value": "RYA06"
      } ],
      "name": "WMAS - Navigation Point Call Centre (West Midlands Single Instance)"
    }
  }, {
    "fullUrl": "urn:uuid:815915ed-aea8-4844-9f45-2980a480912d",
    "resource": {
      "resourceType": "PractitionerRole",
      "id": "815915ed-aea8-4844-9f45-2980a480912d",
      "practitioner": {
        "reference": "urn:uuid:5c22e241-50a4-4992-9447-7896670d29dc"
      },
      "organization": {
        "reference": "urn:uuid:1197109e-3ee9-4d9e-a406-67807864c71b"
      },
      "code": [ {
        "coding": [ {
          "system": "2.16.840.1.113883.2.1.3.2.4.17.196",
          "code": "R0010",
          "display": "Medical Director"
        } ]
      } ]
    }
  }, {
    "fullUrl": "urn:uuid:1197109e-3ee9-4d9e-a406-67807864c71b",
    "resource": {
      "resourceType": "Organization",
      "id": "1197109e-3ee9-4d9e-a406-67807864c71b",
      "identifier": [ {
        "value": "RYA06"
      } ],
      "name": "West Midlands Single Instance"
    }
  }, {
    "fullUrl": "urn:uuid:14dcca19-9886-4eff-8bd0-80d017d3bc9f",
    "resource": {
      "resourceType": "RelatedPerson",
      "id": "14dcca19-9886-4eff-8bd0-80d017d3bc9f",
      "patient": {
        "reference": "urn:uuid:5e1ee836-9154-477d-b53d-cb5b31356355"
      },
      "relationship": {
        "coding": [ {
          "system": "http://hl7.org/fhir/v2/0131",
          "code": "C",
          "display": "Emergency Contact"
        } ]
      },
      "telecom": [ {
        "system": "phone",
        "value": "tel:01204428013"
      } ]
    }
  }, {
    "fullUrl": "urn:uuid:16c28228-fe9a-4aa7-b2ff-30c66a530539",
    "resource": {
      "resourceType": "Device",
      "id": "16c28228-fe9a-4aa7-b2ff-30c66a530539",
      "model": "111 Adaptor",
      "version": "1.0.1"
    }
  }, {
    "fullUrl": "urn:uuid:49fb61e7-cb9c-47d5-ace2-b0a89b29f553",
    "resource": {
      "resourceType": "List",
      "id": "49fb61e7-cb9c-47d5-ace2-b0a89b29f553",
      "status": "current",
      "mode": "working",
      "title": "111 Report List",
      "code": {
        "coding": [ {
          "system": "http://snomed.info/sct",
          "code": "225390008",
          "display": "Triage"
        } ]
      },
      "subject": {
        "reference": "urn:uuid:5e1ee836-9154-477d-b53d-cb5b31356355"
      },
      "encounter": {
        "reference": "urn:uuid:ba9e0c41-83e1-4cd5-bc95-4d566065b595"
      },
      "date": "2025-10-30T09:45:22+00:00",
      "source": {
        "reference": "urn:uuid:16c28228-fe9a-4aa7-b2ff-30c66a530539"
      },
      "orderedBy": {
        "coding": [ {
          "system": "http://hl7.org/fhir/list-order",
          "code": "event-date",
          "display": "Sorted by Event Date"
        } ]
      },
      "entry": [ {
        "item": {
          "reference": "urn:uuid:7c392283-78f7-463d-af67-549b9535647f"
        }
      }, {
        "item": {
          "reference": "urn:uuid:c66114e6-b7dd-4055-b7f8-c1628be910ad"
        }
      }, {
        "item": {
          "reference": "urn:uuid:10313eb2-1d36-4db3-9762-f46b4eda9141"
        }
      }, {
        "item": {
          "reference": "urn:uuid:3b65b4fe-4f83-4da9-84eb-299f19a77363"
        }
      }, {
        "item": {
          "reference": "urn:uuid:c7ce7bd4-bb30-4da6-9bee-9963726c7f82"
        }
      }, {
        "item": {
          "reference": "urn:uuid:14dcca19-9886-4eff-8bd0-80d017d3bc9f"
        }
      }, {
        "item": {
          "reference": "urn:uuid:5c22e241-50a4-4992-9447-7896670d29dc"
        }
      }, {
        "item": {
          "reference": "urn:uuid:16be99fd-d338-439f-ade3-4b0dd748b871"
        }
      }, {
        "item": {
          "reference": "urn:uuid:31c76433-7567-4a4a-8bde-b6baf0c82a77"
        }
      }, {
        "item": {
          "reference": "urn:uuid:f57701fe-21ce-492a-b8e7-c887f9d256fe"
        }
      }, {
        "item": {
          "reference": "urn:uuid:1197109e-3ee9-4d9e-a406-67807864c71b"
        }
      }, {
        "item": {
          "reference": "urn:uuid:4b24fea2-3d3d-40ed-a7bd-210b9b0dcd8f"
        }
      }, {
        "item": {
          "reference": "urn:uuid:970c5c15-faac-4591-82ae-a077048116be"
        }
      }, {
        "item": {
          "reference": "urn:uuid:72ef06f7-a1d2-4cd4-9a29-ec3347bda092"
        }
      }, {
        "item": {
          "reference": "urn:uuid:708756b8-0c07-4f61-9276-64d0f3297d53"
        }
      }, {
        "item": {
          "reference": "urn:uuid:420f3408-f6ea-46f0-95f9-b1e128afae57"
        }
      }, {
        "item": {
          "reference": "urn:uuid:3422d380-620c-42d5-b9f1-dc91dec03442"
        }
      }, {
        "item": {
          "reference": "urn:uuid:53ece910-277c-43c1-a523-1a79c7e168d3"
        }
      }, {
        "item": {
          "reference": "urn:uuid:1e687e42-8f29-41ef-a097-111bd82fbaa1"
        }
      }, {
        "item": {
          "reference": "urn:uuid:2563b1e6-93f7-4083-9fcd-9934613a761c"
        }
      }, {
        "item": {
          "reference": "urn:uuid:60761f54-6d93-4498-be22-42caeea03d54"
        }
      }, {
        "item": {
          "reference": "urn:uuid:96b12aec-ebb0-41f4-82e4-1d4271fde043"
        }
      }, {
        "item": {
          "reference": "urn:uuid:b5e964da-bbc6-45ad-8261-2998fd8928e7"
        }
      }, {
        "item": {
          "reference": "urn:uuid:2d97eb67-28b1-4f9d-a7d1-423c1a7595f5"
        }
      }, {
        "item": {
          "reference": "urn:uuid:411d17e4-2500-43e7-b9e1-2a79aeef6ce6"
        }
      }, {
        "item": {
          "reference": "urn:uuid:78eb5961-2a3e-4e8a-9d86-7459ae5d561b"
        }
      }, {
        "item": {
          "reference": "urn:uuid:85eba1b7-5c43-4655-863d-9ca2bab11971"
        }
      }, {
        "item": {
          "reference": "urn:uuid:47e32df6-2cb7-4d85-b008-6369a5cfd4b2"
        }
      }, {
        "item": {
          "reference": "urn:uuid:56aa38a9-c311-4acb-ba13-800623fa88f5"
        }
      }, {
        "item": {
          "reference": "urn:uuid:66c2d1f1-ccef-4a50-a41c-c285cbc1ef50"
        }
      }, {
        "item": {
          "reference": "urn:uuid:98ecef5d-b467-40b0-97ee-c7a33e07bc86"
        }
      }, {
        "item": {
          "reference": "urn:uuid:88e1bc9a-52ee-4ced-bcb0-f80034ffc5a0"
        }
      }, {
        "item": {
          "reference": "urn:uuid:fab08424-a168-4bad-8f31-2b0c0581e15c"
        }
      }, {
        "item": {
          "reference": "urn:uuid:1286de04-a8b4-4ba7-855e-66f01ef0ef2e"
        }
      }, {
        "item": {
          "reference": "urn:uuid:94c4ffee-f844-4cea-b5e7-51a31dd043f8"
        }
      }, {
        "item": {
          "reference": "urn:uuid:fc98c6c8-5833-44f9-9fea-04e4edcb17ce"
        }
      }, {
        "item": {
          "reference": "urn:uuid:6ed36846-44e0-478d-ab4a-b8698b6d1b30"
        }
      }, {
        "item": {
          "reference": "urn:uuid:4760bde7-c91a-4f55-ad66-9cc9bf87222d"
        }
      }, {
        "item": {
          "reference": "urn:uuid:3f0c9f66-05ad-4d0c-beab-973f0aa48a42"
        }
      }, {
        "item": {
          "reference": "urn:uuid:8af984a5-ae41-4d07-9a20-a78fd52b0941"
        }
      }, {
        "item": {
          "reference": "urn:uuid:42139c37-e2c8-486a-b8af-4a2438471a6d"
        }
      }, {
        "item": {
          "reference": "urn:uuid:49b544b7-2923-4652-bd72-19a0dca6a298"
        }
      }, {
        "item": {
          "reference": "urn:uuid:d8ba459d-ae0d-4f2b-8dfb-db57cff56001"
        }
      }, {
        "item": {
          "reference": "urn:uuid:94f35f56-97b5-4c21-950f-4a8e6a1360b5"
        }
      }, {
        "item": {
          "reference": "urn:uuid:af17581d-3128-460b-aa42-dbd3daf42fca"
        }
      }, {
        "item": {
          "reference": "urn:uuid:af595a9f-6e31-44b0-ba84-0d64b46d72f0"
        }
      }, {
        "item": {
          "reference": "urn:uuid:f188ae26-a794-4505-b260-aff4cb50093a"
        }
      }, {
        "item": {
          "reference": "urn:uuid:c3b04b6e-c7bd-4268-ba47-8b8adc4f15ff"
        }
      }, {
        "item": {
          "reference": "urn:uuid:ca5101f5-b726-4784-b8ac-ade20d85020b"
        }
      }, {
        "item": {
          "reference": "urn:uuid:6de1fc7d-5c3c-46dd-8a6e-52e2a8e8c35e"
        }
      }, {
        "item": {
          "reference": "urn:uuid:a4d8ce57-9568-4cb6-a490-3171e27da4ce"
        }
      }, {
        "item": {
          "reference": "urn:uuid:bcfcd9ca-7676-45ec-9603-2fee8a1b6b25"
        }
      }, {
        "item": {
          "reference": "urn:uuid:795957d7-2400-427f-9827-73aca06b6767"
        }
      }, {
        "item": {
          "reference": "urn:uuid:d24bdcac-a8f1-4a6f-9a22-1b23e7f7e5a5"
        }
      }, {
        "item": {
          "reference": "urn:uuid:fc5a05fc-71dd-4665-833b-23ab79621b8e"
        }
      }, {
        "item": {
          "reference": "urn:uuid:d7f5f33e-84bc-42b3-9d6c-dffae9e645f5"
        }
      } ]
    }
  } ]
}