{
  "resourceType": "Bundle",
  "meta": {
    "lastUpdated": "2022-05-12T07:25:18.863+00:00"
  },
  "identifier": {
    "type": {
      "text": "ClinicalDocument VersionNumber"
    },
    "value": "1"
  },
  "type": "message",
  "entry": [ {
    "fullUrl": "urn:uuid:A12F527F-3808-44BC-9272-8C8A92884A37",
    "resource": {
      "resourceType": "MessageHeader",
      "id": "A12F527F-3808-44BC-9272-8C8A92884A37",
      "event": {
        "system": "https://fhir.nhs.uk/STU3/CodeSystem/EventType-1",
        "code": "referral-1",
        "display": "Referral"
      },
      "destination": [ {
        "endpoint": "urn:nhs-uk:addressing:ods:20000729:DOSServiceID:2000072936"
      } ],
      "timestamp": "2020-10-30T18:29:05.000+00:00",
      "source": {
        "name": "NHS 111 Adaptor",
        "endpoint": "http://localhost:8080/report"
      },
      "reason": {
        "coding": [ {
          "system": "urn:nhs-itk:ns:201005:interaction",
          "code": "urn:nhs-itk:interaction:primaryNHS111RepeatCallerDocumentSet-v1-0"
        } ]
      }
    }
  }, {
    "fullUrl": "urn:uuid:f759502c-a7dc-4e95-adda-84eb9487c1fb",
    "resource": {
      "resourceType": "Encounter",
      "id": "f759502c-a7dc-4e95-adda-84eb9487c1fb",
      "identifier": [ {
        "system": "2.16.840.1.113883.2.1.3.2.4.18.34",
        "value": "CF1F65AB-2392-4582-9E14-F0384358CB6A"
      }, {
        "system": "2.16.840.1.113883.2.1.3.2.4.18.35",
        "value": "7434927"
      } ],
      "status": "finished",
      "type": [ {
        "text": "111 Encounter Referral"
      } ],
      "subject": {
        "reference": "urn:uuid:12beff80-cc70-429b-8b2b-1c56193da419"
      },
      "participant": [ {
        "type": [ {
          "coding": [ {
            "system": "http://hl7.org/fhir/ValueSet/encounter-participant-type",
            "code": "PPRF",
            "display": "Author"
          } ]
        } ],
        "individual": {
          "reference": "urn:uuid:e724abf1-7cb7-4471-bc56-2c919c48c843"
        }
      }, {
        "type": [ {
          "coding": [ {
            "system": "http://hl7.org/fhir/ValueSet/encounter-participant-type",
            "code": "ATND",
            "display": "Responsible Party"
          } ]
        } ],
        "individual": {
          "reference": "urn:uuid:181fcf0e-583e-458f-9023-110408b7159c"
        }
      } ],
      "period": {
        "start": "2020-10-30T18:28:13+00:00",
        "end": "2020-10-30T18:28:58+00:00"
      },
      "location": [ {
        "location": {
          "reference": "urn:uuid:00b0b197-f1ab-4613-b3c1-c61be69481bc"
        },
        "status": "active"
      }, {
        "location": {
          "reference": "urn:uuid:d8f552df-2ce9-42d7-8bd6-02fbcf21f47f"
        },
        "status": "completed"
      } ],
      "serviceProvider": {
        "reference": "urn:uuid:118db5f5-ca59-46ff-92a1-0ea5ff2d8290"
      }
    }
  }, {
    "fullUrl": "urn:uuid:118db5f5-ca59-46ff-92a1-0ea5ff2d8290",
    "resource": {
      "resourceType": "Organization",
      "id": "118db5f5-ca59-46ff-92a1-0ea5ff2d8290",
      "active": true,
      "type": [ {
        "text": "CST"
      } ],
      "name": "Devon Doctors Group"
    }
  }, {
    "fullUrl": "urn:uuid:e724abf1-7cb7-4471-bc56-2c919c48c843",
    "resource": {
      "resourceType": "Practitioner",
      "id": "e724abf1-7cb7-4471-bc56-2c919c48c843",
      "active": true,
      "name": [ {
        "use": "official",
        "family": "Service Advisor",
        "given": [ "Dental" ]
      } ]
    }
  }, {
    "fullUrl": "urn:uuid:181fcf0e-583e-458f-9023-110408b7159c",
    "resource": {
      "resourceType": "Practitioner",
      "id": "181fcf0e-583e-458f-9023-110408b7159c",
      "active": true,
      "name": [ {
        "use": "official",
        "family": "Eggleton",
        "given": [ "Dr. Mark" ]
      } ]
    }
  }, {
    "fullUrl": "urn:uuid:00b0b197-f1ab-4613-b3c1-c61be69481bc",
    "resource": {
      "resourceType": "Location",
      "id": "00b0b197-f1ab-4613-b3c1-c61be69481bc",
      "managingOrganization": {
        "reference": "urn:uuid:55047c92-bf9a-433c-af66-0cf4f9587f94"
      }
    }
  }, {
    "fullUrl": "urn:uuid:55047c92-bf9a-433c-af66-0cf4f9587f94",
    "resource": {
      "resourceType": "Organization",
      "id": "55047c92-bf9a-433c-af66-0cf4f9587f94",
      "identifier": [ {
        "value": "J85990"
      } ],
      "type": [ {
        "text": "GP Practice"
      } ],
      "name": "Test Somerset"
    }
  }, {
    "fullUrl": "urn:uuid:d8f552df-2ce9-42d7-8bd6-02fbcf21f47f",
    "resource": {
      "resourceType": "Location",
      "id": "d8f552df-2ce9-42d7-8bd6-02fbcf21f47f",
      "name": "Incident Location",
      "address": {
        "type": "physical",
        "line": [ "NHS England", "Quarry House Quarry Hill", "Leeds", "West Yorkshire" ],
        "postalCode": "LS2 7UE"
      }
    }
  }, {
    "fullUrl": "urn:uuid:12beff80-cc70-429b-8b2b-1c56193da419",
    "resource": {
      "resourceType": "Patient",
      "id": "12beff80-cc70-429b-8b2b-1c56193da419",
      "identifier": [ {
        "extension": [ {
          "url": "https://fhir.hl7.org.uk/STU3/StructureDefinition/Extension-CareConnect-NHSNumberVerificationStatus-1",
          "valueCodeableConcept": {
            "coding": [ {
              "system": "https://fhir.hl7.org.uk/STU3/StructureDefinition/Extension-CareConnect-NHSNumberVerificationStatus-1",
              "code": "02"
            } ]
          }
        } ],
        "system": "https://fhir.nhs.uk/Id/nhs-number",
        "value": "9990238359"
      } ],
      "active": true,
      "name": [ {
        "use": "official",
        "family": "Xxtestpatientdzadn",
        "given": [ "Scrdonotuse" ]
      } ],
      "telecom": [ {
        "system": "phone",
        "value": "tel:01702123456",
        "use": "home"
      }, {
        "system": "phone",
        "value": "tel:01702123456"
      } ],
      "gender": "female",
      "birthDate": "1965-02-17",
      "address": [ {
        "use": "home",
        "line": [ "NHS England", "Quarry House Quarry Hill", "Leeds", "West Yorkshire" ],
        "postalCode": "LS2 7UE"
      } ],
      "generalPractitioner": [ {
        "reference": "urn:uuid:9d98f987-573c-4b97-98d6-b6742c41084a"
      } ]
    }
  }, {
    "fullUrl": "urn:uuid:9d98f987-573c-4b97-98d6-b6742c41084a",
    "resource": {
      "resourceType": "Organization",
      "id": "9d98f987-573c-4b97-98d6-b6742c41084a",
      "identifier": [ {
        "value": "J85990"
      } ],
      "type": [ {
        "text": "GP Practice"
      } ],
      "name": "Test Somerset"
    }
  }, {
    "fullUrl": "urn:uuid:17b8e994-9fb3-44b0-8f70-89e6a3e829c0",
    "resource": {
      "resourceType": "HealthcareService",
      "id": "17b8e994-9fb3-44b0-8f70-89e6a3e829c0",
      "active": true,
      "providedBy": {
        "reference": "urn:uuid:76ddd7e5-51a0-4b67-8e4c-a169e9c5ab4d"
      },
      "location": [ {
        "reference": "urn:uuid:e37d96aa-18e5-41db-8185-578a9255a76d"
      } ],
      "name": "**TESTING ONLY** DO NOT SEND PATIENTS - ED Test Service for EDDI"
    }
  }, {
    "fullUrl": "urn:uuid:e37d96aa-18e5-41db-8185-578a9255a76d",
    "resource": {
      "resourceType": "Location",
      "id": "e37d96aa-18e5-41db-8185-578a9255a76d",
      "managingOrganization": {
        "reference": "urn:uuid:76ddd7e5-51a0-4b67-8e4c-a169e9c5ab4d"
      }
    }
  }, {
    "fullUrl": "urn:uuid:76ddd7e5-51a0-4b67-8e4c-a169e9c5ab4d",
    "resource": {
      "resourceType": "Organization",
      "id": "76ddd7e5-51a0-4b67-8e4c-a169e9c5ab4d",
      "identifier": [ {
        "value": "20000729"
      } ],
      "type": [ {
        "coding": [ {
          "code": "PRCP",
          "display": "**TESTING ONLY** DO NOT SEND PATIENTS - ED Test Service for EDDI"
        } ]
      } ],
      "name": "**TESTING ONLY** DO NOT SEND PATIENTS - ED Test Service for EDDI"
    }
  }, {
    "fullUrl": "urn:uuid:d9f20ef2-5652-422a-86f7-3478f23fff1b",
    "resource": {
      "resourceType": "ReferralRequest",
      "id": "d9f20ef2-5652-422a-86f7-3478f23fff1b",
      "status": "active",
      "intent": "plan",
      "priority": "routine",
      "subject": {
        "reference": "urn:uuid:12beff80-cc70-429b-8b2b-1c56193da419"
      },
      "context": {
        "reference": "urn:uuid:f759502c-a7dc-4e95-adda-84eb9487c1fb"
      },
      "occurrencePeriod": {
        "start": "2020-10-30T18:29:05+00:00"
      },
      "authoredOn": "2020-10-30T18:28:58+00:00",
      "requester": {
        "agent": {
          "reference": "urn:uuid:908c727b-b16d-4c9c-a09a-59e681e20efe"
        },
        "onBehalfOf": {
          "reference": "urn:uuid:118db5f5-ca59-46ff-92a1-0ea5ff2d8290"
        }
      },
      "recipient": [ {
        "reference": "urn:uuid:17b8e994-9fb3-44b0-8f70-89e6a3e829c0"
      } ],
      "reasonReference": [ {
        "reference": "urn:uuid:123c0f1c-2017-439a-9622-70688683c28f"
      } ],
      "supportingInfo": [ {
        "reference": "urn:uuid:7adc707f-dc95-4596-acb3-363c64d5ac2b"
      } ]
    }
  }, {
    "fullUrl": "urn:uuid:7adc707f-dc95-4596-acb3-363c64d5ac2b",
    "resource": {
      "resourceType": "ProcedureRequest",
      "id": "7adc707f-dc95-4596-acb3-363c64d5ac2b",
      "status": "active",
      "intent": "plan",
      "priority": "routine",
      "doNotPerform": false,
      "code": {
        "coding": [ {
          "system": "2.16.840.1.113883.2.1.3.2.4.17.325",
          "code": "Dx02",
          "display": "Attend a Treatment Centre within 1 hour"
        } ]
      },
      "subject": {
        "reference": "urn:uuid:12beff80-cc70-429b-8b2b-1c56193da419"
      },
      "occurrencePeriod": {
        "start": "2020-10-30T18:29:05+00:00"
      },
      "reasonReference": [ {
        "reference": "urn:uuid:123c0f1c-2017-439a-9622-70688683c28f"
      } ]
    }
  }, {
    "fullUrl": "urn:uuid:34b4c4f4-72dd-48fb-a0e9-5c2b8045d17c",
    "resource": {
      "resourceType": "Composition",
      "id": "34b4c4f4-72dd-48fb-a0e9-5c2b8045d17c",
      "identifier": {
        "use": "usual",
        "value": "B53175B4-0A4A-4503-A6CD-94333AA01645"
      },
      "status": "final",
      "type": {
        "coding": [ {
          "system": "http://snomed.info/sct",
          "code": "371531000",
          "display": "Report of clinical encounter (record artifact)"
        } ]
      },
      "subject": {
        "reference": "urn:uuid:12beff80-cc70-429b-8b2b-1c56193da419"
      },
      "encounter": {
        "reference": "urn:uuid:f759502c-a7dc-4e95-adda-84eb9487c1fb"
      },
      "date": "2020-10-30T18:29:05+00:00",
      "author": [ {
        "reference": "urn:uuid:e724abf1-7cb7-4471-bc56-2c919c48c843"
      } ],
      "title": "111 Report",
      "confidentiality": "N",
      "section": [ {
        "section": [ {
          "title": "Patient's Reported Condition",
          "text": {
            "status": "generated",
            "div": "<div xmlns=\"http://www.w3.org/1999/xhtml\">TEST&lt;br/&gt;</div>"
          }
        }, {
          "title": "Pathways Disposition",
          "text": {
            "status": "generated",
            "div": "<div xmlns=\"http://www.w3.org/1999/xhtml\">Attend a Treatment Centre within 1 hour (Dx02)\n                                                    &lt;br/&gt;&lt;br/&gt;\n                                                    Selected service: **TESTING ONLY** DO NOT SEND PATIENTS - ED Test Se&lt;br/&gt;</div>"
          }
        }, {
          "title": "Consultation Summary",
          "text": {
            "status": "generated",
            "div": "<div xmlns=\"http://www.w3.org/1999/xhtml\">Illness&lt;br/&gt;Warm to touch&lt;br/&gt;Nose bleeding freely&lt;br/&gt;Nose bleeding despite first aid measures&lt;br/&gt;</div>"
          }
        }, {
          "title": "Pathways Assessment",
          "text": {
            "status": "generated",
            "div": "<div xmlns=\"http://www.w3.org/1999/xhtml\">An injury or health problem was the reason for the contact.&lt;br/&gt;Heavy bleeding had not occurred in the previous 2 hours.&lt;br/&gt;An illness or health problem was the main problem.&lt;br/&gt;User Comments: TEST&lt;br/&gt;The individual was not fighting for breath.&lt;br/&gt;The main reason for the assessment was not an allergic reaction, heart attack, chest/upper back pain, probable stroke, recent fit/seizure or suicide attempt.&lt;br/&gt;The main reason for contact was not new confusion, declared diabetic hypo/hyperglycaemia, or ICD shock.&lt;br/&gt;The skin on the torso felt normal, warm or hot.&lt;br/&gt;Pathway selected - Nosebleeds without Injury&lt;br/&gt;The individual was not feeling faint or dizzy.&lt;br/&gt;The nose was continuing to bleed.&lt;br/&gt;There was no nasal foreign body.&lt;br/&gt;Constant pressure had been applied to the soft part of the nose for at least 10 minutes.&lt;br/&gt;Instructions given were: The individual needs to attend a treatment centre within 1 hour.&lt;br/&gt;Directory of Services referral: **TESTING ONLY** DO NOT SEND PATIENTS - ED Test Service for EDDI&lt;br/&gt;Advice given:\n                                                    Worsening\n                                                    &lt;br/&gt;</div>"
          }
        }, {
          "title": "Advice Given",
          "text": {
            "status": "generated",
            "div": "<div xmlns=\"http://www.w3.org/1999/xhtml\">If there are any new symptoms, or if the condition gets worse, changes or you have any other concerns, call us back.&lt;br/&gt;&lt;br/&gt;</div>"
          }
        }, {
          "title": "Special Patient Notes",
          "text": {
            "status": "generated",
            "div": "<div xmlns=\"http://www.w3.org/1999/xhtml\">Special Notes from an external system were flagged as being present for this patient.</div>"
          }
        } ]
      }, {
        "title": "ReferralRequest",
        "entry": [ {
          "reference": "urn:uuid:d9f20ef2-5652-422a-86f7-3478f23fff1b"
        } ]
      }, {
        "title": "QuestionnaireResponse",
        "entry": [ {
          "reference": "urn:uuid:6171df1c-5fff-42ad-8968-31648d983474"
        } ]
      }, {
        "title": "QuestionnaireResponse",
        "entry": [ {
          "reference": "urn:uuid:155ca834-1094-4415-83c4-04589d0f0cda"
        } ]
      }, {
        "title": "QuestionnaireResponse",
        "entry": [ {
          "reference": "urn:uuid:46b74309-7abc-4270-bbf8-059f960fb8ec"
        } ]
      }, {
        "title": "QuestionnaireResponse",
        "entry": [ {
          "reference": "urn:uuid:5a20641a-3c69-48ea-92d5-4e2b4fedd453"
        } ]
      }, {
        "title": "QuestionnaireResponse",
        "entry": [ {
          "reference": "urn:uuid:a1dc4abe-152a-47b7-87d0-22647ba38a42"
        } ]
      }, {
        "title": "QuestionnaireResponse",
        "entry": [ {
          "reference": "urn:uuid:db306caf-6150-4ebe-8cce-d90e0e16834b"
        } ]
      }, {
        "title": "QuestionnaireResponse",
        "entry": [ {
          "reference": "urn:uuid:aa6a429d-2cfb-40d2-bf1a-578bda09e521"
        } ]
      }, {
        "title": "QuestionnaireResponse",
        "entry": [ {
          "reference": "urn:uuid:62f32bf2-658f-410b-857c-5f387eed6f8a"
        } ]
      }, {
        "title": "QuestionnaireResponse",
        "entry": [ {
          "reference": "urn:uuid:7440bd62-49fa-4a1b-a86e-3a85cfaba2c8"
        } ]
      }, {
        "title": "QuestionnaireResponse",
        "entry": [ {
          "reference": "urn:uuid:ae490f05-5aa7-4cc9-9276-04ab110d8c1b"
        } ]
      }, {
        "title": "QuestionnaireResponse",
        "entry": [ {
          "reference": "urn:uuid:bf075c26-d479-4d0c-8a34-029b42aa6a7c"
        } ]
      }, {
        "title": "QuestionnaireResponse",
        "entry": [ {
          "reference": "urn:uuid:818a76d2-967c-45a7-92e0-e7d51ed6459a"
        } ]
      }, {
        "title": "QuestionnaireResponse",
        "entry": [ {
          "reference": "urn:uuid:0bc31688-4479-4bd8-b2f3-d3870ad7ff02"
        } ]
      }, {
        "title": "QuestionnaireResponse",
        "entry": [ {
          "reference": "urn:uuid:62f69fa6-b097-4e6e-afbf-0c621414d6f5"
        } ]
      }, {
        "title": "QuestionnaireResponse",
        "entry": [ {
          "reference": "urn:uuid:c4e90a94-fddf-47a6-ae11-470ae3faa6fe"
        } ]
      }, {
        "title": "QuestionnaireResponse",
        "entry": [ {
          "reference": "urn:uuid:4c7d3bf1-933a-41ff-9cc7-b3ba8d14047f"
        } ]
      }, {
        "title": "QuestionnaireResponse",
        "entry": [ {
          "reference": "urn:uuid:e5c8689f-5ca3-4c46-86c0-59a1b480e3d1"
        } ]
      }, {
        "title": "QuestionnaireResponse",
        "entry": [ {
          "reference": "urn:uuid:3ba1d350-6800-4743-874a-9037e4f6fd6a"
        } ]
      }, {
        "title": "QuestionnaireResponse",
        "entry": [ {
          "reference": "urn:uuid:90e1cbf7-442d-469d-89e8-02df674b7609"
        } ]
      }, {
        "title": "QuestionnaireResponse",
        "entry": [ {
          "reference": "urn:uuid:c75a786b-0602-4e63-bde5-717473af37e0"
        } ]
      }, {
        "title": "QuestionnaireResponse",
        "entry": [ {
          "reference": "urn:uuid:f6014dfb-542a-47d7-8126-c62e9c917c34"
        } ]
      }, {
        "title": "QuestionnaireResponse",
        "entry": [ {
          "reference": "urn:uuid:2d15ef56-5342-461b-8a95-5af69c7bd33a"
        } ]
      }, {
        "title": "QuestionnaireResponse",
        "entry": [ {
          "reference": "urn:uuid:d86fb631-df20-4a09-b0df-e0586916e2c8"
        } ]
      } ]
    }
  }, {
    "fullUrl": "urn:uuid:d170d548-e222-4412-8ba3-35f33ae5408c",
    "resource": {
      "resourceType": "Consent",
      "id": "d170d548-e222-4412-8ba3-35f33ae5408c",
      "identifier": {
        "use": "usual",
        "value": "B53175B4-0A4A-4503-A6CD-94333AA01645"
      },
      "status": "active",
      "patient": {
        "reference": "urn:uuid:12beff80-cc70-429b-8b2b-1c56193da419"
      },
      "period": {
        "start": "2020-10-30T18:28:13+00:00",
        "end": "2020-10-30T18:28:58+00:00"
      },
      "consentingParty": [ {
        "reference": "urn:uuid:12beff80-cc70-429b-8b2b-1c56193da419"
      } ],
      "action": [ {
        "coding": [ {
          "system": "http://snomed.info/sct",
          "code": "425691002",
          "display": "Consent given for electronic record sharing"
        } ],
        "text": "Consent given for electronic record sharing"
      } ],
      "organization": [ {
        "reference": "urn:uuid:118db5f5-ca59-46ff-92a1-0ea5ff2d8290"
      } ],
      "policyRule": "http://hl7.org/fhir/ConsentPolicy/opt-out",
      "data": [ {
        "meaning": "related",
        "reference": {
          "reference": "urn:uuid:f759502c-a7dc-4e95-adda-84eb9487c1fb"
        }
      } ]
    }
  }, {
    "fullUrl": "urn:uuid:123c0f1c-2017-439a-9622-70688683c28f",
    "resource": {
      "resourceType": "Condition",
      "id": "123c0f1c-2017-439a-9622-70688683c28f",
      "clinicalStatus": "active",
      "verificationStatus": "unknown",
      "subject": {
        "reference": "urn:uuid:12beff80-cc70-429b-8b2b-1c56193da419"
      },
      "context": {
        "reference": "urn:uuid:f759502c-a7dc-4e95-adda-84eb9487c1fb"
      },
      "evidence": [ {
        "detail": [ {
          "reference": "urn:uuid:6171df1c-5fff-42ad-8968-31648d983474"
        } ]
      }, {
        "detail": [ {
          "reference": "urn:uuid:155ca834-1094-4415-83c4-04589d0f0cda"
        } ]
      }, {
        "detail": [ {
          "reference": "urn:uuid:46b74309-7abc-4270-bbf8-059f960fb8ec"
        } ]
      }, {
        "detail": [ {
          "reference": "urn:uuid:5a20641a-3c69-48ea-92d5-4e2b4fedd453"
        } ]
      }, {
        "detail": [ {
          "reference": "urn:uuid:a1dc4abe-152a-47b7-87d0-22647ba38a42"
        } ]
      }, {
        "detail": [ {
          "reference": "urn:uuid:db306caf-6150-4ebe-8cce-d90e0e16834b"
        } ]
      }, {
        "detail": [ {
          "reference": "urn:uuid:aa6a429d-2cfb-40d2-bf1a-578bda09e521"
        } ]
      }, {
        "detail": [ {
          "reference": "urn:uuid:62f32bf2-658f-410b-857c-5f387eed6f8a"
        } ]
      }, {
        "detail": [ {
          "reference": "urn:uuid:7440bd62-49fa-4a1b-a86e-3a85cfaba2c8"
        } ]
      }, {
        "detail": [ {
          "reference": "urn:uuid:ae490f05-5aa7-4cc9-9276-04ab110d8c1b"
        } ]
      }, {
        "detail": [ {
          "reference": "urn:uuid:bf075c26-d479-4d0c-8a34-029b42aa6a7c"
        } ]
      }, {
        "detail": [ {
          "reference": "urn:uuid:818a76d2-967c-45a7-92e0-e7d51ed6459a"
        } ]
      }, {
        "detail": [ {
          "reference": "urn:uuid:0bc31688-4479-4bd8-b2f3-d3870ad7ff02"
        } ]
      }, {
        "detail": [ {
          "reference": "urn:uuid:62f69fa6-b097-4e6e-afbf-0c621414d6f5"
        } ]
      }, {
        "detail": [ {
          "reference": "urn:uuid:c4e90a94-fddf-47a6-ae11-470ae3faa6fe"
        } ]
      }, {
        "detail": [ {
          "reference": "urn:uuid:4c7d3bf1-933a-41ff-9cc7-b3ba8d14047f"
        } ]
      }, {
        "detail": [ {
          "reference": "urn:uuid:e5c8689f-5ca3-4c46-86c0-59a1b480e3d1"
        } ]
      }, {
        "detail": [ {
          "reference": "urn:uuid:3ba1d350-6800-4743-874a-9037e4f6fd6a"
        } ]
      }, {
        "detail": [ {
          "reference": "urn:uuid:90e1cbf7-442d-469d-89e8-02df674b7609"
        } ]
      }, {
        "detail": [ {
          "reference": "urn:uuid:c75a786b-0602-4e63-bde5-717473af37e0"
        } ]
      }, {
        "detail": [ {
          "reference": "urn:uuid:f6014dfb-542a-47d7-8126-c62e9c917c34"
        } ]
      }, {
        "detail": [ {
          "reference": "urn:uuid:2d15ef56-5342-461b-8a95-5af69c7bd33a"
        } ]
      }, {
        "detail": [ {
          "reference": "urn:uuid:d86fb631-df20-4a09-b0df-e0586916e2c8"
        } ]
      } ]
    }
  }, {
    "fullUrl": "urn:uuid:6171df1c-5fff-42ad-8968-31648d983474",
    "resource": {
      "resourceType": "QuestionnaireResponse",
      "id": "6171df1c-5fff-42ad-8968-31648d983474",
      "identifier": {
        "value": "7434927"
      },
      "questionnaire": {
        "reference": "urn:uuid:c5c7c982-176a-4291-a607-40b5d5f6e329"
      },
      "status": "completed",
      "subject": {
        "reference": "urn:uuid:12beff80-cc70-429b-8b2b-1c56193da419"
      },
      "context": {
        "reference": "urn:uuid:f759502c-a7dc-4e95-adda-84eb9487c1fb"
      },
      "authored": "2020-10-30T18:29:05+00:00",
      "item": [ {
        "linkId": "Tx220074",
        "text": "What is the reason for the contact?",
        "answer": [ {
          "valueString": "an injury or other health problem"
        } ]
      } ]
    }
  }, {
    "fullUrl": "urn:uuid:c5c7c982-176a-4291-a607-40b5d5f6e329",
    "resource": {
      "resourceType": "Questionnaire",
      "id": "c5c7c982-176a-4291-a607-40b5d5f6e329",
      "identifier": [ {
        "value": "7434927"
      } ],
      "version": "2020-10-30T18:29:05.808Z",
      "status": "active",
      "experimental": false,
      "date": "2020-10-30T18:29:05+00:00",
      "publisher": "User ID: 'RB12' User name: 'Rachel Boyer' User skill set: 'T3'",
      "lastReviewDate": "2020-10-30",
      "subjectType": [ "Patient" ],
      "item": [ {
        "linkId": "7434927",
        "prefix": "5",
        "text": "What is the reason for the contact?",
        "type": "choice",
        "required": true,
        "repeats": false,
        "option": [ {
          "valueString": "an injury or other health problem, Selected: true"
        }, {
          "valueString": "labour or childbirth, Selected: false"
        }, {
          "valueString": "a need to access another healthcare service, Selected: false"
        }, {
          "valueString": "a healthcare professional requesting contact with another clinician, Selected: false"
        }, {
          "valueString": "a report of results or tests, Selected: false"
        }, {
          "valueString": "a possible failure of contraception, Selected: false"
        }, {
          "valueString": "more, Selected: false"
        } ]
      } ]
    }
  }, {
    "fullUrl": "urn:uuid:155ca834-1094-4415-83c4-04589d0f0cda",
    "resource": {
      "resourceType": "QuestionnaireResponse",
      "id": "155ca834-1094-4415-83c4-04589d0f0cda",
      "identifier": {
        "value": "7434927"
      },
      "questionnaire": {
        "reference": "urn:uuid:59ca644b-a277-4d37-8ec2-ba63ba3b92ff"
      },
      "status": "completed",
      "subject": {
        "reference": "urn:uuid:12beff80-cc70-429b-8b2b-1c56193da419"
      },
      "context": {
        "reference": "urn:uuid:f759502c-a7dc-4e95-adda-84eb9487c1fb"
      },
      "authored": "2020-10-30T18:29:05+00:00",
      "item": [ {
        "linkId": "Tx221807",
        "text": "STRING:to'Immediatethreatstolife(SPA/OOHversion)'-'Majorbloodloss'stem",
        "answer": [ {
          "valueString": "\"present\""
        } ]
      } ]
    }
  }, {
    "fullUrl": "urn:uuid:59ca644b-a277-4d37-8ec2-ba63ba3b92ff",
    "resource": {
      "resourceType": "Questionnaire",
      "id": "59ca644b-a277-4d37-8ec2-ba63ba3b92ff",
      "identifier": [ {
        "value": "7434927"
      } ],
      "version": "2020-10-30T18:29:05.808Z",
      "status": "active",
      "experimental": false,
      "date": "2020-10-30T18:29:05+00:00",
      "publisher": "User ID: 'RB12' User name: 'Rachel Boyer' User skill set: 'T3'",
      "lastReviewDate": "2020-10-30",
      "subjectType": [ "Patient" ],
      "item": [ {
        "linkId": "7434927",
        "prefix": "200",
        "text": "STRING:to'Immediatethreatstolife(SPA/OOHversion)'-'Majorbloodloss'stem",
        "type": "choice",
        "required": true,
        "repeats": false,
        "option": [ {
          "valueString": "\"present\", Selected: true"
        } ]
      } ]
    }
  }, {
    "fullUrl": "urn:uuid:46b74309-7abc-4270-bbf8-059f960fb8ec",
    "resource": {
      "resourceType": "QuestionnaireResponse",
      "id": "46b74309-7abc-4270-bbf8-059f960fb8ec",
      "identifier": {
        "value": "7434927"
      },
      "questionnaire": {
        "reference": "urn:uuid:55ba67ed-4689-4782-afde-038068404a8c"
      },
      "status": "completed",
      "subject": {
        "reference": "urn:uuid:12beff80-cc70-429b-8b2b-1c56193da419"
      },
      "context": {
        "reference": "urn:uuid:f759502c-a7dc-4e95-adda-84eb9487c1fb"
      },
      "authored": "2020-10-30T18:29:05+00:00"
    }
  }, {
    "fullUrl": "urn:uuid:55ba67ed-4689-4782-afde-038068404a8c",
    "resource": {
      "resourceType": "Questionnaire",
      "id": "55ba67ed-4689-4782-afde-038068404a8c",
      "identifier": [ {
        "value": "7434927"
      } ],
      "version": "2020-10-30T18:29:05.808Z",
      "status": "active",
      "experimental": false,
      "date": "2020-10-30T18:29:05+00:00",
      "publisher": "User ID: 'RB12' User name: 'Rachel Boyer' User skill set: 'T3'",
      "lastReviewDate": "2020-10-30",
      "subjectType": [ "Patient" ]
    }
  }, {
    "fullUrl": "urn:uuid:5a20641a-3c69-48ea-92d5-4e2b4fedd453",
    "resource": {
      "resourceType": "QuestionnaireResponse",
      "id": "5a20641a-3c69-48ea-92d5-4e2b4fedd453",
      "identifier": {
        "value": "7434927"
      },
      "questionnaire": {
        "reference": "urn:uuid:4d4bce02-9905-47e3-b591-7df52e71d339"
      },
      "status": "completed",
      "subject": {
        "reference": "urn:uuid:12beff80-cc70-429b-8b2b-1c56193da419"
      },
      "context": {
        "reference": "urn:uuid:f759502c-a7dc-4e95-adda-84eb9487c1fb"
      },
      "authored": "2020-10-30T18:29:05+00:00",
      "item": [ {
        "linkId": "Tx221799",
        "text": "STRING:injury,illnessorlabourestablishedinEntryFlow",
        "answer": [ {
          "valueString": "\"present\""
        } ]
      } ]
    }
  }, {
    "fullUrl": "urn:uuid:4d4bce02-9905-47e3-b591-7df52e71d339",
    "resource": {
      "resourceType": "Questionnaire",
      "id": "4d4bce02-9905-47e3-b591-7df52e71d339",
      "identifier": [ {
        "value": "7434927"
      } ],
      "version": "2020-10-30T18:29:05.808Z",
      "status": "active",
      "experimental": false,
      "date": "2020-10-30T18:29:05+00:00",
      "publisher": "User ID: 'RB12' User name: 'Rachel Boyer' User skill set: 'T3'",
      "lastReviewDate": "2020-10-30",
      "subjectType": [ "Patient" ],
      "item": [ {
        "linkId": "7434927",
        "prefix": "0",
        "text": "STRING:injury,illnessorlabourestablishedinEntryFlow",
        "type": "choice",
        "required": true,
        "repeats": false,
        "option": [ {
          "valueString": "\"present\", Selected: true"
        } ]
      } ]
    }
  }, {
    "fullUrl": "urn:uuid:a1dc4abe-152a-47b7-87d0-22647ba38a42",
    "resource": {
      "resourceType": "QuestionnaireResponse",
      "id": "a1dc4abe-152a-47b7-87d0-22647ba38a42",
      "identifier": {
        "value": "7434927"
      },
      "questionnaire": {
        "reference": "urn:uuid:21220175-42ef-4f08-b850-8c8afd940810"
      },
      "status": "completed",
      "subject": {
        "reference": "urn:uuid:12beff80-cc70-429b-8b2b-1c56193da419"
      },
      "context": {
        "reference": "urn:uuid:f759502c-a7dc-4e95-adda-84eb9487c1fb"
      },
      "authored": "2020-10-30T18:29:05+00:00",
      "item": [ {
        "linkId": "Tx224120",
        "text": "Have you been bleeding RED BLOOD very heavily IN THE LAST 2 HOURS?",
        "answer": [ {
          "valueString": "no"
        } ]
      } ]
    }
  }, {
    "fullUrl": "urn:uuid:21220175-42ef-4f08-b850-8c8afd940810",
    "resource": {
      "resourceType": "Questionnaire",
      "id": "21220175-42ef-4f08-b850-8c8afd940810",
      "identifier": [ {
        "value": "7434927"
      } ],
      "version": "2020-10-30T18:29:05.808Z",
      "status": "active",
      "experimental": false,
      "date": "2020-10-30T18:29:05+00:00",
      "publisher": "User ID: 'RB12' User name: 'Rachel Boyer' User skill set: 'T3'",
      "lastReviewDate": "2020-10-30",
      "subjectType": [ "Patient" ],
      "item": [ {
        "linkId": "7434927",
        "prefix": "10100",
        "text": "Have you been bleeding RED BLOOD very heavily IN THE LAST 2 HOURS?",
        "type": "choice",
        "required": true,
        "repeats": false,
        "option": [ {
          "valueString": "yes, Selected: false"
        }, {
          "valueString": "not sure, Selected: false"
        }, {
          "valueString": "no, Selected: true"
        } ]
      } ]
    }
  }, {
    "fullUrl": "urn:uuid:db306caf-6150-4ebe-8cce-d90e0e16834b",
    "resource": {
      "resourceType": "QuestionnaireResponse",
      "id": "db306caf-6150-4ebe-8cce-d90e0e16834b",
      "identifier": {
        "value": "7434927"
      },
      "questionnaire": {
        "reference": "urn:uuid:5779d3cd-cb10-4eba-8248-c0516c34852f"
      },
      "status": "completed",
      "subject": {
        "reference": "urn:uuid:12beff80-cc70-429b-8b2b-1c56193da419"
      },
      "context": {
        "reference": "urn:uuid:f759502c-a7dc-4e95-adda-84eb9487c1fb"
      },
      "authored": "2020-10-30T18:29:05+00:00",
      "item": [ {
        "linkId": "Tx221343",
        "text": "SocialConcernsExcluded",
        "answer": [ {
          "valueString": "==\"present\""
        } ]
      } ]
    }
  }, {
    "fullUrl": "urn:uuid:5779d3cd-cb10-4eba-8248-c0516c34852f",
    "resource": {
      "resourceType": "Questionnaire",
      "id": "5779d3cd-cb10-4eba-8248-c0516c34852f",
      "identifier": [ {
        "value": "7434927"
      } ],
      "version": "2020-10-30T18:29:05.808Z",
      "status": "active",
      "experimental": false,
      "date": "2020-10-30T18:29:05+00:00",
      "publisher": "User ID: 'RB12' User name: 'Rachel Boyer' User skill set: 'T3'",
      "lastReviewDate": "2020-10-30",
      "subjectType": [ "Patient" ],
      "item": [ {
        "linkId": "7434927",
        "prefix": "1100",
        "text": "SocialConcernsExcluded",
        "type": "choice",
        "required": true,
        "repeats": false,
        "option": [ {
          "valueString": "==\"present\", Selected: true"
        }, {
          "valueString": "*, Selected: false"
        } ]
      } ]
    }
  }, {
    "fullUrl": "urn:uuid:aa6a429d-2cfb-40d2-bf1a-578bda09e521",
    "resource": {
      "resourceType": "QuestionnaireResponse",
      "id": "aa6a429d-2cfb-40d2-bf1a-578bda09e521",
      "identifier": {
        "value": "7434927"
      },
      "questionnaire": {
        "reference": "urn:uuid:1dd27421-3886-4504-8791-dcfe5c1fe850"
      },
      "status": "completed",
      "subject": {
        "reference": "urn:uuid:12beff80-cc70-429b-8b2b-1c56193da419"
      },
      "context": {
        "reference": "urn:uuid:f759502c-a7dc-4e95-adda-84eb9487c1fb"
      },
      "authored": "2020-10-30T18:29:05+00:00",
      "item": [ {
        "linkId": "Tx130011",
        "text": "What is the main problem?",
        "answer": [ {
          "valueString": "illness or other health problem (specify)"
        } ]
      } ]
    }
  }, {
    "fullUrl": "urn:uuid:1dd27421-3886-4504-8791-dcfe5c1fe850",
    "resource": {
      "resourceType": "Questionnaire",
      "id": "1dd27421-3886-4504-8791-dcfe5c1fe850",
      "identifier": [ {
        "value": "7434927"
      } ],
      "version": "2020-10-30T18:29:05.808Z",
      "status": "active",
      "experimental": false,
      "date": "2020-10-30T18:29:05+00:00",
      "publisher": "User ID: 'RB12' User name: 'Rachel Boyer' User skill set: 'T3'",
      "lastReviewDate": "2020-10-30",
      "subjectType": [ "Patient" ],
      "item": [ {
        "linkId": "7434927",
        "prefix": "2300",
        "text": "What is the main problem?",
        "type": "choice",
        "required": true,
        "repeats": false,
        "option": [ {
          "valueString": "the individual has been told to follow a particular course of action (specify), Selected: false"
        }, {
          "valueString": "the individual is an identified frequent caller, Selected: false"
        }, {
          "valueString": "injury (specify), Selected: false"
        }, {
          "valueString": "illness or other health problem (specify), Selected: true"
        }, {
          "valueString": "child protection/vulnerable adult concern, Selected: false"
        }, {
          "valueString": "social or domestic emergency, Selected: false"
        }, {
          "valueString": "the environment potentially poses an immediate threat to life (specify), Selected: false"
        } ]
      } ]
    }
  }, {
    "fullUrl": "urn:uuid:62f32bf2-658f-410b-857c-5f387eed6f8a",
    "resource": {
      "resourceType": "QuestionnaireResponse",
      "id": "62f32bf2-658f-410b-857c-5f387eed6f8a",
      "identifier": {
        "value": "7434927"
      },
      "questionnaire": {
        "reference": "urn:uuid:1bebaede-ec88-4b8e-ae3f-2090f43b0f7a"
      },
      "status": "completed",
      "subject": {
        "reference": "urn:uuid:12beff80-cc70-429b-8b2b-1c56193da419"
      },
      "context": {
        "reference": "urn:uuid:f759502c-a7dc-4e95-adda-84eb9487c1fb"
      },
      "authored": "2020-10-30T18:29:05+00:00"
    }
  }, {
    "fullUrl": "urn:uuid:1bebaede-ec88-4b8e-ae3f-2090f43b0f7a",
    "resource": {
      "resourceType": "Questionnaire",
      "id": "1bebaede-ec88-4b8e-ae3f-2090f43b0f7a",
      "identifier": [ {
        "value": "7434927"
      } ],
      "version": "2020-10-30T18:29:05.808Z",
      "status": "active",
      "experimental": false,
      "date": "2020-10-30T18:29:05+00:00",
      "publisher": "User ID: 'RB12' User name: 'Rachel Boyer' User skill set: 'T3'",
      "lastReviewDate": "2020-10-30",
      "subjectType": [ "Patient" ]
    }
  }, {
    "fullUrl": "urn:uuid:7440bd62-49fa-4a1b-a86e-3a85cfaba2c8",
    "resource": {
      "resourceType": "QuestionnaireResponse",
      "id": "7440bd62-49fa-4a1b-a86e-3a85cfaba2c8",
      "identifier": {
        "value": "7434927"
      },
      "questionnaire": {
        "reference": "urn:uuid:f7cd01fb-434f-48b7-901d-3ddcde68148a"
      },
      "status": "completed",
      "subject": {
        "reference": "urn:uuid:12beff80-cc70-429b-8b2b-1c56193da419"
      },
      "context": {
        "reference": "urn:uuid:f759502c-a7dc-4e95-adda-84eb9487c1fb"
      },
      "authored": "2020-10-30T18:29:05+00:00",
      "item": [ {
        "linkId": "Tx61025",
        "text": "Are you so breathless that speaking more than a few words is impossible?",
        "answer": [ {
          "valueString": "no"
        } ]
      } ]
    }
  }, {
    "fullUrl": "urn:uuid:f7cd01fb-434f-48b7-901d-3ddcde68148a",
    "resource": {
      "resourceType": "Questionnaire",
      "id": "f7cd01fb-434f-48b7-901d-3ddcde68148a",
      "identifier": [ {
        "value": "7434927"
      } ],
      "version": "2020-10-30T18:29:05.808Z",
      "status": "active",
      "experimental": false,
      "date": "2020-10-30T18:29:05+00:00",
      "publisher": "User ID: 'RB12' User name: 'Rachel Boyer' User skill set: 'T3'",
      "lastReviewDate": "2020-10-30",
      "subjectType": [ "Patient" ],
      "item": [ {
        "linkId": "7434927",
        "prefix": "0",
        "text": "Are you so breathless that speaking more than a few words is impossible?",
        "type": "choice",
        "required": true,
        "repeats": false,
        "option": [ {
          "valueString": "yes, Selected: false"
        }, {
          "valueString": "not sure, Selected: false"
        }, {
          "valueString": "no, Selected: true"
        } ]
      } ]
    }
  }, {
    "fullUrl": "urn:uuid:ae490f05-5aa7-4cc9-9276-04ab110d8c1b",
    "resource": {
      "resourceType": "QuestionnaireResponse",
      "id": "ae490f05-5aa7-4cc9-9276-04ab110d8c1b",
      "identifier": {
        "value": "7434927"
      },
      "questionnaire": {
        "reference": "urn:uuid:e1ecdd91-7a8c-44af-bd00-48c80f52b410"
      },
      "status": "completed",
      "subject": {
        "reference": "urn:uuid:12beff80-cc70-429b-8b2b-1c56193da419"
      },
      "context": {
        "reference": "urn:uuid:f759502c-a7dc-4e95-adda-84eb9487c1fb"
      },
      "authored": "2020-10-30T18:29:05+00:00",
      "item": [ {
        "linkId": "Tx220845",
        "text": "SYSTEM_FLUPANDEMIC",
        "answer": [ {
          "valueString": "==\"pandemic\""
        } ]
      } ]
    }
  }, {
    "fullUrl": "urn:uuid:e1ecdd91-7a8c-44af-bd00-48c80f52b410",
    "resource": {
      "resourceType": "Questionnaire",
      "id": "e1ecdd91-7a8c-44af-bd00-48c80f52b410",
      "identifier": [ {
        "value": "7434927"
      } ],
      "version": "2020-10-30T18:29:05.808Z",
      "status": "active",
      "experimental": false,
      "date": "2020-10-30T18:29:05+00:00",
      "publisher": "User ID: 'RB12' User name: 'Rachel Boyer' User skill set: 'T3'",
      "lastReviewDate": "2020-10-30",
      "subjectType": [ "Patient" ],
      "item": [ {
        "linkId": "7434927",
        "prefix": "100",
        "text": "SYSTEM_FLUPANDEMIC",
        "type": "choice",
        "required": true,
        "repeats": false,
        "option": [ {
          "valueString": "==\"pandemic\", Selected: true"
        }, {
          "valueString": "*, Selected: false"
        } ]
      } ]
    }
  }, {
    "fullUrl": "urn:uuid:bf075c26-d479-4d0c-8a34-029b42aa6a7c",
    "resource": {
      "resourceType": "QuestionnaireResponse",
      "id": "bf075c26-d479-4d0c-8a34-029b42aa6a7c",
      "identifier": {
        "value": "7434927"
      },
      "questionnaire": {
        "reference": "urn:uuid:34c34144-ab2a-4b80-97d7-40d388c4484a"
      },
      "status": "completed",
      "subject": {
        "reference": "urn:uuid:12beff80-cc70-429b-8b2b-1c56193da419"
      },
      "context": {
        "reference": "urn:uuid:f759502c-a7dc-4e95-adda-84eb9487c1fb"
      },
      "authored": "2020-10-30T18:29:05+00:00",
      "item": [ {
        "linkId": "Tx223440",
        "text": "WHAT IS SAID TO BE THE MAIN REASON FOR THIS CONTACT?",
        "answer": [ {
          "valueString": "more"
        } ]
      } ]
    }
  }, {
    "fullUrl": "urn:uuid:34c34144-ab2a-4b80-97d7-40d388c4484a",
    "resource": {
      "resourceType": "Questionnaire",
      "id": "34c34144-ab2a-4b80-97d7-40d388c4484a",
      "identifier": [ {
        "value": "7434927"
      } ],
      "version": "2020-10-30T18:29:05.808Z",
      "status": "active",
      "experimental": false,
      "date": "2020-10-30T18:29:05+00:00",
      "publisher": "User ID: 'RB12' User name: 'Rachel Boyer' User skill set: 'T3'",
      "lastReviewDate": "2020-10-30",
      "subjectType": [ "Patient" ],
      "item": [ {
        "linkId": "7434927",
        "prefix": "5200",
        "text": "WHAT IS SAID TO BE THE MAIN REASON FOR THIS CONTACT?",
        "type": "choice",
        "required": true,
        "repeats": false,
        "option": [ {
          "valueString": "a probable allergic reaction now, Selected: false"
        }, {
          "valueString": "a probable heart attack, Selected: false"
        }, {
          "valueString": "chest or upper back pain, Selected: false"
        }, {
          "valueString": "a probable stroke or mini-stroke, Selected: false"
        }, {
          "valueString": "a probable fit or seizure within the last 12 hours, Selected: false"
        }, {
          "valueString": "a suicide attempt, Selected: false"
        }, {
          "valueString": "more, Selected: true"
        } ]
      } ]
    }
  }, {
    "fullUrl": "urn:uuid:818a76d2-967c-45a7-92e0-e7d51ed6459a",
    "resource": {
      "resourceType": "QuestionnaireResponse",
      "id": "818a76d2-967c-45a7-92e0-e7d51ed6459a",
      "identifier": {
        "value": "7434927"
      },
      "questionnaire": {
        "reference": "urn:uuid:c91fea86-7503-4835-9c91-750a7e9b650c"
      },
      "status": "completed",
      "subject": {
        "reference": "urn:uuid:12beff80-cc70-429b-8b2b-1c56193da419"
      },
      "context": {
        "reference": "urn:uuid:f759502c-a7dc-4e95-adda-84eb9487c1fb"
      },
      "authored": "2020-10-30T18:29:05+00:00",
      "item": [ {
        "linkId": "Tx220032",
        "text": "WHAT IS SAID TO BE THE MAIN REASON FOR THIS CONTACT?",
        "answer": [ {
          "valueString": "none of the above"
        } ]
      } ]
    }
  }, {
    "fullUrl": "urn:uuid:c91fea86-7503-4835-9c91-750a7e9b650c",
    "resource": {
      "resourceType": "Questionnaire",
      "id": "c91fea86-7503-4835-9c91-750a7e9b650c",
      "identifier": [ {
        "value": "7434927"
      } ],
      "version": "2020-10-30T18:29:05.808Z",
      "status": "active",
      "experimental": false,
      "date": "2020-10-30T18:29:05+00:00",
      "publisher": "User ID: 'RB12' User name: 'Rachel Boyer' User skill set: 'T3'",
      "lastReviewDate": "2020-10-30",
      "subjectType": [ "Patient" ],
      "item": [ {
        "linkId": "7434927",
        "prefix": "2200",
        "text": "WHAT IS SAID TO BE THE MAIN REASON FOR THIS CONTACT?",
        "type": "choice",
        "required": true,
        "repeats": false,
        "option": [ {
          "valueString": "new confusion now, Selected: false"
        }, {
          "valueString": "a diabetic hypo (low blood sugar) or a diabetic hyper (high blood sugar), Selected: false"
        }, {
          "valueString": "recovery from an ICD (implanted cardioverter defibrillator) shock, Selected: false"
        }, {
          "valueString": "none of the above, Selected: true"
        } ]
      } ]
    }
  }, {
    "fullUrl": "urn:uuid:0bc31688-4479-4bd8-b2f3-d3870ad7ff02",
    "resource": {
      "resourceType": "QuestionnaireResponse",
      "id": "0bc31688-4479-4bd8-b2f3-d3870ad7ff02",
      "identifier": {
        "value": "7434927"
      },
      "questionnaire": {
        "reference": "urn:uuid:e90f2cbf-ad81-42d6-b582-ed55da50f0c9"
      },
      "status": "completed",
      "subject": {
        "reference": "urn:uuid:12beff80-cc70-429b-8b2b-1c56193da419"
      },
      "context": {
        "reference": "urn:uuid:f759502c-a7dc-4e95-adda-84eb9487c1fb"
      },
      "authored": "2020-10-30T18:29:05+00:00",
      "item": [ {
        "linkId": "Tx223142",
        "text": "Does the skin on the chest, back or abdomen feel a normal temperature?",
        "answer": [ {
          "valueString": "yes - normal, warm or hot"
        } ]
      } ]
    }
  }, {
    "fullUrl": "urn:uuid:e90f2cbf-ad81-42d6-b582-ed55da50f0c9",
    "resource": {
      "resourceType": "Questionnaire",
      "id": "e90f2cbf-ad81-42d6-b582-ed55da50f0c9",
      "identifier": [ {
        "value": "7434927"
      } ],
      "version": "2020-10-30T18:29:05.808Z",
      "status": "active",
      "experimental": false,
      "date": "2020-10-30T18:29:05+00:00",
      "publisher": "User ID: 'RB12' User name: 'Rachel Boyer' User skill set: 'T3'",
      "lastReviewDate": "2020-10-30",
      "subjectType": [ "Patient" ],
      "item": [ {
        "linkId": "7434927",
        "prefix": "4200",
        "text": "Does the skin on the chest, back or abdomen feel a normal temperature?",
        "type": "choice",
        "required": true,
        "repeats": false,
        "option": [ {
          "valueString": "yes - normal, warm or hot, Selected: true"
        }, {
          "valueString": "not sure, Selected: false"
        }, {
          "valueString": "no - cool OR cold, Selected: false"
        }, {
          "valueString": "not safe to touch, Selected: false"
        } ]
      } ]
    }
  }, {
    "fullUrl": "urn:uuid:62f69fa6-b097-4e6e-afbf-0c621414d6f5",
    "resource": {
      "resourceType": "QuestionnaireResponse",
      "id": "62f69fa6-b097-4e6e-afbf-0c621414d6f5",
      "identifier": {
        "value": "7434927"
      },
      "questionnaire": {
        "reference": "urn:uuid:887a57db-7f1b-456a-b785-e7ee44f35414"
      },
      "status": "completed",
      "subject": {
        "reference": "urn:uuid:12beff80-cc70-429b-8b2b-1c56193da419"
      },
      "context": {
        "reference": "urn:uuid:f759502c-a7dc-4e95-adda-84eb9487c1fb"
      },
      "authored": "2020-10-30T18:29:05+00:00",
      "item": [ {
        "linkId": "Tx221724",
        "text": "STRING:ShockAsked",
        "answer": [ {
          "valueString": "\"present\""
        } ]
      } ]
    }
  }, {
    "fullUrl": "urn:uuid:887a57db-7f1b-456a-b785-e7ee44f35414",
    "resource": {
      "resourceType": "Questionnaire",
      "id": "887a57db-7f1b-456a-b785-e7ee44f35414",
      "identifier": [ {
        "value": "7434927"
      } ],
      "version": "2020-10-30T18:29:05.808Z",
      "status": "active",
      "experimental": false,
      "date": "2020-10-30T18:29:05+00:00",
      "publisher": "User ID: 'RB12' User name: 'Rachel Boyer' User skill set: 'T3'",
      "lastReviewDate": "2020-10-30",
      "subjectType": [ "Patient" ],
      "item": [ {
        "linkId": "7434927",
        "prefix": "3700",
        "text": "STRING:ShockAsked",
        "type": "choice",
        "required": true,
        "repeats": false,
        "option": [ {
          "valueString": "\"present\", Selected: true"
        } ]
      } ]
    }
  }, {
    "fullUrl": "urn:uuid:c4e90a94-fddf-47a6-ae11-470ae3faa6fe",
    "resource": {
      "resourceType": "QuestionnaireResponse",
      "id": "c4e90a94-fddf-47a6-ae11-470ae3faa6fe",
      "identifier": {
        "value": "7434927"
      },
      "questionnaire": {
        "reference": "urn:uuid:4ededc56-1cb7-4ed6-8a47-179680a2d0e2"
      },
      "status": "completed",
      "subject": {
        "reference": "urn:uuid:12beff80-cc70-429b-8b2b-1c56193da419"
      },
      "context": {
        "reference": "urn:uuid:f759502c-a7dc-4e95-adda-84eb9487c1fb"
      },
      "authored": "2020-10-30T18:29:05+00:00"
    }
  }, {
    "fullUrl": "urn:uuid:4ededc56-1cb7-4ed6-8a47-179680a2d0e2",
    "resource": {
      "resourceType": "Questionnaire",
      "id": "4ededc56-1cb7-4ed6-8a47-179680a2d0e2",
      "identifier": [ {
        "value": "7434927"
      } ],
      "version": "2020-10-30T18:29:05.808Z",
      "status": "active",
      "experimental": false,
      "date": "2020-10-30T18:29:05+00:00",
      "publisher": "User ID: 'RB12' User name: 'Rachel Boyer' User skill set: 'T3'",
      "lastReviewDate": "2020-10-30",
      "subjectType": [ "Patient" ]
    }
  }, {
    "fullUrl": "urn:uuid:4c7d3bf1-933a-41ff-9cc7-b3ba8d14047f",
    "resource": {
      "resourceType": "QuestionnaireResponse",
      "id": "4c7d3bf1-933a-41ff-9cc7-b3ba8d14047f",
      "identifier": {
        "value": "7434927"
      },
      "questionnaire": {
        "reference": "urn:uuid:1d30bf17-e2df-431f-8d8e-f11dcab04311"
      },
      "status": "completed",
      "subject": {
        "reference": "urn:uuid:12beff80-cc70-429b-8b2b-1c56193da419"
      },
      "context": {
        "reference": "urn:uuid:f759502c-a7dc-4e95-adda-84eb9487c1fb"
      },
      "authored": "2020-10-30T18:29:05+00:00",
      "item": [ {
        "linkId": "Tx42307",
        "text": "Are you feeling faint or dizzy?",
        "answer": [ {
          "valueString": "no"
        } ]
      } ]
    }
  }, {
    "fullUrl": "urn:uuid:1d30bf17-e2df-431f-8d8e-f11dcab04311",
    "resource": {
      "resourceType": "Questionnaire",
      "id": "1d30bf17-e2df-431f-8d8e-f11dcab04311",
      "identifier": [ {
        "value": "7434927"
      } ],
      "version": "2020-10-30T18:29:05.808Z",
      "status": "active",
      "experimental": false,
      "date": "2020-10-30T18:29:05+00:00",
      "publisher": "User ID: 'RB12' User name: 'Rachel Boyer' User skill set: 'T3'",
      "lastReviewDate": "2020-10-30",
      "subjectType": [ "Patient" ],
      "item": [ {
        "linkId": "7434927",
        "prefix": "0",
        "text": "Are you feeling faint or dizzy?",
        "type": "choice",
        "required": true,
        "repeats": false,
        "option": [ {
          "valueString": "yes, Selected: false"
        }, {
          "valueString": "not sure, Selected: false"
        }, {
          "valueString": "no, Selected: true"
        } ]
      } ]
    }
  }, {
    "fullUrl": "urn:uuid:e5c8689f-5ca3-4c46-86c0-59a1b480e3d1",
    "resource": {
      "resourceType": "QuestionnaireResponse",
      "id": "e5c8689f-5ca3-4c46-86c0-59a1b480e3d1",
      "identifier": {
        "value": "7434927"
      },
      "questionnaire": {
        "reference": "urn:uuid:e80b3a3b-3704-457a-9b1c-99669a2ad53f"
      },
      "status": "completed",
      "subject": {
        "reference": "urn:uuid:12beff80-cc70-429b-8b2b-1c56193da419"
      },
      "context": {
        "reference": "urn:uuid:f759502c-a7dc-4e95-adda-84eb9487c1fb"
      },
      "authored": "2020-10-30T18:29:05+00:00",
      "item": [ {
        "linkId": "Tx1260",
        "text": "Is the nose still bleeding?",
        "answer": [ {
          "valueString": "yes"
        } ]
      } ]
    }
  }, {
    "fullUrl": "urn:uuid:e80b3a3b-3704-457a-9b1c-99669a2ad53f",
    "resource": {
      "resourceType": "Questionnaire",
      "id": "e80b3a3b-3704-457a-9b1c-99669a2ad53f",
      "identifier": [ {
        "value": "7434927"
      } ],
      "version": "2020-10-30T18:29:05.808Z",
      "status": "active",
      "experimental": false,
      "date": "2020-10-30T18:29:05+00:00",
      "publisher": "User ID: 'RB12' User name: 'Rachel Boyer' User skill set: 'T3'",
      "lastReviewDate": "2020-10-30",
      "subjectType": [ "Patient" ],
      "item": [ {
        "linkId": "7434927",
        "prefix": "100",
        "text": "Is the nose still bleeding?",
        "type": "choice",
        "required": true,
        "repeats": false,
        "option": [ {
          "valueString": "yes, Selected: true"
        }, {
          "valueString": "not sure, Selected: false"
        }, {
          "valueString": "no, Selected: false"
        } ]
      } ]
    }
  }, {
    "fullUrl": "urn:uuid:3ba1d350-6800-4743-874a-9037e4f6fd6a",
    "resource": {
      "resourceType": "QuestionnaireResponse",
      "id": "3ba1d350-6800-4743-874a-9037e4f6fd6a",
      "identifier": {
        "value": "7434927"
      },
      "questionnaire": {
        "reference": "urn:uuid:d13ea2f4-22f1-4086-a729-d0b776145390"
      },
      "status": "completed",
      "subject": {
        "reference": "urn:uuid:12beff80-cc70-429b-8b2b-1c56193da419"
      },
      "context": {
        "reference": "urn:uuid:f759502c-a7dc-4e95-adda-84eb9487c1fb"
      },
      "authored": "2020-10-30T18:29:05+00:00",
      "item": [ {
        "linkId": "Tx1258",
        "text": "Is anything stuck up the nose?",
        "answer": [ {
          "valueString": "no"
        } ]
      } ]
    }
  }, {
    "fullUrl": "urn:uuid:d13ea2f4-22f1-4086-a729-d0b776145390",
    "resource": {
      "resourceType": "Questionnaire",
      "id": "d13ea2f4-22f1-4086-a729-d0b776145390",
      "identifier": [ {
        "value": "7434927"
      } ],
      "version": "2020-10-30T18:29:05.808Z",
      "status": "active",
      "experimental": false,
      "date": "2020-10-30T18:29:05+00:00",
      "publisher": "User ID: 'RB12' User name: 'Rachel Boyer' User skill set: 'T3'",
      "lastReviewDate": "2020-10-30",
      "subjectType": [ "Patient" ],
      "item": [ {
        "linkId": "7434927",
        "prefix": "300",
        "text": "Is anything stuck up the nose?",
        "type": "choice",
        "required": true,
        "repeats": false,
        "option": [ {
          "valueString": "yes, Selected: false"
        }, {
          "valueString": "not sure, Selected: false"
        }, {
          "valueString": "no, Selected: true"
        } ]
      } ]
    }
  }, {
    "fullUrl": "urn:uuid:90e1cbf7-442d-469d-89e8-02df674b7609",
    "resource": {
      "resourceType": "QuestionnaireResponse",
      "id": "90e1cbf7-442d-469d-89e8-02df674b7609",
      "identifier": {
        "value": "7434927"
      },
      "questionnaire": {
        "reference": "urn:uuid:d1069620-2558-4b7f-9f70-9092a0a28bb5"
      },
      "status": "completed",
      "subject": {
        "reference": "urn:uuid:12beff80-cc70-429b-8b2b-1c56193da419"
      },
      "context": {
        "reference": "urn:uuid:f759502c-a7dc-4e95-adda-84eb9487c1fb"
      },
      "authored": "2020-10-30T18:29:05+00:00",
      "item": [ {
        "linkId": "Tx1259",
        "text": "Have you pinched the soft part of the nose for AT LEAST 10 MINUTES without a break?",
        "answer": [ {
          "valueString": "yes"
        } ]
      } ]
    }
  }, {
    "fullUrl": "urn:uuid:d1069620-2558-4b7f-9f70-9092a0a28bb5",
    "resource": {
      "resourceType": "Questionnaire",
      "id": "d1069620-2558-4b7f-9f70-9092a0a28bb5",
      "identifier": [ {
        "value": "7434927"
      } ],
      "version": "2020-10-30T18:29:05.808Z",
      "status": "active",
      "experimental": false,
      "date": "2020-10-30T18:29:05+00:00",
      "publisher": "User ID: 'RB12' User name: 'Rachel Boyer' User skill set: 'T3'",
      "lastReviewDate": "2020-10-30",
      "subjectType": [ "Patient" ],
      "item": [ {
        "linkId": "7434927",
        "prefix": "1500",
        "text": "Have you pinched the soft part of the nose for AT LEAST 10 MINUTES without a break?",
        "type": "choice",
        "required": true,
        "repeats": false,
        "option": [ {
          "valueString": "yes, Selected: true"
        }, {
          "valueString": "not sure, Selected: false"
        }, {
          "valueString": "no, Selected: false"
        } ]
      } ]
    }
  }, {
    "fullUrl": "urn:uuid:c75a786b-0602-4e63-bde5-717473af37e0",
    "resource": {
      "resourceType": "QuestionnaireResponse",
      "id": "c75a786b-0602-4e63-bde5-717473af37e0",
      "identifier": {
        "value": "7434927"
      },
      "questionnaire": {
        "reference": "urn:uuid:6ebf7f4a-bc92-44ea-9f1b-b294f8606617"
      },
      "status": "completed",
      "subject": {
        "reference": "urn:uuid:12beff80-cc70-429b-8b2b-1c56193da419"
      },
      "context": {
        "reference": "urn:uuid:f759502c-a7dc-4e95-adda-84eb9487c1fb"
      },
      "authored": "2020-10-30T18:29:05+00:00",
      "item": [ {
        "linkId": "Tx221512",
        "text": "STRING:SDEDFullEDassessmentandmanagementcapability",
        "answer": [ {
          "valueString": "\"ED full ED assessment and management capability\""
        } ]
      } ]
    }
  }, {
    "fullUrl": "urn:uuid:6ebf7f4a-bc92-44ea-9f1b-b294f8606617",
    "resource": {
      "resourceType": "Questionnaire",
      "id": "6ebf7f4a-bc92-44ea-9f1b-b294f8606617",
      "identifier": [ {
        "value": "7434927"
      } ],
      "version": "2020-10-30T18:29:05.808Z",
      "status": "active",
      "experimental": false,
      "date": "2020-10-30T18:29:05+00:00",
      "publisher": "User ID: 'RB12' User name: 'Rachel Boyer' User skill set: 'T3'",
      "lastReviewDate": "2020-10-30",
      "subjectType": [ "Patient" ],
      "item": [ {
        "linkId": "7434927",
        "prefix": "1700",
        "text": "STRING:SDEDFullEDassessmentandmanagementcapability",
        "type": "choice",
        "required": true,
        "repeats": false,
        "option": [ {
          "valueString": "\"ED full ED assessment and management capability\", Selected: true"
        } ]
      } ]
    }
  }, {
    "fullUrl": "urn:uuid:f6014dfb-542a-47d7-8126-c62e9c917c34",
    "resource": {
      "resourceType": "QuestionnaireResponse",
      "id": "f6014dfb-542a-47d7-8126-c62e9c917c34",
      "identifier": {
        "value": "7434927"
      },
      "questionnaire": {
        "reference": "urn:uuid:bfa24a62-8c12-412d-bb48-e7083a325f5f"
      },
      "status": "completed",
      "subject": {
        "reference": "urn:uuid:12beff80-cc70-429b-8b2b-1c56193da419"
      },
      "context": {
        "reference": "urn:uuid:f759502c-a7dc-4e95-adda-84eb9487c1fb"
      },
      "authored": "2020-10-30T18:29:05+00:00"
    }
  }, {
    "fullUrl": "urn:uuid:bfa24a62-8c12-412d-bb48-e7083a325f5f",
    "resource": {
      "resourceType": "Questionnaire",
      "id": "bfa24a62-8c12-412d-bb48-e7083a325f5f",
      "identifier": [ {
        "value": "7434927"
      } ],
      "version": "2020-10-30T18:29:05.808Z",
      "status": "active",
      "experimental": false,
      "date": "2020-10-30T18:29:05+00:00",
      "publisher": "User ID: 'RB12' User name: 'Rachel Boyer' User skill set: 'T3'",
      "lastReviewDate": "2020-10-30",
      "subjectType": [ "Patient" ]
    }
  }, {
    "fullUrl": "urn:uuid:2d15ef56-5342-461b-8a95-5af69c7bd33a",
    "resource": {
      "resourceType": "QuestionnaireResponse",
      "id": "2d15ef56-5342-461b-8a95-5af69c7bd33a",
      "identifier": {
        "value": "7434927"
      },
      "questionnaire": {
        "reference": "urn:uuid:1366fb8f-e945-4cf4-8c7d-66c254984bfe"
      },
      "status": "completed",
      "subject": {
        "reference": "urn:uuid:12beff80-cc70-429b-8b2b-1c56193da419"
      },
      "context": {
        "reference": "urn:uuid:f759502c-a7dc-4e95-adda-84eb9487c1fb"
      },
      "authored": "2020-10-30T18:29:05+00:00"
    }
  }, {
    "fullUrl": "urn:uuid:1366fb8f-e945-4cf4-8c7d-66c254984bfe",
    "resource": {
      "resourceType": "Questionnaire",
      "id": "1366fb8f-e945-4cf4-8c7d-66c254984bfe",
      "identifier": [ {
        "value": "7434927"
      } ],
      "version": "2020-10-30T18:29:05.808Z",
      "status": "active",
      "experimental": false,
      "date": "2020-10-30T18:29:05+00:00",
      "publisher": "User ID: 'RB12' User name: 'Rachel Boyer' User skill set: 'T3'",
      "lastReviewDate": "2020-10-30",
      "subjectType": [ "Patient" ]
    }
  }, {
    "fullUrl": "urn:uuid:d86fb631-df20-4a09-b0df-e0586916e2c8",
    "resource": {
      "resourceType": "QuestionnaireResponse",
      "id": "d86fb631-df20-4a09-b0df-e0586916e2c8",
      "identifier": {
        "value": "7434927"
      },
      "questionnaire": {
        "reference": "urn:uuid:7d4e80bc-4d2c-4787-9a74-098d3540cf0d"
      },
      "status": "completed",
      "subject": {
        "reference": "urn:uuid:12beff80-cc70-429b-8b2b-1c56193da419"
      },
      "context": {
        "reference": "urn:uuid:f759502c-a7dc-4e95-adda-84eb9487c1fb"
      },
      "authored": "2020-10-30T18:29:05+00:00"
    }
  }, {
    "fullUrl": "urn:uuid:7d4e80bc-4d2c-4787-9a74-098d3540cf0d",
    "resource": {
      "resourceType": "Questionnaire",
      "id": "7d4e80bc-4d2c-4787-9a74-098d3540cf0d",
      "identifier": [ {
        "value": "7434927"
      } ],
      "version": "2020-10-30T18:29:05.808Z",
      "status": "active",
      "experimental": false,
      "date": "2020-10-30T18:29:05+00:00",
      "publisher": "User ID: 'RB12' User name: 'Rachel Boyer' User skill set: 'T3'",
      "lastReviewDate": "2020-10-30",
      "subjectType": [ "Patient" ]
    }
  }, {
    "fullUrl": "urn:uuid:36c47fa2-226d-478c-a7b5-de02f2c57173",
    "resource": {
      "resourceType": "Observation",
      "id": "36c47fa2-226d-478c-a7b5-de02f2c57173",
      "status": "final",
      "code": {
        "coding": [ {
          "system": "http://snomed.info/sct",
          "code": "33962009",
          "display": "Presenting complaint"
        } ]
      },
      "subject": {
        "reference": "urn:uuid:12beff80-cc70-429b-8b2b-1c56193da419"
      },
      "context": {
        "reference": "urn:uuid:f759502c-a7dc-4e95-adda-84eb9487c1fb"
      }
    }
  }, {
    "fullUrl": "urn:uuid:aaa1f3bd-f88e-4694-ad37-5e211bc1a32c",
    "resource": {
      "resourceType": "PractitionerRole",
      "id": "aaa1f3bd-f88e-4694-ad37-5e211bc1a32c",
      "practitioner": {
        "reference": "urn:uuid:e724abf1-7cb7-4471-bc56-2c919c48c843"
      },
      "organization": {
        "reference": "urn:uuid:64ae1e06-ee54-4852-8ea2-fe19c27ef761"
      },
      "code": [ {
        "coding": [ {
          "system": "2.16.840.1.113883.2.1.3.2.4.17.339",
          "code": "OTHER",
          "display": "Assessed by"
        } ]
      } ]
    }
  }, {
    "fullUrl": "urn:uuid:64ae1e06-ee54-4852-8ea2-fe19c27ef761",
    "resource": {
      "resourceType": "Organization",
      "id": "64ae1e06-ee54-4852-8ea2-fe19c27ef761",
      "identifier": [ {
        "value": "Y00397"
      } ],
      "name": "Devon 111 (Devon Doctors Group)"
    }
  }, {
    "fullUrl": "urn:uuid:8eab0368-3f62-46cc-8461-3249ea7c64eb",
    "resource": {
      "resourceType": "PractitionerRole",
      "id": "8eab0368-3f62-46cc-8461-3249ea7c64eb",
      "practitioner": {
        "reference": "urn:uuid:181fcf0e-583e-458f-9023-110408b7159c"
      },
      "organization": {
        "reference": "urn:uuid:dd9de481-52ae-4a26-9b42-c4a4ecdec9b5"
      },
      "code": [ {
        "coding": [ {
          "system": "2.16.840.1.113883.2.1.3.2.4.17.196",
          "code": "R0010",
          "display": "Medical Director"
        } ]
      } ]
    }
  }, {
    "fullUrl": "urn:uuid:dd9de481-52ae-4a26-9b42-c4a4ecdec9b5",
    "resource": {
      "resourceType": "Organization",
      "id": "dd9de481-52ae-4a26-9b42-c4a4ecdec9b5",
      "identifier": [ {
        "value": "Y00397"
      } ],
      "name": "Devon Doctors Group"
    }
  }, {
    "fullUrl": "urn:uuid:e56c2649-7062-4153-88d8-ac712e20dc72",
    "resource": {
      "resourceType": "RelatedPerson",
      "id": "e56c2649-7062-4153-88d8-ac712e20dc72",
      "patient": {
        "reference": "urn:uuid:12beff80-cc70-429b-8b2b-1c56193da419"
      },
      "relationship": {
        "coding": [ {
          "system": "http://hl7.org/fhir/v2/0131",
          "code": "C",
          "display": "Emergency Contact"
        } ]
      },
      "telecom": [ {
        "system": "phone",
        "value": "tel:01702123456"
      } ]
    }
  }, {
    "fullUrl": "urn:uuid:908c727b-b16d-4c9c-a09a-59e681e20efe",
    "resource": {
      "resourceType": "Device",
      "id": "908c727b-b16d-4c9c-a09a-59e681e20efe",
      "model": "111 Adaptor",
      "version": "1.0.3"
    }
  }, {
    "fullUrl": "urn:uuid:467c1cf0-384d-4a2d-ba0c-016103e4e806",
    "resource": {
      "resourceType": "List",
      "id": "467c1cf0-384d-4a2d-ba0c-016103e4e806",
      "status": "current",
      "mode": "working",
      "title": "111 Report List",
      "code": {
        "coding": [ {
          "system": "http://snomed.info/sct",
          "code": "225390008",
          "display": "Triage"
        } ]
      },
      "subject": {
        "reference": "urn:uuid:12beff80-cc70-429b-8b2b-1c56193da419"
      },
      "encounter": {
        "reference": "urn:uuid:f759502c-a7dc-4e95-adda-84eb9487c1fb"
      },
      "date": "2020-10-30T18:29:05+00:00",
      "source": {
        "reference": "urn:uuid:908c727b-b16d-4c9c-a09a-59e681e20efe"
      },
      "orderedBy": {
        "coding": [ {
          "system": "http://hl7.org/fhir/list-order",
          "code": "event-date",
          "display": "Sorted by Event Date"
        } ]
      },
      "entry": [ {
        "item": {
          "reference": "urn:uuid:36c47fa2-226d-478c-a7b5-de02f2c57173"
        }
      }, {
        "item": {
          "reference": "urn:uuid:64ae1e06-ee54-4852-8ea2-fe19c27ef761"
        }
      }, {
        "item": {
          "reference": "urn:uuid:dd9de481-52ae-4a26-9b42-c4a4ecdec9b5"
        }
      }, {
        "item": {
          "reference": "urn:uuid:123c0f1c-2017-439a-9622-70688683c28f"
        }
      }, {
        "item": {
          "reference": "urn:uuid:181fcf0e-583e-458f-9023-110408b7159c"
        }
      }, {
        "item": {
          "reference": "urn:uuid:118db5f5-ca59-46ff-92a1-0ea5ff2d8290"
        }
      }, {
        "item": {
          "reference": "urn:uuid:e724abf1-7cb7-4471-bc56-2c919c48c843"
        }
      }, {
        "item": {
          "reference": "urn:uuid:55047c92-bf9a-433c-af66-0cf4f9587f94"
        }
      }, {
        "item": {
          "reference": "urn:uuid:76ddd7e5-51a0-4b67-8e4c-a169e9c5ab4d"
        }
      }, {
        "item": {
          "reference": "urn:uuid:9d98f987-573c-4b97-98d6-b6742c41084a"
        }
      }, {
        "item": {
          "reference": "urn:uuid:e56c2649-7062-4153-88d8-ac712e20dc72"
        }
      }, {
        "item": {
          "reference": "urn:uuid:155ca834-1094-4415-83c4-04589d0f0cda"
        }
      }, {
        "item": {
          "reference": "urn:uuid:887a57db-7f1b-456a-b785-e7ee44f35414"
        }
      }, {
        "item": {
          "reference": "urn:uuid:ae490f05-5aa7-4cc9-9276-04ab110d8c1b"
        }
      }, {
        "item": {
          "reference": "urn:uuid:d1069620-2558-4b7f-9f70-9092a0a28bb5"
        }
      }, {
        "item": {
          "reference": "urn:uuid:62f32bf2-658f-410b-857c-5f387eed6f8a"
        }
      }, {
        "item": {
          "reference": "urn:uuid:5a20641a-3c69-48ea-92d5-4e2b4fedd453"
        }
      }, {
        "item": {
          "reference": "urn:uuid:4d4bce02-9905-47e3-b591-7df52e71d339"
        }
      }, {
        "item": {
          "reference": "urn:uuid:4c7d3bf1-933a-41ff-9cc7-b3ba8d14047f"
        }
      }, {
        "item": {
          "reference": "urn:uuid:1bebaede-ec88-4b8e-ae3f-2090f43b0f7a"
        }
      }, {
        "item": {
          "reference": "urn:uuid:c91fea86-7503-4835-9c91-750a7e9b650c"
        }
      }, {
        "item": {
          "reference": "urn:uuid:818a76d2-967c-45a7-92e0-e7d51ed6459a"
        }
      }, {
        "item": {
          "reference": "urn:uuid:d13ea2f4-22f1-4086-a729-d0b776145390"
        }
      }, {
        "item": {
          "reference": "urn:uuid:4ededc56-1cb7-4ed6-8a47-179680a2d0e2"
        }
      }, {
        "item": {
          "reference": "urn:uuid:f7cd01fb-434f-48b7-901d-3ddcde68148a"
        }
      }, {
        "item": {
          "reference": "urn:uuid:1dd27421-3886-4504-8791-dcfe5c1fe850"
        }
      }, {
        "item": {
          "reference": "urn:uuid:34c34144-ab2a-4b80-97d7-40d388c4484a"
        }
      }, {
        "item": {
          "reference": "urn:uuid:bf075c26-d479-4d0c-8a34-029b42aa6a7c"
        }
      }, {
        "item": {
          "reference": "urn:uuid:62f69fa6-b097-4e6e-afbf-0c621414d6f5"
        }
      }, {
        "item": {
          "reference": "urn:uuid:bfa24a62-8c12-412d-bb48-e7083a325f5f"
        }
      }, {
        "item": {
          "reference": "urn:uuid:21220175-42ef-4f08-b850-8c8afd940810"
        }
      }, {
        "item": {
          "reference": "urn:uuid:90e1cbf7-442d-469d-89e8-02df674b7609"
        }
      }, {
        "item": {
          "reference": "urn:uuid:db306caf-6150-4ebe-8cce-d90e0e16834b"
        }
      }, {
        "item": {
          "reference": "urn:uuid:d86fb631-df20-4a09-b0df-e0586916e2c8"
        }
      }, {
        "item": {
          "reference": "urn:uuid:7440bd62-49fa-4a1b-a86e-3a85cfaba2c8"
        }
      }, {
        "item": {
          "reference": "urn:uuid:7d4e80bc-4d2c-4787-9a74-098d3540cf0d"
        }
      }, {
        "item": {
          "reference": "urn:uuid:6ebf7f4a-bc92-44ea-9f1b-b294f8606617"
        }
      }, {
        "item": {
          "reference": "urn:uuid:c75a786b-0602-4e63-bde5-717473af37e0"
        }
      }, {
        "item": {
          "reference": "urn:uuid:3ba1d350-6800-4743-874a-9037e4f6fd6a"
        }
      }, {
        "item": {
          "reference": "urn:uuid:2d15ef56-5342-461b-8a95-5af69c7bd33a"
        }
      }, {
        "item": {
          "reference": "urn:uuid:e5c8689f-5ca3-4c46-86c0-59a1b480e3d1"
        }
      }, {
        "item": {
          "reference": "urn:uuid:6171df1c-5fff-42ad-8968-31648d983474"
        }
      }, {
        "item": {
          "reference": "urn:uuid:55ba67ed-4689-4782-afde-038068404a8c"
        }
      }, {
        "item": {
          "reference": "urn:uuid:0bc31688-4479-4bd8-b2f3-d3870ad7ff02"
        }
      }, {
        "item": {
          "reference": "urn:uuid:e80b3a3b-3704-457a-9b1c-99669a2ad53f"
        }
      }, {
        "item": {
          "reference": "urn:uuid:5779d3cd-cb10-4eba-8248-c0516c34852f"
        }
      }, {
        "item": {
          "reference": "urn:uuid:e1ecdd91-7a8c-44af-bd00-48c80f52b410"
        }
      }, {
        "item": {
          "reference": "urn:uuid:1366fb8f-e945-4cf4-8c7d-66c254984bfe"
        }
      }, {
        "item": {
          "reference": "urn:uuid:c4e90a94-fddf-47a6-ae11-470ae3faa6fe"
        }
      }, {
        "item": {
          "reference": "urn:uuid:1d30bf17-e2df-431f-8d8e-f11dcab04311"
        }
      }, {
        "item": {
          "reference": "urn:uuid:c5c7c982-176a-4291-a607-40b5d5f6e329"
        }
      }, {
        "item": {
          "reference": "urn:uuid:aa6a429d-2cfb-40d2-bf1a-578bda09e521"
        }
      }, {
        "item": {
          "reference": "urn:uuid:59ca644b-a277-4d37-8ec2-ba63ba3b92ff"
        }
      }, {
        "item": {
          "reference": "urn:uuid:e90f2cbf-ad81-42d6-b582-ed55da50f0c9"
        }
      }, {
        "item": {
          "reference": "urn:uuid:46b74309-7abc-4270-bbf8-059f960fb8ec"
        }
      }, {
        "item": {
          "reference": "urn:uuid:a1dc4abe-152a-47b7-87d0-22647ba38a42"
        }
      }, {
        "item": {
          "reference": "urn:uuid:f6014dfb-542a-47d7-8126-c62e9c917c34"
        }
      }, {
        "item": {
          "reference": "urn:uuid:d9f20ef2-5652-422a-86f7-3478f23fff1b"
        }
      } ]
    }
  } ]
}