{
  "resourceType": "Bundle",
  "identifier": {
    "type": {
      "text": "ClinicalDocument VersionNumber"
    },
    "value": "1"
  },
  "type": "message",
  "entry": [ {
    "fullUrl": "urn:uuid:2B77B3F5-3016-4A6D-821F-152CE420E58D",
    "resource": {
      "resourceType": "MessageHeader",
      "id": "2B77B3F5-3016-4A6D-821F-152CE420E58D",
      "event": {
        "system": "https://fhir.nhs.uk/STU3/CodeSystem/EventType-1",
        "code": "referral-1",
        "display": "Referral"
      },
      "destination": [ {
        "endpoint": "urn:nhs-uk:addressing:ods:EM396:DOSServiceID:26428"
      } ],
      "timestamp": "2025-10-30T09:45:22.000+00:00",
      "source": {
        "name": "NHS 111 Adaptor",
        "endpoint": "http://localhost:8080/report"
      },
      "reason": {
        "coding": [ {
          "system": "urn:nhs-itk:ns:201005:interaction",
          "code": "urn:nhs-itk:interaction:primaryNHS111RepeatCallerDocumentSet-v1-0"
        } ]
      }
    },
    "response": {
      "status": "success",
      "lastModified": "2022-05-09T13:25:17.726+00:00"
    }
  }, {
    "fullUrl": "urn:uuid:0fcd1e48-fb33-4d4d-84ed-414a51817777",
    "resource": {
      "resourceType": "Encounter",
      "id": "0fcd1e48-fb33-4d4d-84ed-414a51817777",
      "identifier": [ {
        "system": "2.16.840.1.113883.2.1.3.2.4.18.34",
        "value": "D47E4F49-D4B8-4913-85B9-64AF5523B268"
      }, {
        "system": "2.16.840.1.113883.2.1.3.2.4.18.35",
        "value": "1193164"
      } ],
      "status": "finished",
      "type": [ {
        "text": "111 Encounter Referral"
      } ],
      "subject": {
        "reference": "urn:uuid:88bbb0ab-0134-4c15-90cf-ee614a3e57fa"
      },
      "participant": [ {
        "type": [ {
          "coding": [ {
            "system": "http://hl7.org/fhir/ValueSet/encounter-participant-type",
            "code": "PPRF",
            "display": "Author"
          } ]
        } ],
        "individual": {
          "reference": "urn:uuid:88f37c28-aad4-4017-bb3e-faef898a7539"
        }
      }, {
        "type": [ {
          "coding": [ {
            "system": "http://hl7.org/fhir/ValueSet/encounter-participant-type",
            "code": "ATND",
            "display": "Responsible Party"
          } ]
        } ],
        "individual": {
          "reference": "urn:uuid:3c696805-a75e-4fb1-a0c4-4275e4d899f6"
        }
      } ],
      "period": {
        "start": "2020-10-30T09:42:40+00:00",
        "end": "2020-10-30T09:44:13+00:00"
      },
      "location": [ {
        "location": {
          "reference": "urn:uuid:24fa9a2d-5f62-4ffd-a8f0-96948996ef22"
        },
        "status": "active"
      }, {
        "location": {
          "reference": "urn:uuid:dbd0a722-a13a-46f2-a592-628ed6e9b426"
        },
        "status": "completed"
      } ],
      "serviceProvider": {
        "reference": "urn:uuid:f5968801-7935-4fc7-9b0d-41eb9cc815c7"
      }
    }
  }, {
    "fullUrl": "urn:uuid:f5968801-7935-4fc7-9b0d-41eb9cc815c7",
    "resource": {
      "resourceType": "Organization",
      "id": "f5968801-7935-4fc7-9b0d-41eb9cc815c7",
      "active": true,
      "type": [ {
        "text": "CST"
      } ],
      "name": "West Midlands Single Instance"
    }
  }, {
    "fullUrl": "urn:uuid:88f37c28-aad4-4017-bb3e-faef898a7539",
    "resource": {
      "resourceType": "Practitioner",
      "id": "88f37c28-aad4-4017-bb3e-faef898a7539",
      "active": true,
      "name": [ {
        "use": "official"
      } ]
    }
  }, {
    "fullUrl": "urn:uuid:3c696805-a75e-4fb1-a0c4-4275e4d899f6",
    "resource": {
      "resourceType": "Practitioner",
      "id": "3c696805-a75e-4fb1-a0c4-4275e4d899f6",
      "active": true,
      "name": [ {
        "use": "official",
        "family": "Walker",
        "given": [ "Alison" ]
      } ]
    }
  }, {
    "fullUrl": "urn:uuid:24fa9a2d-5f62-4ffd-a8f0-96948996ef22",
    "resource": {
      "resourceType": "Location",
      "id": "24fa9a2d-5f62-4ffd-a8f0-96948996ef22",
      "managingOrganization": {
        "reference": "urn:uuid:54dfcf29-5d9a-404f-9ac4-2b705b6b5ade"
      }
    }
  }, {
    "fullUrl": "urn:uuid:54dfcf29-5d9a-404f-9ac4-2b705b6b5ade",
    "resource": {
      "resourceType": "Organization",
      "id": "54dfcf29-5d9a-404f-9ac4-2b705b6b5ade",
      "identifier": [ {
        "value": "F81718"
      } ],
      "type": [ {
        "text": "GP Practice"
      } ],
      "name": "LYDIA HOUSE PRACTICE"
    }
  }, {
    "fullUrl": "urn:uuid:dbd0a722-a13a-46f2-a592-628ed6e9b426",
    "resource": {
      "resourceType": "Location",
      "id": "dbd0a722-a13a-46f2-a592-628ed6e9b426",
      "name": "Incident Location",
      "address": {
        "type": "physical",
        "line": [ "Whitchurch Hospital", "Claypit Street", "Whitchurch", "Shropshire" ],
        "postalCode": "SY13 1NT"
      }
    }
  }, {
    "fullUrl": "urn:uuid:88bbb0ab-0134-4c15-90cf-ee614a3e57fa",
    "resource": {
      "resourceType": "Patient",
      "id": "88bbb0ab-0134-4c15-90cf-ee614a3e57fa",
      "identifier": [ {
        "extension": [ {
          "url": "https://fhir.hl7.org.uk/STU3/StructureDefinition/Extension-CareConnect-NHSNumberVerificationStatus-1",
          "valueCodeableConcept": {
            "coding": [ {
              "system": "https://fhir.hl7.org.uk/STU3/StructureDefinition/Extension-CareConnect-NHSNumberVerificationStatus-1",
              "code": "01"
            } ]
          }
        } ],
        "system": "https://fhir.nhs.uk/Id/nhs-number",
        "value": "9990238359"
      } ],
      "active": true,
      "name": [ {
        "use": "official",
        "family": "Xxtestpatientdzadn",
        "given": [ "Scrdonotuse" ]
      } ],
      "telecom": [ {
        "system": "phone",
        "value": "tel:01204428013",
        "use": "home"
      }, {
        "system": "phone",
        "value": "tel:01204428013"
      } ],
      "gender": "female",
      "birthDate": "1965-02-17",
      "address": [ {
        "use": "home",
        "line": [ "Test Address", "Captain Lees Road", "Westhoughton", "Bolton", "Greater Manchester" ],
        "postalCode": "BL5 3UB"
      }, {
        "type": "physical",
        "line": [ "Whitchurch Hospital", "Claypit Street", "Whitchurch", "Shropshire" ],
        "postalCode": "SY13 1NT"
      } ],
      "generalPractitioner": [ {
        "reference": "urn:uuid:442b04c6-3293-46ba-be4e-c744d1e03ab9"
      } ]
    }
  }, {
    "fullUrl": "urn:uuid:442b04c6-3293-46ba-be4e-c744d1e03ab9",
    "resource": {
      "resourceType": "Organization",
      "id": "442b04c6-3293-46ba-be4e-c744d1e03ab9",
      "identifier": [ {
        "value": "F81718"
      } ],
      "type": [ {
        "text": "GP Practice"
      } ],
      "name": "LYDIA HOUSE PRACTICE"
    }
  }, {
    "fullUrl": "urn:uuid:021d48bb-53cd-4e40-88c9-4fe7f4b29125",
    "resource": {
      "resourceType": "HealthcareService",
      "id": "021d48bb-53cd-4e40-88c9-4fe7f4b29125",
      "active": true,
      "providedBy": {
        "reference": "urn:uuid:14e888bd-3338-4827-8643-4727faaa9e46"
      },
      "location": [ {
        "reference": "urn:uuid:1b32eff9-8afe-4801-9e02-bff8c24541dc"
      } ],
      "name": "Repeat Caller - Live (v2)"
    }
  }, {
    "fullUrl": "urn:uuid:1b32eff9-8afe-4801-9e02-bff8c24541dc",
    "resource": {
      "resourceType": "Location",
      "id": "1b32eff9-8afe-4801-9e02-bff8c24541dc",
      "managingOrganization": {
        "reference": "urn:uuid:14e888bd-3338-4827-8643-4727faaa9e46"
      }
    }
  }, {
    "fullUrl": "urn:uuid:14e888bd-3338-4827-8643-4727faaa9e46",
    "resource": {
      "resourceType": "Organization",
      "id": "14e888bd-3338-4827-8643-4727faaa9e46",
      "identifier": [ {
        "value": "RHY25"
      } ],
      "type": [ {
        "coding": [ {
          "code": "PRCP",
          "display": "Repeat Caller - Live (v2)"
        } ]
      } ],
      "name": "Repeat Caller - Live (v2)"
    }
  }, {
    "fullUrl": "urn:uuid:87a77c2d-3af9-4576-a57e-c25701de46f7",
    "resource": {
      "resourceType": "ReferralRequest",
      "id": "87a77c2d-3af9-4576-a57e-c25701de46f7",
      "status": "active",
      "intent": "plan",
      "priority": "routine",
      "subject": {
        "reference": "urn:uuid:88bbb0ab-0134-4c15-90cf-ee614a3e57fa"
      },
      "context": {
        "reference": "urn:uuid:0fcd1e48-fb33-4d4d-84ed-414a51817777"
      },
      "occurrencePeriod": {
        "start": "2025-10-30T09:45:22+00:00"
      },
      "authoredOn": "2020-10-30T09:44:13+00:00",
      "requester": {
        "agent": {
          "reference": "urn:uuid:4ddf7aef-ad0b-406d-a51a-38780697e874"
        },
        "onBehalfOf": {
          "reference": "urn:uuid:f5968801-7935-4fc7-9b0d-41eb9cc815c7"
        }
      },
      "recipient": [ {
        "reference": "urn:uuid:021d48bb-53cd-4e40-88c9-4fe7f4b29125"
      } ],
      "reasonReference": [ {
        "reference": "urn:uuid:588d135f-1692-4646-8ea9-c213d3cc8b9d"
      } ],
      "supportingInfo": [ {
        "reference": "urn:uuid:f41001b5-affb-4b64-a9cc-9803551de1dd"
      } ]
    }
  }, {
    "fullUrl": "urn:uuid:f41001b5-affb-4b64-a9cc-9803551de1dd",
    "resource": {
      "resourceType": "ProcedureRequest",
      "id": "f41001b5-affb-4b64-a9cc-9803551de1dd",
      "status": "active",
      "intent": "plan",
      "priority": "routine",
      "doNotPerform": false,
      "code": {
        "coding": [ {
          "system": "2.16.840.1.113883.2.1.3.2.4.17.325",
          "code": "Dx05",
          "display": "To contact a local service within 2 hours"
        } ]
      },
      "subject": {
        "reference": "urn:uuid:88bbb0ab-0134-4c15-90cf-ee614a3e57fa"
      },
      "occurrencePeriod": {
        "start": "2025-10-30T09:45:22+00:00"
      },
      "reasonReference": [ {
        "reference": "urn:uuid:588d135f-1692-4646-8ea9-c213d3cc8b9d"
      } ]
    }
  }, {
    "fullUrl": "urn:uuid:a1ba4527-570d-4ff8-8879-cb59c67e29f2",
    "resource": {
      "resourceType": "Composition",
      "id": "a1ba4527-570d-4ff8-8879-cb59c67e29f2",
      "identifier": {
        "use": "usual",
        "value": "499BEC45-8F01-498C-A61F-B8AC124ED50E"
      },
      "status": "final",
      "type": {
        "coding": [ {
          "system": "http://snomed.info/sct",
          "code": "371531000",
          "display": "Report of clinical encounter (record artifact)"
        } ]
      },
      "subject": {
        "reference": "urn:uuid:88bbb0ab-0134-4c15-90cf-ee614a3e57fa"
      },
      "encounter": {
        "reference": "urn:uuid:0fcd1e48-fb33-4d4d-84ed-414a51817777"
      },
      "date": "2025-10-30T09:45:22+00:00",
      "author": [ {
        "reference": "urn:uuid:88f37c28-aad4-4017-bb3e-faef898a7539"
      } ],
      "title": "111 Report",
      "confidentiality": "N",
      "section": [ {
        "section": [ {
          "title": "Patient's Reported Condition",
          "text": {
            "status": "generated",
            "div": "<div xmlns=\"http://www.w3.org/1999/xhtml\">&lt;br/&gt;WHITCHURCH MIU TEST</div>"
          }
        }, {
          "title": "Pathways Disposition",
          "text": {
            "status": "generated",
            "div": "<div xmlns=\"http://www.w3.org/1999/xhtml\">&lt;br/&gt;\n                                                    &lt;br/&gt;\n                                                    &lt;br/&gt;To contact a local service within 2 hours (Dx05)\n\n                                                    Selected service: DO NOT BOOK APPOINTMENT - TESTING Whitchurch Minor Injury Unit</div>"
          }
        }, {
          "title": "Consultation Summary",
          "text": {
            "status": "generated",
            "div": "<div xmlns=\"http://www.w3.org/1999/xhtml\">&lt;br/&gt;\n                                                    &lt;br/&gt;\n                                                    &lt;br/&gt;\n                                                    &lt;br/&gt;\n                                                    &lt;br/&gt;InjuryBite or stingInsect or spider biteSting/bite more than 6 hours agoVery severe, deep limb pain</div>"
          }
        }, {
          "title": "Pathways Assessment",
          "text": {
            "status": "generated",
            "div": "<div xmlns=\"http://www.w3.org/1999/xhtml\">&lt;br/&gt;\n                                                    &lt;br/&gt;\n                                                    &lt;br/&gt;\n                                                    &lt;br/&gt;\n                                                    &lt;br/&gt;\n                                                    &lt;br/&gt;\n                                                    &lt;br/&gt;\n                                                    &lt;br/&gt;\n                                                    &lt;br/&gt;\n                                                    &lt;br/&gt;\n                                                    &lt;br/&gt;\n                                                    &lt;br/&gt;\n                                                    &lt;br/&gt;\n                                                    &lt;br/&gt;\n                                                    &lt;br/&gt;\n                                                    &lt;br/&gt;\n                                                    &lt;br/&gt;\n                                                    &lt;br/&gt;An injury or health problem was the reason for the contact.Heavy bleeding had not occurred in the previous 2 hours.An injury or symptom relating to an injury was the main problem.User Comments: TESTThere was a minor injury (a bite or sting).User Comments: TESTPathway selected - Bites and StingsThe bite or sting was caused by an insect or spider.User Comments: TESTThe sting/bite had not occurred within the previous 6 hours.The individual had been stung less than 10 timesThe individual was not experiencing nausea and/or vomiting.The sting did not involve the eyes, mouth or limb.There was no insect/insect part remaining attached to the skinThere was very severe, deep pain.Instructions given were: The individual needs to contact a local service within 2 hours.Directory of Services referral: DO NOT BOOK APPOINTMENT - TESTING Whitchurch Minor Injury UnitAdvice given:\n                                                    Worsening</div>"
          }
        }, {
          "title": "Advice Given",
          "text": {
            "status": "generated",
            "div": "<div xmlns=\"http://www.w3.org/1999/xhtml\">&lt;br/&gt;\n                                                    &lt;br/&gt;If there are any new symptoms, or if the condition gets worse, changes or you have any other concerns, call us back.</div>"
          }
        }, {
          "title": "Special Patient Notes",
          "text": {
            "status": "generated",
            "div": "<div xmlns=\"http://www.w3.org/1999/xhtml\">&lt;content styleCode=&quot;bold&quot;&gt;Note:&lt;/content&gt;\n                                                    &lt;br/&gt;\n                                                    &lt;content&gt;TEST NOTE West Midlands Single Instance&lt;/content&gt;\n                                                    &lt;br/&gt;\n                                                    &lt;br/&gt;Special Notes from an external system were flagged as being present for this patient.</div>"
          }
        } ]
      }, {
        "title": "ReferralRequest",
        "entry": [ {
          "reference": "urn:uuid:87a77c2d-3af9-4576-a57e-c25701de46f7"
        } ]
      }, {
        "title": "QuestionnaireResponse",
        "entry": [ {
          "reference": "urn:uuid:395a1ca8-75bf-459e-ae95-6fe1f28811e0"
        } ]
      }, {
        "title": "QuestionnaireResponse",
        "entry": [ {
          "reference": "urn:uuid:a4d4b9fd-6e42-409e-91df-a71cbffb511a"
        } ]
      }, {
        "title": "QuestionnaireResponse",
        "entry": [ {
          "reference": "urn:uuid:40154d1b-3a92-400b-955a-56ae8c322eb5"
        } ]
      }, {
        "title": "QuestionnaireResponse",
        "entry": [ {
          "reference": "urn:uuid:7fc22658-3383-471b-b01e-18f20f5f56ca"
        } ]
      }, {
        "title": "QuestionnaireResponse",
        "entry": [ {
          "reference": "urn:uuid:4e2b449d-1b69-425b-8d75-8f87b633c04c"
        } ]
      }, {
        "title": "QuestionnaireResponse",
        "entry": [ {
          "reference": "urn:uuid:6593502e-b3cd-43d9-af19-0d05c8f5e552"
        } ]
      }, {
        "title": "QuestionnaireResponse",
        "entry": [ {
          "reference": "urn:uuid:a32a1ef4-f917-4f37-a330-f48201cfb8b2"
        } ]
      }, {
        "title": "QuestionnaireResponse",
        "entry": [ {
          "reference": "urn:uuid:59838e55-0033-4ba2-96a4-1ca0a68575a6"
        } ]
      }, {
        "title": "QuestionnaireResponse",
        "entry": [ {
          "reference": "urn:uuid:339dd4b7-8f2d-4d99-9c61-7d74ec033aed"
        } ]
      }, {
        "title": "QuestionnaireResponse",
        "entry": [ {
          "reference": "urn:uuid:ef613531-2fa2-41a9-91b4-8d3f4b4e0468"
        } ]
      }, {
        "title": "QuestionnaireResponse",
        "entry": [ {
          "reference": "urn:uuid:f753287f-95b7-4bad-96b3-8ed349c0ed13"
        } ]
      }, {
        "title": "QuestionnaireResponse",
        "entry": [ {
          "reference": "urn:uuid:3ed157c6-0602-4505-a53b-e1d81d99eddd"
        } ]
      }, {
        "title": "QuestionnaireResponse",
        "entry": [ {
          "reference": "urn:uuid:10c09cb7-1b0a-4b50-b133-1b5e99197474"
        } ]
      }, {
        "title": "QuestionnaireResponse",
        "entry": [ {
          "reference": "urn:uuid:d31a48a4-f68d-41c6-b521-1cb001d34285"
        } ]
      }, {
        "title": "QuestionnaireResponse",
        "entry": [ {
          "reference": "urn:uuid:1c2b1157-b372-4dfa-8495-072cb76dc515"
        } ]
      }, {
        "title": "QuestionnaireResponse",
        "entry": [ {
          "reference": "urn:uuid:68d70f4d-ad00-4ed6-b878-0eead3bf9f6a"
        } ]
      }, {
        "title": "QuestionnaireResponse",
        "entry": [ {
          "reference": "urn:uuid:08ac8053-bf4b-4e44-b5ba-8a988deca836"
        } ]
      }, {
        "title": "QuestionnaireResponse",
        "entry": [ {
          "reference": "urn:uuid:4b030524-c7b7-42e2-99ce-68d11d78b887"
        } ]
      }, {
        "title": "QuestionnaireResponse",
        "entry": [ {
          "reference": "urn:uuid:0cd8eb94-2ab2-4a37-b8aa-02a3c78f0792"
        } ]
      }, {
        "title": "QuestionnaireResponse",
        "entry": [ {
          "reference": "urn:uuid:90723927-2436-489c-bcac-db014d620835"
        } ]
      }, {
        "title": "QuestionnaireResponse",
        "entry": [ {
          "reference": "urn:uuid:97aa1d5f-204d-4bdf-9a42-bf371f61a392"
        } ]
      }, {
        "title": "QuestionnaireResponse",
        "entry": [ {
          "reference": "urn:uuid:7aea0e5f-9ce7-4a09-b961-ab5b0fab5303"
        } ]
      } ]
    }
  }, {
    "fullUrl": "urn:uuid:67869bbd-ba95-4963-ab38-a2c99775a1eb",
    "resource": {
      "resourceType": "Consent",
      "id": "67869bbd-ba95-4963-ab38-a2c99775a1eb",
      "identifier": {
        "use": "usual",
        "value": "499BEC45-8F01-498C-A61F-B8AC124ED50E"
      },
      "status": "active",
      "patient": {
        "reference": "urn:uuid:88bbb0ab-0134-4c15-90cf-ee614a3e57fa"
      },
      "period": {
        "start": "2020-10-30T09:42:40+00:00",
        "end": "2020-10-30T09:44:13+00:00"
      },
      "consentingParty": [ {
        "reference": "urn:uuid:88bbb0ab-0134-4c15-90cf-ee614a3e57fa"
      } ],
      "action": [ {
        "coding": [ {
          "system": "http://snomed.info/sct",
          "code": "425691002",
          "display": "Consent given for electronic record sharing"
        } ],
        "text": "Consent given for electronic record sharing"
      } ],
      "organization": [ {
        "reference": "urn:uuid:f5968801-7935-4fc7-9b0d-41eb9cc815c7"
      } ],
      "policyRule": "http://hl7.org/fhir/ConsentPolicy/opt-out",
      "data": [ {
        "meaning": "related",
        "reference": {
          "reference": "urn:uuid:0fcd1e48-fb33-4d4d-84ed-414a51817777"
        }
      } ]
    }
  }, {
    "fullUrl": "urn:uuid:588d135f-1692-4646-8ea9-c213d3cc8b9d",
    "resource": {
      "resourceType": "Condition",
      "id": "588d135f-1692-4646-8ea9-c213d3cc8b9d",
      "clinicalStatus": "active",
      "verificationStatus": "unknown",
      "subject": {
        "reference": "urn:uuid:88bbb0ab-0134-4c15-90cf-ee614a3e57fa"
      },
      "context": {
        "reference": "urn:uuid:0fcd1e48-fb33-4d4d-84ed-414a51817777"
      },
      "evidence": [ {
        "detail": [ {
          "reference": "urn:uuid:395a1ca8-75bf-459e-ae95-6fe1f28811e0"
        } ]
      }, {
        "detail": [ {
          "reference": "urn:uuid:a4d4b9fd-6e42-409e-91df-a71cbffb511a"
        } ]
      }, {
        "detail": [ {
          "reference": "urn:uuid:40154d1b-3a92-400b-955a-56ae8c322eb5"
        } ]
      }, {
        "detail": [ {
          "reference": "urn:uuid:7fc22658-3383-471b-b01e-18f20f5f56ca"
        } ]
      }, {
        "detail": [ {
          "reference": "urn:uuid:4e2b449d-1b69-425b-8d75-8f87b633c04c"
        } ]
      }, {
        "detail": [ {
          "reference": "urn:uuid:6593502e-b3cd-43d9-af19-0d05c8f5e552"
        } ]
      }, {
        "detail": [ {
          "reference": "urn:uuid:a32a1ef4-f917-4f37-a330-f48201cfb8b2"
        } ]
      }, {
        "detail": [ {
          "reference": "urn:uuid:59838e55-0033-4ba2-96a4-1ca0a68575a6"
        } ]
      }, {
        "detail": [ {
          "reference": "urn:uuid:339dd4b7-8f2d-4d99-9c61-7d74ec033aed"
        } ]
      }, {
        "detail": [ {
          "reference": "urn:uuid:ef613531-2fa2-41a9-91b4-8d3f4b4e0468"
        } ]
      }, {
        "detail": [ {
          "reference": "urn:uuid:f753287f-95b7-4bad-96b3-8ed349c0ed13"
        } ]
      }, {
        "detail": [ {
          "reference": "urn:uuid:3ed157c6-0602-4505-a53b-e1d81d99eddd"
        } ]
      }, {
        "detail": [ {
          "reference": "urn:uuid:10c09cb7-1b0a-4b50-b133-1b5e99197474"
        } ]
      }, {
        "detail": [ {
          "reference": "urn:uuid:d31a48a4-f68d-41c6-b521-1cb001d34285"
        } ]
      }, {
        "detail": [ {
          "reference": "urn:uuid:1c2b1157-b372-4dfa-8495-072cb76dc515"
        } ]
      }, {
        "detail": [ {
          "reference": "urn:uuid:68d70f4d-ad00-4ed6-b878-0eead3bf9f6a"
        } ]
      }, {
        "detail": [ {
          "reference": "urn:uuid:08ac8053-bf4b-4e44-b5ba-8a988deca836"
        } ]
      }, {
        "detail": [ {
          "reference": "urn:uuid:4b030524-c7b7-42e2-99ce-68d11d78b887"
        } ]
      }, {
        "detail": [ {
          "reference": "urn:uuid:0cd8eb94-2ab2-4a37-b8aa-02a3c78f0792"
        } ]
      }, {
        "detail": [ {
          "reference": "urn:uuid:90723927-2436-489c-bcac-db014d620835"
        } ]
      }, {
        "detail": [ {
          "reference": "urn:uuid:97aa1d5f-204d-4bdf-9a42-bf371f61a392"
        } ]
      }, {
        "detail": [ {
          "reference": "urn:uuid:7aea0e5f-9ce7-4a09-b961-ab5b0fab5303"
        } ]
      } ]
    }
  }, {
    "fullUrl": "urn:uuid:395a1ca8-75bf-459e-ae95-6fe1f28811e0",
    "resource": {
      "resourceType": "QuestionnaireResponse",
      "id": "395a1ca8-75bf-459e-ae95-6fe1f28811e0",
      "identifier": {
        "value": "1193164"
      },
      "questionnaire": {
        "reference": "urn:uuid:a3a0765d-33d0-4e80-af17-e83669894fce"
      },
      "status": "completed",
      "subject": {
        "reference": "urn:uuid:88bbb0ab-0134-4c15-90cf-ee614a3e57fa"
      },
      "context": {
        "reference": "urn:uuid:0fcd1e48-fb33-4d4d-84ed-414a51817777"
      },
      "authored": "2020-10-30T09:45:23+00:00",
      "item": [ {
        "linkId": "Tx220074",
        "text": "What is the reason for the contact?",
        "answer": [ {
          "valueString": "an injury or other health problem"
        } ]
      } ]
    }
  }, {
    "fullUrl": "urn:uuid:a3a0765d-33d0-4e80-af17-e83669894fce",
    "resource": {
      "resourceType": "Questionnaire",
      "id": "a3a0765d-33d0-4e80-af17-e83669894fce",
      "identifier": [ {
        "value": "1193164"
      } ],
      "version": "2020-10-30T09:45:23.026Z",
      "status": "active",
      "experimental": false,
      "date": "2020-10-30T09:45:23+00:00",
      "publisher": "User ID: 'HOLDENR' User name: 'Rachael Holden' User skill set: 'T3'",
      "lastReviewDate": "2020-10-30",
      "subjectType": [ "Patient" ],
      "item": [ {
        "linkId": "1193164",
        "prefix": "5",
        "text": "What is the reason for the contact?",
        "type": "choice",
        "required": true,
        "repeats": false,
        "option": [ {
          "valueString": "an injury or other health problem, Selected: true"
        }, {
          "valueString": "labour or childbirth, Selected: false"
        }, {
          "valueString": "a need to access another healthcare service, Selected: false"
        }, {
          "valueString": "a healthcare professional requesting contact with another clinician, Selected: false"
        }, {
          "valueString": "a report of results or tests, Selected: false"
        }, {
          "valueString": "a possible failure of contraception, Selected: false"
        }, {
          "valueString": "more, Selected: false"
        } ]
      } ]
    }
  }, {
    "fullUrl": "urn:uuid:a4d4b9fd-6e42-409e-91df-a71cbffb511a",
    "resource": {
      "resourceType": "QuestionnaireResponse",
      "id": "a4d4b9fd-6e42-409e-91df-a71cbffb511a",
      "identifier": {
        "value": "1193164"
      },
      "questionnaire": {
        "reference": "urn:uuid:e1bd2200-2b39-417e-98f2-63d8615ba398"
      },
      "status": "completed",
      "subject": {
        "reference": "urn:uuid:88bbb0ab-0134-4c15-90cf-ee614a3e57fa"
      },
      "context": {
        "reference": "urn:uuid:0fcd1e48-fb33-4d4d-84ed-414a51817777"
      },
      "authored": "2020-10-30T09:45:23+00:00",
      "item": [ {
        "linkId": "Tx221807",
        "text": "STRING:to'Immediatethreatstolife(SPA/OOHversion)'-'Majorbloodloss'stem",
        "answer": [ {
          "valueString": "\"present\""
        } ]
      } ]
    }
  }, {
    "fullUrl": "urn:uuid:e1bd2200-2b39-417e-98f2-63d8615ba398",
    "resource": {
      "resourceType": "Questionnaire",
      "id": "e1bd2200-2b39-417e-98f2-63d8615ba398",
      "identifier": [ {
        "value": "1193164"
      } ],
      "version": "2020-10-30T09:45:23.026Z",
      "status": "active",
      "experimental": false,
      "date": "2020-10-30T09:45:23+00:00",
      "publisher": "User ID: 'HOLDENR' User name: 'Rachael Holden' User skill set: 'T3'",
      "lastReviewDate": "2020-10-30",
      "subjectType": [ "Patient" ],
      "item": [ {
        "linkId": "1193164",
        "prefix": "200",
        "text": "STRING:to'Immediatethreatstolife(SPA/OOHversion)'-'Majorbloodloss'stem",
        "type": "choice",
        "required": true,
        "repeats": false,
        "option": [ {
          "valueString": "\"present\", Selected: true"
        } ]
      } ]
    }
  }, {
    "fullUrl": "urn:uuid:40154d1b-3a92-400b-955a-56ae8c322eb5",
    "resource": {
      "resourceType": "QuestionnaireResponse",
      "id": "40154d1b-3a92-400b-955a-56ae8c322eb5",
      "identifier": {
        "value": "1193164"
      },
      "questionnaire": {
        "reference": "urn:uuid:201c0a0b-6440-4fa5-9ab4-427cb953e401"
      },
      "status": "completed",
      "subject": {
        "reference": "urn:uuid:88bbb0ab-0134-4c15-90cf-ee614a3e57fa"
      },
      "context": {
        "reference": "urn:uuid:0fcd1e48-fb33-4d4d-84ed-414a51817777"
      },
      "authored": "2020-10-30T09:45:23+00:00"
    }
  }, {
    "fullUrl": "urn:uuid:201c0a0b-6440-4fa5-9ab4-427cb953e401",
    "resource": {
      "resourceType": "Questionnaire",
      "id": "201c0a0b-6440-4fa5-9ab4-427cb953e401",
      "identifier": [ {
        "value": "1193164"
      } ],
      "version": "2020-10-30T09:45:23.026Z",
      "status": "active",
      "experimental": false,
      "date": "2020-10-30T09:45:23+00:00",
      "publisher": "User ID: 'HOLDENR' User name: 'Rachael Holden' User skill set: 'T3'",
      "lastReviewDate": "2020-10-30",
      "subjectType": [ "Patient" ]
    }
  }, {
    "fullUrl": "urn:uuid:7fc22658-3383-471b-b01e-18f20f5f56ca",
    "resource": {
      "resourceType": "QuestionnaireResponse",
      "id": "7fc22658-3383-471b-b01e-18f20f5f56ca",
      "identifier": {
        "value": "1193164"
      },
      "questionnaire": {
        "reference": "urn:uuid:df29be43-77da-4e14-9efa-ce68b443b4fa"
      },
      "status": "completed",
      "subject": {
        "reference": "urn:uuid:88bbb0ab-0134-4c15-90cf-ee614a3e57fa"
      },
      "context": {
        "reference": "urn:uuid:0fcd1e48-fb33-4d4d-84ed-414a51817777"
      },
      "authored": "2020-10-30T09:45:23+00:00",
      "item": [ {
        "linkId": "Tx221799",
        "text": "STRING:injury,illnessorlabourestablishedinEntryFlow",
        "answer": [ {
          "valueString": "\"present\""
        } ]
      } ]
    }
  }, {
    "fullUrl": "urn:uuid:df29be43-77da-4e14-9efa-ce68b443b4fa",
    "resource": {
      "resourceType": "Questionnaire",
      "id": "df29be43-77da-4e14-9efa-ce68b443b4fa",
      "identifier": [ {
        "value": "1193164"
      } ],
      "version": "2020-10-30T09:45:23.026Z",
      "status": "active",
      "experimental": false,
      "date": "2020-10-30T09:45:23+00:00",
      "publisher": "User ID: 'HOLDENR' User name: 'Rachael Holden' User skill set: 'T3'",
      "lastReviewDate": "2020-10-30",
      "subjectType": [ "Patient" ],
      "item": [ {
        "linkId": "1193164",
        "prefix": "0",
        "text": "STRING:injury,illnessorlabourestablishedinEntryFlow",
        "type": "choice",
        "required": true,
        "repeats": false,
        "option": [ {
          "valueString": "\"present\", Selected: true"
        } ]
      } ]
    }
  }, {
    "fullUrl": "urn:uuid:4e2b449d-1b69-425b-8d75-8f87b633c04c",
    "resource": {
      "resourceType": "QuestionnaireResponse",
      "id": "4e2b449d-1b69-425b-8d75-8f87b633c04c",
      "identifier": {
        "value": "1193164"
      },
      "questionnaire": {
        "reference": "urn:uuid:82ce5ec0-6a0e-4dc1-939f-140e07844293"
      },
      "status": "completed",
      "subject": {
        "reference": "urn:uuid:88bbb0ab-0134-4c15-90cf-ee614a3e57fa"
      },
      "context": {
        "reference": "urn:uuid:0fcd1e48-fb33-4d4d-84ed-414a51817777"
      },
      "authored": "2020-10-30T09:45:23+00:00",
      "item": [ {
        "linkId": "Tx224120",
        "text": "Have you been bleeding RED BLOOD very heavily IN THE LAST 2 HOURS?",
        "answer": [ {
          "valueString": "no"
        } ]
      } ]
    }
  }, {
    "fullUrl": "urn:uuid:82ce5ec0-6a0e-4dc1-939f-140e07844293",
    "resource": {
      "resourceType": "Questionnaire",
      "id": "82ce5ec0-6a0e-4dc1-939f-140e07844293",
      "identifier": [ {
        "value": "1193164"
      } ],
      "version": "2020-10-30T09:45:23.026Z",
      "status": "active",
      "experimental": false,
      "date": "2020-10-30T09:45:23+00:00",
      "publisher": "User ID: 'HOLDENR' User name: 'Rachael Holden' User skill set: 'T3'",
      "lastReviewDate": "2020-10-30",
      "subjectType": [ "Patient" ],
      "item": [ {
        "linkId": "1193164",
        "prefix": "10100",
        "text": "Have you been bleeding RED BLOOD very heavily IN THE LAST 2 HOURS?",
        "type": "choice",
        "required": true,
        "repeats": false,
        "option": [ {
          "valueString": "yes, Selected: false"
        }, {
          "valueString": "not sure, Selected: false"
        }, {
          "valueString": "no, Selected: true"
        } ]
      } ]
    }
  }, {
    "fullUrl": "urn:uuid:6593502e-b3cd-43d9-af19-0d05c8f5e552",
    "resource": {
      "resourceType": "QuestionnaireResponse",
      "id": "6593502e-b3cd-43d9-af19-0d05c8f5e552",
      "identifier": {
        "value": "1193164"
      },
      "questionnaire": {
        "reference": "urn:uuid:05a117ac-9e9d-4bac-89d7-e5c0d7ab4140"
      },
      "status": "completed",
      "subject": {
        "reference": "urn:uuid:88bbb0ab-0134-4c15-90cf-ee614a3e57fa"
      },
      "context": {
        "reference": "urn:uuid:0fcd1e48-fb33-4d4d-84ed-414a51817777"
      },
      "authored": "2020-10-30T09:45:23+00:00",
      "item": [ {
        "linkId": "Tx221343",
        "text": "SocialConcernsExcluded",
        "answer": [ {
          "valueString": "==\"present\""
        } ]
      } ]
    }
  }, {
    "fullUrl": "urn:uuid:05a117ac-9e9d-4bac-89d7-e5c0d7ab4140",
    "resource": {
      "resourceType": "Questionnaire",
      "id": "05a117ac-9e9d-4bac-89d7-e5c0d7ab4140",
      "identifier": [ {
        "value": "1193164"
      } ],
      "version": "2020-10-30T09:45:23.026Z",
      "status": "active",
      "experimental": false,
      "date": "2020-10-30T09:45:23+00:00",
      "publisher": "User ID: 'HOLDENR' User name: 'Rachael Holden' User skill set: 'T3'",
      "lastReviewDate": "2020-10-30",
      "subjectType": [ "Patient" ],
      "item": [ {
        "linkId": "1193164",
        "prefix": "1100",
        "text": "SocialConcernsExcluded",
        "type": "choice",
        "required": true,
        "repeats": false,
        "option": [ {
          "valueString": "==\"present\", Selected: true"
        }, {
          "valueString": "*, Selected: false"
        } ]
      } ]
    }
  }, {
    "fullUrl": "urn:uuid:a32a1ef4-f917-4f37-a330-f48201cfb8b2",
    "resource": {
      "resourceType": "QuestionnaireResponse",
      "id": "a32a1ef4-f917-4f37-a330-f48201cfb8b2",
      "identifier": {
        "value": "1193164"
      },
      "questionnaire": {
        "reference": "urn:uuid:519c0b37-8017-47d2-9f86-348b5637b5ad"
      },
      "status": "completed",
      "subject": {
        "reference": "urn:uuid:88bbb0ab-0134-4c15-90cf-ee614a3e57fa"
      },
      "context": {
        "reference": "urn:uuid:0fcd1e48-fb33-4d4d-84ed-414a51817777"
      },
      "authored": "2020-10-30T09:45:23+00:00",
      "item": [ {
        "linkId": "Tx130011",
        "text": "What is the main problem?",
        "answer": [ {
          "valueString": "injury (specify)"
        } ]
      } ]
    }
  }, {
    "fullUrl": "urn:uuid:519c0b37-8017-47d2-9f86-348b5637b5ad",
    "resource": {
      "resourceType": "Questionnaire",
      "id": "519c0b37-8017-47d2-9f86-348b5637b5ad",
      "identifier": [ {
        "value": "1193164"
      } ],
      "version": "2020-10-30T09:45:23.026Z",
      "status": "active",
      "experimental": false,
      "date": "2020-10-30T09:45:23+00:00",
      "publisher": "User ID: 'HOLDENR' User name: 'Rachael Holden' User skill set: 'T3'",
      "lastReviewDate": "2020-10-30",
      "subjectType": [ "Patient" ],
      "item": [ {
        "linkId": "1193164",
        "prefix": "2300",
        "text": "What is the main problem?",
        "type": "choice",
        "required": true,
        "repeats": false,
        "option": [ {
          "valueString": "the individual has been told to follow a particular course of action (specify), Selected: false"
        }, {
          "valueString": "the individual is an identified frequent caller, Selected: false"
        }, {
          "valueString": "injury (specify), Selected: true"
        }, {
          "valueString": "illness or other health problem (specify), Selected: false"
        }, {
          "valueString": "child protection/vulnerable adult concern, Selected: false"
        }, {
          "valueString": "social or domestic emergency, Selected: false"
        }, {
          "valueString": "the environment potentially poses an immediate threat to life (specify), Selected: false"
        } ]
      } ]
    }
  }, {
    "fullUrl": "urn:uuid:59838e55-0033-4ba2-96a4-1ca0a68575a6",
    "resource": {
      "resourceType": "QuestionnaireResponse",
      "id": "59838e55-0033-4ba2-96a4-1ca0a68575a6",
      "identifier": {
        "value": "1193164"
      },
      "questionnaire": {
        "reference": "urn:uuid:663ba3a4-3959-4502-8eb1-add4e86284f8"
      },
      "status": "completed",
      "subject": {
        "reference": "urn:uuid:88bbb0ab-0134-4c15-90cf-ee614a3e57fa"
      },
      "context": {
        "reference": "urn:uuid:0fcd1e48-fb33-4d4d-84ed-414a51817777"
      },
      "authored": "2020-10-30T09:45:23+00:00",
      "item": [ {
        "linkId": "Tx224119",
        "text": "FROM WHAT YOU HAVE HEARD IS THIS A MINOR INJURY?",
        "answer": [ {
          "valueString": "yes - a minor bite or sting (specify)"
        } ]
      } ]
    }
  }, {
    "fullUrl": "urn:uuid:663ba3a4-3959-4502-8eb1-add4e86284f8",
    "resource": {
      "resourceType": "Questionnaire",
      "id": "663ba3a4-3959-4502-8eb1-add4e86284f8",
      "identifier": [ {
        "value": "1193164"
      } ],
      "version": "2020-10-30T09:45:23.026Z",
      "status": "active",
      "experimental": false,
      "date": "2020-10-30T09:45:23+00:00",
      "publisher": "User ID: 'HOLDENR' User name: 'Rachael Holden' User skill set: 'T3'",
      "lastReviewDate": "2020-10-30",
      "subjectType": [ "Patient" ],
      "item": [ {
        "linkId": "1193164",
        "prefix": "15000",
        "text": "FROM WHAT YOU HAVE HEARD IS THIS A MINOR INJURY?",
        "type": "choice",
        "required": true,
        "repeats": false,
        "option": [ {
          "valueString": "yes - a minor bite or sting (specify), Selected: true"
        }, {
          "valueString": "yes - a scratch, graze or minor wound, Selected: false"
        }, {
          "valueString": "yes - skin minor foreign body or skin glued, Selected: false"
        }, {
          "valueString": "yes - trauma blisters, Selected: false"
        }, {
          "valueString": "yes - a single finger or toe injury, Selected: false"
        }, {
          "valueString": "not sure, Selected: false"
        }, {
          "valueString": "no, Selected: false"
        } ]
      } ]
    }
  }, {
    "fullUrl": "urn:uuid:339dd4b7-8f2d-4d99-9c61-7d74ec033aed",
    "resource": {
      "resourceType": "QuestionnaireResponse",
      "id": "339dd4b7-8f2d-4d99-9c61-7d74ec033aed",
      "identifier": {
        "value": "1193164"
      },
      "questionnaire": {
        "reference": "urn:uuid:1ea3c2d3-747b-42c1-8b71-edea112935b1"
      },
      "status": "completed",
      "subject": {
        "reference": "urn:uuid:88bbb0ab-0134-4c15-90cf-ee614a3e57fa"
      },
      "context": {
        "reference": "urn:uuid:0fcd1e48-fb33-4d4d-84ed-414a51817777"
      },
      "authored": "2020-10-30T09:45:23+00:00",
      "item": [ {
        "linkId": "Tx225125",
        "text": "SYSTEM_INJURYMODULE",
        "answer": [ {
          "valueString": "==\"injurymodule\""
        } ]
      } ]
    }
  }, {
    "fullUrl": "urn:uuid:1ea3c2d3-747b-42c1-8b71-edea112935b1",
    "resource": {
      "resourceType": "Questionnaire",
      "id": "1ea3c2d3-747b-42c1-8b71-edea112935b1",
      "identifier": [ {
        "value": "1193164"
      } ],
      "version": "2020-10-30T09:45:23.026Z",
      "status": "active",
      "experimental": false,
      "date": "2020-10-30T09:45:23+00:00",
      "publisher": "User ID: 'HOLDENR' User name: 'Rachael Holden' User skill set: 'T3'",
      "lastReviewDate": "2020-10-30",
      "subjectType": [ "Patient" ],
      "item": [ {
        "linkId": "1193164",
        "prefix": "23700",
        "text": "SYSTEM_INJURYMODULE",
        "type": "choice",
        "required": true,
        "repeats": false,
        "option": [ {
          "valueString": "==\"injurymodule\", Selected: true"
        }, {
          "valueString": "*, Selected: false"
        } ]
      } ]
    }
  }, {
    "fullUrl": "urn:uuid:ef613531-2fa2-41a9-91b4-8d3f4b4e0468",
    "resource": {
      "resourceType": "QuestionnaireResponse",
      "id": "ef613531-2fa2-41a9-91b4-8d3f4b4e0468",
      "identifier": {
        "value": "1193164"
      },
      "questionnaire": {
        "reference": "urn:uuid:d726a3d4-6755-4a43-abe0-1ad5822913a2"
      },
      "status": "completed",
      "subject": {
        "reference": "urn:uuid:88bbb0ab-0134-4c15-90cf-ee614a3e57fa"
      },
      "context": {
        "reference": "urn:uuid:0fcd1e48-fb33-4d4d-84ed-414a51817777"
      },
      "authored": "2020-10-30T09:45:23+00:00"
    }
  }, {
    "fullUrl": "urn:uuid:d726a3d4-6755-4a43-abe0-1ad5822913a2",
    "resource": {
      "resourceType": "Questionnaire",
      "id": "d726a3d4-6755-4a43-abe0-1ad5822913a2",
      "identifier": [ {
        "value": "1193164"
      } ],
      "version": "2020-10-30T09:45:23.026Z",
      "status": "active",
      "experimental": false,
      "date": "2020-10-30T09:45:23+00:00",
      "publisher": "User ID: 'HOLDENR' User name: 'Rachael Holden' User skill set: 'T3'",
      "lastReviewDate": "2020-10-30",
      "subjectType": [ "Patient" ]
    }
  }, {
    "fullUrl": "urn:uuid:f753287f-95b7-4bad-96b3-8ed349c0ed13",
    "resource": {
      "resourceType": "QuestionnaireResponse",
      "id": "f753287f-95b7-4bad-96b3-8ed349c0ed13",
      "identifier": {
        "value": "1193164"
      },
      "questionnaire": {
        "reference": "urn:uuid:9c5add02-3391-41e2-a927-b2f98cc17807"
      },
      "status": "completed",
      "subject": {
        "reference": "urn:uuid:88bbb0ab-0134-4c15-90cf-ee614a3e57fa"
      },
      "context": {
        "reference": "urn:uuid:0fcd1e48-fb33-4d4d-84ed-414a51817777"
      },
      "authored": "2020-10-30T09:45:23+00:00",
      "item": [ {
        "linkId": "Tx3529",
        "text": "WHAT WAS THE CAUSE?",
        "answer": [ {
          "valueString": "an insect or spider (specify if known)"
        } ]
      } ]
    }
  }, {
    "fullUrl": "urn:uuid:9c5add02-3391-41e2-a927-b2f98cc17807",
    "resource": {
      "resourceType": "Questionnaire",
      "id": "9c5add02-3391-41e2-a927-b2f98cc17807",
      "identifier": [ {
        "value": "1193164"
      } ],
      "version": "2020-10-30T09:45:23.026Z",
      "status": "active",
      "experimental": false,
      "date": "2020-10-30T09:45:23+00:00",
      "publisher": "User ID: 'HOLDENR' User name: 'Rachael Holden' User skill set: 'T3'",
      "lastReviewDate": "2020-10-30",
      "subjectType": [ "Patient" ],
      "item": [ {
        "linkId": "1193164",
        "prefix": "0",
        "text": "WHAT WAS THE CAUSE?",
        "type": "choice",
        "required": true,
        "repeats": false,
        "option": [ {
          "valueString": "a person, Selected: false"
        }, {
          "valueString": "an animal (specify if known), Selected: false"
        }, {
          "valueString": "a snake (specify if known), Selected: false"
        }, {
          "valueString": "an insect or spider (specify if known), Selected: true"
        }, {
          "valueString": "stung by a water creature (specify if known), Selected: false"
        }, {
          "valueString": "bitten by a water creature (specify if known), Selected: false"
        }, {
          "valueString": "not sure, Selected: false"
        } ]
      } ]
    }
  }, {
    "fullUrl": "urn:uuid:3ed157c6-0602-4505-a53b-e1d81d99eddd",
    "resource": {
      "resourceType": "QuestionnaireResponse",
      "id": "3ed157c6-0602-4505-a53b-e1d81d99eddd",
      "identifier": {
        "value": "1193164"
      },
      "questionnaire": {
        "reference": "urn:uuid:b765dc05-492f-4d71-a071-e81a112a6754"
      },
      "status": "completed",
      "subject": {
        "reference": "urn:uuid:88bbb0ab-0134-4c15-90cf-ee614a3e57fa"
      },
      "context": {
        "reference": "urn:uuid:0fcd1e48-fb33-4d4d-84ed-414a51817777"
      },
      "authored": "2020-10-30T09:45:23+00:00"
    }
  }, {
    "fullUrl": "urn:uuid:b765dc05-492f-4d71-a071-e81a112a6754",
    "resource": {
      "resourceType": "Questionnaire",
      "id": "b765dc05-492f-4d71-a071-e81a112a6754",
      "identifier": [ {
        "value": "1193164"
      } ],
      "version": "2020-10-30T09:45:23.026Z",
      "status": "active",
      "experimental": false,
      "date": "2020-10-30T09:45:23+00:00",
      "publisher": "User ID: 'HOLDENR' User name: 'Rachael Holden' User skill set: 'T3'",
      "lastReviewDate": "2020-10-30",
      "subjectType": [ "Patient" ]
    }
  }, {
    "fullUrl": "urn:uuid:10c09cb7-1b0a-4b50-b133-1b5e99197474",
    "resource": {
      "resourceType": "QuestionnaireResponse",
      "id": "10c09cb7-1b0a-4b50-b133-1b5e99197474",
      "identifier": {
        "value": "1193164"
      },
      "questionnaire": {
        "reference": "urn:uuid:4f7b90af-81ee-4fb0-842f-e591ebca3e67"
      },
      "status": "completed",
      "subject": {
        "reference": "urn:uuid:88bbb0ab-0134-4c15-90cf-ee614a3e57fa"
      },
      "context": {
        "reference": "urn:uuid:0fcd1e48-fb33-4d4d-84ed-414a51817777"
      },
      "authored": "2020-10-30T09:45:23+00:00",
      "item": [ {
        "linkId": "Tx220302",
        "text": "Did it happen WITHIN THE LAST 6 HOURS?",
        "answer": [ {
          "valueString": "no"
        } ]
      } ]
    }
  }, {
    "fullUrl": "urn:uuid:4f7b90af-81ee-4fb0-842f-e591ebca3e67",
    "resource": {
      "resourceType": "Questionnaire",
      "id": "4f7b90af-81ee-4fb0-842f-e591ebca3e67",
      "identifier": [ {
        "value": "1193164"
      } ],
      "version": "2020-10-30T09:45:23.026Z",
      "status": "active",
      "experimental": false,
      "date": "2020-10-30T09:45:23+00:00",
      "publisher": "User ID: 'HOLDENR' User name: 'Rachael Holden' User skill set: 'T3'",
      "lastReviewDate": "2020-10-30",
      "subjectType": [ "Patient" ],
      "item": [ {
        "linkId": "1193164",
        "prefix": "0",
        "text": "Did it happen WITHIN THE LAST 6 HOURS?",
        "type": "choice",
        "required": true,
        "repeats": false,
        "option": [ {
          "valueString": "yes, Selected: false"
        }, {
          "valueString": "not sure, Selected: false"
        }, {
          "valueString": "no, Selected: true"
        } ]
      } ]
    }
  }, {
    "fullUrl": "urn:uuid:d31a48a4-f68d-41c6-b521-1cb001d34285",
    "resource": {
      "resourceType": "QuestionnaireResponse",
      "id": "d31a48a4-f68d-41c6-b521-1cb001d34285",
      "identifier": {
        "value": "1193164"
      },
      "questionnaire": {
        "reference": "urn:uuid:774ef56e-3aaa-466f-bbef-043f53a4a517"
      },
      "status": "completed",
      "subject": {
        "reference": "urn:uuid:88bbb0ab-0134-4c15-90cf-ee614a3e57fa"
      },
      "context": {
        "reference": "urn:uuid:0fcd1e48-fb33-4d4d-84ed-414a51817777"
      },
      "authored": "2020-10-30T09:45:23+00:00",
      "item": [ {
        "linkId": "Tx3543",
        "text": "Have you been stung 10 or more times?",
        "answer": [ {
          "valueString": "no"
        } ]
      } ]
    }
  }, {
    "fullUrl": "urn:uuid:774ef56e-3aaa-466f-bbef-043f53a4a517",
    "resource": {
      "resourceType": "Questionnaire",
      "id": "774ef56e-3aaa-466f-bbef-043f53a4a517",
      "identifier": [ {
        "value": "1193164"
      } ],
      "version": "2020-10-30T09:45:23.026Z",
      "status": "active",
      "experimental": false,
      "date": "2020-10-30T09:45:23+00:00",
      "publisher": "User ID: 'HOLDENR' User name: 'Rachael Holden' User skill set: 'T3'",
      "lastReviewDate": "2020-10-30",
      "subjectType": [ "Patient" ],
      "item": [ {
        "linkId": "1193164",
        "prefix": "2900",
        "text": "Have you been stung 10 or more times?",
        "type": "choice",
        "required": true,
        "repeats": false,
        "option": [ {
          "valueString": "yes, Selected: false"
        }, {
          "valueString": "not sure, Selected: false"
        }, {
          "valueString": "no, Selected: true"
        } ]
      } ]
    }
  }, {
    "fullUrl": "urn:uuid:1c2b1157-b372-4dfa-8495-072cb76dc515",
    "resource": {
      "resourceType": "QuestionnaireResponse",
      "id": "1c2b1157-b372-4dfa-8495-072cb76dc515",
      "identifier": {
        "value": "1193164"
      },
      "questionnaire": {
        "reference": "urn:uuid:a94e2beb-3485-4b5f-a74a-0d5fe8445380"
      },
      "status": "completed",
      "subject": {
        "reference": "urn:uuid:88bbb0ab-0134-4c15-90cf-ee614a3e57fa"
      },
      "context": {
        "reference": "urn:uuid:0fcd1e48-fb33-4d4d-84ed-414a51817777"
      },
      "authored": "2020-10-30T09:45:23+00:00",
      "item": [ {
        "linkId": "Tx3557",
        "text": "Have you got nausea or vomiting now?",
        "answer": [ {
          "valueString": "no"
        } ]
      } ]
    }
  }, {
    "fullUrl": "urn:uuid:a94e2beb-3485-4b5f-a74a-0d5fe8445380",
    "resource": {
      "resourceType": "Questionnaire",
      "id": "a94e2beb-3485-4b5f-a74a-0d5fe8445380",
      "identifier": [ {
        "value": "1193164"
      } ],
      "version": "2020-10-30T09:45:23.026Z",
      "status": "active",
      "experimental": false,
      "date": "2020-10-30T09:45:23+00:00",
      "publisher": "User ID: 'HOLDENR' User name: 'Rachael Holden' User skill set: 'T3'",
      "lastReviewDate": "2020-10-30",
      "subjectType": [ "Patient" ],
      "item": [ {
        "linkId": "1193164",
        "prefix": "3000",
        "text": "Have you got nausea or vomiting now?",
        "type": "choice",
        "required": true,
        "repeats": false,
        "option": [ {
          "valueString": "yes, Selected: false"
        }, {
          "valueString": "not sure, Selected: false"
        }, {
          "valueString": "no, Selected: true"
        } ]
      } ]
    }
  }, {
    "fullUrl": "urn:uuid:68d70f4d-ad00-4ed6-b878-0eead3bf9f6a",
    "resource": {
      "resourceType": "QuestionnaireResponse",
      "id": "68d70f4d-ad00-4ed6-b878-0eead3bf9f6a",
      "identifier": {
        "value": "1193164"
      },
      "questionnaire": {
        "reference": "urn:uuid:3aa613c4-6326-4d4e-b1e7-ae3471931c74"
      },
      "status": "completed",
      "subject": {
        "reference": "urn:uuid:88bbb0ab-0134-4c15-90cf-ee614a3e57fa"
      },
      "context": {
        "reference": "urn:uuid:0fcd1e48-fb33-4d4d-84ed-414a51817777"
      },
      "authored": "2020-10-30T09:45:23+00:00",
      "item": [ {
        "linkId": "Tx3561",
        "text": "Have you been bitten or stung in any of these areas?",
        "answer": [ {
          "valueString": "no"
        } ]
      } ]
    }
  }, {
    "fullUrl": "urn:uuid:3aa613c4-6326-4d4e-b1e7-ae3471931c74",
    "resource": {
      "resourceType": "Questionnaire",
      "id": "3aa613c4-6326-4d4e-b1e7-ae3471931c74",
      "identifier": [ {
        "value": "1193164"
      } ],
      "version": "2020-10-30T09:45:23.026Z",
      "status": "active",
      "experimental": false,
      "date": "2020-10-30T09:45:23+00:00",
      "publisher": "User ID: 'HOLDENR' User name: 'Rachael Holden' User skill set: 'T3'",
      "lastReviewDate": "2020-10-30",
      "subjectType": [ "Patient" ],
      "item": [ {
        "linkId": "1193164",
        "prefix": "3900",
        "text": "Have you been bitten or stung in any of these areas?",
        "type": "choice",
        "required": true,
        "repeats": false,
        "option": [ {
          "valueString": "the eyeball, Selected: false"
        }, {
          "valueString": "inside the mouth or on the lips, Selected: false"
        }, {
          "valueString": "limb, Selected: false"
        }, {
          "valueString": "not sure, Selected: false"
        }, {
          "valueString": "no, Selected: true"
        } ]
      } ]
    }
  }, {
    "fullUrl": "urn:uuid:08ac8053-bf4b-4e44-b5ba-8a988deca836",
    "resource": {
      "resourceType": "QuestionnaireResponse",
      "id": "08ac8053-bf4b-4e44-b5ba-8a988deca836",
      "identifier": {
        "value": "1193164"
      },
      "questionnaire": {
        "reference": "urn:uuid:8c2feab8-06d2-4a57-a846-292e9c11b996"
      },
      "status": "completed",
      "subject": {
        "reference": "urn:uuid:88bbb0ab-0134-4c15-90cf-ee614a3e57fa"
      },
      "context": {
        "reference": "urn:uuid:0fcd1e48-fb33-4d4d-84ed-414a51817777"
      },
      "authored": "2020-10-30T09:45:23+00:00",
      "item": [ {
        "linkId": "Tx3544",
        "text": "Is the insect or part of the insect still attached to the skin?",
        "answer": [ {
          "valueString": "no"
        } ]
      } ]
    }
  }, {
    "fullUrl": "urn:uuid:8c2feab8-06d2-4a57-a846-292e9c11b996",
    "resource": {
      "resourceType": "Questionnaire",
      "id": "8c2feab8-06d2-4a57-a846-292e9c11b996",
      "identifier": [ {
        "value": "1193164"
      } ],
      "version": "2020-10-30T09:45:23.026Z",
      "status": "active",
      "experimental": false,
      "date": "2020-10-30T09:45:23+00:00",
      "publisher": "User ID: 'HOLDENR' User name: 'Rachael Holden' User skill set: 'T3'",
      "lastReviewDate": "2020-10-30",
      "subjectType": [ "Patient" ],
      "item": [ {
        "linkId": "1193164",
        "prefix": "9400",
        "text": "Is the insect or part of the insect still attached to the skin?",
        "type": "choice",
        "required": true,
        "repeats": false,
        "option": [ {
          "valueString": "yes, Selected: false"
        }, {
          "valueString": "not sure, Selected: false"
        }, {
          "valueString": "no, Selected: true"
        } ]
      } ]
    }
  }, {
    "fullUrl": "urn:uuid:4b030524-c7b7-42e2-99ce-68d11d78b887",
    "resource": {
      "resourceType": "QuestionnaireResponse",
      "id": "4b030524-c7b7-42e2-99ce-68d11d78b887",
      "identifier": {
        "value": "1193164"
      },
      "questionnaire": {
        "reference": "urn:uuid:a772d992-deda-415a-8bc4-10ab6e547a56"
      },
      "status": "completed",
      "subject": {
        "reference": "urn:uuid:88bbb0ab-0134-4c15-90cf-ee614a3e57fa"
      },
      "context": {
        "reference": "urn:uuid:0fcd1e48-fb33-4d4d-84ed-414a51817777"
      },
      "authored": "2020-10-30T09:45:23+00:00",
      "item": [ {
        "linkId": "Tx1449",
        "text": "Have you got very severe pain deep inside the affected area?",
        "answer": [ {
          "valueString": "yes"
        } ]
      } ]
    }
  }, {
    "fullUrl": "urn:uuid:a772d992-deda-415a-8bc4-10ab6e547a56",
    "resource": {
      "resourceType": "Questionnaire",
      "id": "a772d992-deda-415a-8bc4-10ab6e547a56",
      "identifier": [ {
        "value": "1193164"
      } ],
      "version": "2020-10-30T09:45:23.026Z",
      "status": "active",
      "experimental": false,
      "date": "2020-10-30T09:45:23+00:00",
      "publisher": "User ID: 'HOLDENR' User name: 'Rachael Holden' User skill set: 'T3'",
      "lastReviewDate": "2020-10-30",
      "subjectType": [ "Patient" ],
      "item": [ {
        "linkId": "1193164",
        "prefix": "19700",
        "text": "Have you got very severe pain deep inside the affected area?",
        "type": "choice",
        "required": true,
        "repeats": false,
        "option": [ {
          "valueString": "yes, Selected: true"
        }, {
          "valueString": "not sure, Selected: false"
        }, {
          "valueString": "no, Selected: false"
        } ]
      } ]
    }
  }, {
    "fullUrl": "urn:uuid:0cd8eb94-2ab2-4a37-b8aa-02a3c78f0792",
    "resource": {
      "resourceType": "QuestionnaireResponse",
      "id": "0cd8eb94-2ab2-4a37-b8aa-02a3c78f0792",
      "identifier": {
        "value": "1193164"
      },
      "questionnaire": {
        "reference": "urn:uuid:f9fa3d73-816c-412d-a875-bd685242007d"
      },
      "status": "completed",
      "subject": {
        "reference": "urn:uuid:88bbb0ab-0134-4c15-90cf-ee614a3e57fa"
      },
      "context": {
        "reference": "urn:uuid:0fcd1e48-fb33-4d4d-84ed-414a51817777"
      },
      "authored": "2020-10-30T09:45:23+00:00",
      "item": [ {
        "linkId": "Tx221449",
        "text": "STRING:SDPCFullPrimaryCareassessmentandprescribingcapability",
        "answer": [ {
          "valueString": "\"PC full Primary Care assessment and prescribing capability\""
        } ]
      } ]
    }
  }, {
    "fullUrl": "urn:uuid:f9fa3d73-816c-412d-a875-bd685242007d",
    "resource": {
      "resourceType": "Questionnaire",
      "id": "f9fa3d73-816c-412d-a875-bd685242007d",
      "identifier": [ {
        "value": "1193164"
      } ],
      "version": "2020-10-30T09:45:23.026Z",
      "status": "active",
      "experimental": false,
      "date": "2020-10-30T09:45:23+00:00",
      "publisher": "User ID: 'HOLDENR' User name: 'Rachael Holden' User skill set: 'T3'",
      "lastReviewDate": "2020-10-30",
      "subjectType": [ "Patient" ],
      "item": [ {
        "linkId": "1193164",
        "prefix": "19900",
        "text": "STRING:SDPCFullPrimaryCareassessmentandprescribingcapability",
        "type": "choice",
        "required": true,
        "repeats": false,
        "option": [ {
          "valueString": "\"PC full Primary Care assessment and prescribing capability\", Selected: true"
        } ]
      } ]
    }
  }, {
    "fullUrl": "urn:uuid:90723927-2436-489c-bcac-db014d620835",
    "resource": {
      "resourceType": "QuestionnaireResponse",
      "id": "90723927-2436-489c-bcac-db014d620835",
      "identifier": {
        "value": "1193164"
      },
      "questionnaire": {
        "reference": "urn:uuid:419c32fd-f2a1-4903-b052-d1b50e890092"
      },
      "status": "completed",
      "subject": {
        "reference": "urn:uuid:88bbb0ab-0134-4c15-90cf-ee614a3e57fa"
      },
      "context": {
        "reference": "urn:uuid:0fcd1e48-fb33-4d4d-84ed-414a51817777"
      },
      "authored": "2020-10-30T09:45:23+00:00"
    }
  }, {
    "fullUrl": "urn:uuid:419c32fd-f2a1-4903-b052-d1b50e890092",
    "resource": {
      "resourceType": "Questionnaire",
      "id": "419c32fd-f2a1-4903-b052-d1b50e890092",
      "identifier": [ {
        "value": "1193164"
      } ],
      "version": "2020-10-30T09:45:23.026Z",
      "status": "active",
      "experimental": false,
      "date": "2020-10-30T09:45:23+00:00",
      "publisher": "User ID: 'HOLDENR' User name: 'Rachael Holden' User skill set: 'T3'",
      "lastReviewDate": "2020-10-30",
      "subjectType": [ "Patient" ]
    }
  }, {
    "fullUrl": "urn:uuid:97aa1d5f-204d-4bdf-9a42-bf371f61a392",
    "resource": {
      "resourceType": "QuestionnaireResponse",
      "id": "97aa1d5f-204d-4bdf-9a42-bf371f61a392",
      "identifier": {
        "value": "1193164"
      },
      "questionnaire": {
        "reference": "urn:uuid:58cc32ad-249c-4939-8edf-ef9360cc6249"
      },
      "status": "completed",
      "subject": {
        "reference": "urn:uuid:88bbb0ab-0134-4c15-90cf-ee614a3e57fa"
      },
      "context": {
        "reference": "urn:uuid:0fcd1e48-fb33-4d4d-84ed-414a51817777"
      },
      "authored": "2020-10-30T09:45:23+00:00"
    }
  }, {
    "fullUrl": "urn:uuid:58cc32ad-249c-4939-8edf-ef9360cc6249",
    "resource": {
      "resourceType": "Questionnaire",
      "id": "58cc32ad-249c-4939-8edf-ef9360cc6249",
      "identifier": [ {
        "value": "1193164"
      } ],
      "version": "2020-10-30T09:45:23.026Z",
      "status": "active",
      "experimental": false,
      "date": "2020-10-30T09:45:23+00:00",
      "publisher": "User ID: 'HOLDENR' User name: 'Rachael Holden' User skill set: 'T3'",
      "lastReviewDate": "2020-10-30",
      "subjectType": [ "Patient" ]
    }
  }, {
    "fullUrl": "urn:uuid:7aea0e5f-9ce7-4a09-b961-ab5b0fab5303",
    "resource": {
      "resourceType": "QuestionnaireResponse",
      "id": "7aea0e5f-9ce7-4a09-b961-ab5b0fab5303",
      "identifier": {
        "value": "1193164"
      },
      "questionnaire": {
        "reference": "urn:uuid:79532c42-8265-4fb0-969d-d4c97456202b"
      },
      "status": "completed",
      "subject": {
        "reference": "urn:uuid:88bbb0ab-0134-4c15-90cf-ee614a3e57fa"
      },
      "context": {
        "reference": "urn:uuid:0fcd1e48-fb33-4d4d-84ed-414a51817777"
      },
      "authored": "2020-10-30T09:45:23+00:00"
    }
  }, {
    "fullUrl": "urn:uuid:79532c42-8265-4fb0-969d-d4c97456202b",
    "resource": {
      "resourceType": "Questionnaire",
      "id": "79532c42-8265-4fb0-969d-d4c97456202b",
      "identifier": [ {
        "value": "1193164"
      } ],
      "version": "2020-10-30T09:45:23.026Z",
      "status": "active",
      "experimental": false,
      "date": "2020-10-30T09:45:23+00:00",
      "publisher": "User ID: 'HOLDENR' User name: 'Rachael Holden' User skill set: 'T3'",
      "lastReviewDate": "2020-10-30",
      "subjectType": [ "Patient" ]
    }
  }, {
    "fullUrl": "urn:uuid:14b7969a-4b2d-410e-bcdc-5f71ed2ec7c9",
    "resource": {
      "resourceType": "Observation",
      "id": "14b7969a-4b2d-410e-bcdc-5f71ed2ec7c9",
      "status": "final",
      "code": {
        "coding": [ {
          "system": "http://snomed.info/sct",
          "code": "33962009",
          "display": "Presenting complaint"
        } ]
      },
      "subject": {
        "reference": "urn:uuid:88bbb0ab-0134-4c15-90cf-ee614a3e57fa"
      },
      "context": {
        "reference": "urn:uuid:0fcd1e48-fb33-4d4d-84ed-414a51817777"
      }
    }
  }, {
    "fullUrl": "urn:uuid:3ed6c0e4-1afd-405c-bfa5-79e20cdfbfba",
    "resource": {
      "resourceType": "PractitionerRole",
      "id": "3ed6c0e4-1afd-405c-bfa5-79e20cdfbfba",
      "practitioner": {
        "reference": "urn:uuid:88f37c28-aad4-4017-bb3e-faef898a7539"
      },
      "organization": {
        "reference": "urn:uuid:cc5b1c95-aeb6-4d51-ab6b-b582d84d1029"
      },
      "code": [ {
        "coding": [ {
          "system": "2.16.840.1.113883.2.1.3.2.4.17.339",
          "code": "DOCTOR",
          "display": "Doctor"
        } ]
      } ]
    }
  }, {
    "fullUrl": "urn:uuid:cc5b1c95-aeb6-4d51-ab6b-b582d84d1029",
    "resource": {
      "resourceType": "Organization",
      "id": "cc5b1c95-aeb6-4d51-ab6b-b582d84d1029",
      "identifier": [ {
        "value": "RYA06"
      } ],
      "name": "WMAS - Navigation Point Call Centre (West Midlands Single Instance)"
    }
  }, {
    "fullUrl": "urn:uuid:02c07fb5-88a9-4b80-9e3d-a7dbfcb901fb",
    "resource": {
      "resourceType": "PractitionerRole",
      "id": "02c07fb5-88a9-4b80-9e3d-a7dbfcb901fb",
      "practitioner": {
        "reference": "urn:uuid:3c696805-a75e-4fb1-a0c4-4275e4d899f6"
      },
      "organization": {
        "reference": "urn:uuid:dece8e9f-35c6-4fbd-b3a4-9f9520fc8525"
      },
      "code": [ {
        "coding": [ {
          "system": "2.16.840.1.113883.2.1.3.2.4.17.196",
          "code": "R0010",
          "display": "Medical Director"
        } ]
      } ]
    }
  }, {
    "fullUrl": "urn:uuid:dece8e9f-35c6-4fbd-b3a4-9f9520fc8525",
    "resource": {
      "resourceType": "Organization",
      "id": "dece8e9f-35c6-4fbd-b3a4-9f9520fc8525",
      "identifier": [ {
        "value": "RYA06"
      } ],
      "name": "West Midlands Single Instance"
    }
  }, {
    "fullUrl": "urn:uuid:c315fa78-e9a9-4734-9b48-7bd82eaf641e",
    "resource": {
      "resourceType": "RelatedPerson",
      "id": "c315fa78-e9a9-4734-9b48-7bd82eaf641e",
      "patient": {
        "reference": "urn:uuid:88bbb0ab-0134-4c15-90cf-ee614a3e57fa"
      },
      "relationship": {
        "coding": [ {
          "system": "http://hl7.org/fhir/v2/0131",
          "code": "C",
          "display": "Emergency Contact"
        } ]
      },
      "telecom": [ {
        "system": "phone",
        "value": "tel:01204428013"
      } ]
    }
  }, {
    "fullUrl": "urn:uuid:4ddf7aef-ad0b-406d-a51a-38780697e874",
    "resource": {
      "resourceType": "Device",
      "id": "4ddf7aef-ad0b-406d-a51a-38780697e874",
      "model": "111 Adaptor",
      "version": "1.0.1"
    }
  }, {
    "fullUrl": "urn:uuid:6aaae01b-3d4a-4f64-863c-b15354ffffd4",
    "resource": {
      "resourceType": "List",
      "id": "6aaae01b-3d4a-4f64-863c-b15354ffffd4",
      "status": "current",
      "mode": "working",
      "title": "111 Report List",
      "code": {
        "coding": [ {
          "system": "http://snomed.info/sct",
          "code": "225390008",
          "display": "Triage"
        } ]
      },
      "subject": {
        "reference": "urn:uuid:88bbb0ab-0134-4c15-90cf-ee614a3e57fa"
      },
      "encounter": {
        "reference": "urn:uuid:0fcd1e48-fb33-4d4d-84ed-414a51817777"
      },
      "date": "2025-10-30T09:45:22+00:00",
      "source": {
        "reference": "urn:uuid:4ddf7aef-ad0b-406d-a51a-38780697e874"
      },
      "orderedBy": {
        "coding": [ {
          "system": "http://hl7.org/fhir/list-order",
          "code": "event-date",
          "display": "Sorted by Event Date"
        } ]
      },
      "entry": [ {
        "item": {
          "reference": "urn:uuid:c315fa78-e9a9-4734-9b48-7bd82eaf641e"
        }
      }, {
        "item": {
          "reference": "urn:uuid:f5968801-7935-4fc7-9b0d-41eb9cc815c7"
        }
      }, {
        "item": {
          "reference": "urn:uuid:3c696805-a75e-4fb1-a0c4-4275e4d899f6"
        }
      }, {
        "item": {
          "reference": "urn:uuid:14b7969a-4b2d-410e-bcdc-5f71ed2ec7c9"
        }
      }, {
        "item": {
          "reference": "urn:uuid:588d135f-1692-4646-8ea9-c213d3cc8b9d"
        }
      }, {
        "item": {
          "reference": "urn:uuid:14e888bd-3338-4827-8643-4727faaa9e46"
        }
      }, {
        "item": {
          "reference": "urn:uuid:442b04c6-3293-46ba-be4e-c744d1e03ab9"
        }
      }, {
        "item": {
          "reference": "urn:uuid:88f37c28-aad4-4017-bb3e-faef898a7539"
        }
      }, {
        "item": {
          "reference": "urn:uuid:cc5b1c95-aeb6-4d51-ab6b-b582d84d1029"
        }
      }, {
        "item": {
          "reference": "urn:uuid:dece8e9f-35c6-4fbd-b3a4-9f9520fc8525"
        }
      }, {
        "item": {
          "reference": "urn:uuid:54dfcf29-5d9a-404f-9ac4-2b705b6b5ade"
        }
      }, {
        "item": {
          "reference": "urn:uuid:a772d992-deda-415a-8bc4-10ab6e547a56"
        }
      }, {
        "item": {
          "reference": "urn:uuid:58cc32ad-249c-4939-8edf-ef9360cc6249"
        }
      }, {
        "item": {
          "reference": "urn:uuid:a3a0765d-33d0-4e80-af17-e83669894fce"
        }
      }, {
        "item": {
          "reference": "urn:uuid:a4d4b9fd-6e42-409e-91df-a71cbffb511a"
        }
      }, {
        "item": {
          "reference": "urn:uuid:08ac8053-bf4b-4e44-b5ba-8a988deca836"
        }
      }, {
        "item": {
          "reference": "urn:uuid:97aa1d5f-204d-4bdf-9a42-bf371f61a392"
        }
      }, {
        "item": {
          "reference": "urn:uuid:59838e55-0033-4ba2-96a4-1ca0a68575a6"
        }
      }, {
        "item": {
          "reference": "urn:uuid:d726a3d4-6755-4a43-abe0-1ad5822913a2"
        }
      }, {
        "item": {
          "reference": "urn:uuid:774ef56e-3aaa-466f-bbef-043f53a4a517"
        }
      }, {
        "item": {
          "reference": "urn:uuid:d31a48a4-f68d-41c6-b521-1cb001d34285"
        }
      }, {
        "item": {
          "reference": "urn:uuid:1ea3c2d3-747b-42c1-8b71-edea112935b1"
        }
      }, {
        "item": {
          "reference": "urn:uuid:4e2b449d-1b69-425b-8d75-8f87b633c04c"
        }
      }, {
        "item": {
          "reference": "urn:uuid:395a1ca8-75bf-459e-ae95-6fe1f28811e0"
        }
      }, {
        "item": {
          "reference": "urn:uuid:3ed157c6-0602-4505-a53b-e1d81d99eddd"
        }
      }, {
        "item": {
          "reference": "urn:uuid:419c32fd-f2a1-4903-b052-d1b50e890092"
        }
      }, {
        "item": {
          "reference": "urn:uuid:8c2feab8-06d2-4a57-a846-292e9c11b996"
        }
      }, {
        "item": {
          "reference": "urn:uuid:e1bd2200-2b39-417e-98f2-63d8615ba398"
        }
      }, {
        "item": {
          "reference": "urn:uuid:05a117ac-9e9d-4bac-89d7-e5c0d7ab4140"
        }
      }, {
        "item": {
          "reference": "urn:uuid:339dd4b7-8f2d-4d99-9c61-7d74ec033aed"
        }
      }, {
        "item": {
          "reference": "urn:uuid:9c5add02-3391-41e2-a927-b2f98cc17807"
        }
      }, {
        "item": {
          "reference": "urn:uuid:4b030524-c7b7-42e2-99ce-68d11d78b887"
        }
      }, {
        "item": {
          "reference": "urn:uuid:4f7b90af-81ee-4fb0-842f-e591ebca3e67"
        }
      }, {
        "item": {
          "reference": "urn:uuid:f753287f-95b7-4bad-96b3-8ed349c0ed13"
        }
      }, {
        "item": {
          "reference": "urn:uuid:b765dc05-492f-4d71-a071-e81a112a6754"
        }
      }, {
        "item": {
          "reference": "urn:uuid:68d70f4d-ad00-4ed6-b878-0eead3bf9f6a"
        }
      }, {
        "item": {
          "reference": "urn:uuid:7aea0e5f-9ce7-4a09-b961-ab5b0fab5303"
        }
      }, {
        "item": {
          "reference": "urn:uuid:201c0a0b-6440-4fa5-9ab4-427cb953e401"
        }
      }, {
        "item": {
          "reference": "urn:uuid:90723927-2436-489c-bcac-db014d620835"
        }
      }, {
        "item": {
          "reference": "urn:uuid:10c09cb7-1b0a-4b50-b133-1b5e99197474"
        }
      }, {
        "item": {
          "reference": "urn:uuid:40154d1b-3a92-400b-955a-56ae8c322eb5"
        }
      }, {
        "item": {
          "reference": "urn:uuid:82ce5ec0-6a0e-4dc1-939f-140e07844293"
        }
      }, {
        "item": {
          "reference": "urn:uuid:1c2b1157-b372-4dfa-8495-072cb76dc515"
        }
      }, {
        "item": {
          "reference": "urn:uuid:a94e2beb-3485-4b5f-a74a-0d5fe8445380"
        }
      }, {
        "item": {
          "reference": "urn:uuid:663ba3a4-3959-4502-8eb1-add4e86284f8"
        }
      }, {
        "item": {
          "reference": "urn:uuid:f9fa3d73-816c-412d-a875-bd685242007d"
        }
      }, {
        "item": {
          "reference": "urn:uuid:7fc22658-3383-471b-b01e-18f20f5f56ca"
        }
      }, {
        "item": {
          "reference": "urn:uuid:519c0b37-8017-47d2-9f86-348b5637b5ad"
        }
      }, {
        "item": {
          "reference": "urn:uuid:df29be43-77da-4e14-9efa-ce68b443b4fa"
        }
      }, {
        "item": {
          "reference": "urn:uuid:79532c42-8265-4fb0-969d-d4c97456202b"
        }
      }, {
        "item": {
          "reference": "urn:uuid:a32a1ef4-f917-4f37-a330-f48201cfb8b2"
        }
      }, {
        "item": {
          "reference": "urn:uuid:0cd8eb94-2ab2-4a37-b8aa-02a3c78f0792"
        }
      }, {
        "item": {
          "reference": "urn:uuid:6593502e-b3cd-43d9-af19-0d05c8f5e552"
        }
      }, {
        "item": {
          "reference": "urn:uuid:3aa613c4-6326-4d4e-b1e7-ae3471931c74"
        }
      }, {
        "item": {
          "reference": "urn:uuid:ef613531-2fa2-41a9-91b4-8d3f4b4e0468"
        }
      }, {
        "item": {
          "reference": "urn:uuid:87a77c2d-3af9-4576-a57e-c25701de46f7"
        }
      } ]
    }
  } ]
}