{
  "resourceType": "Bundle",
  "meta": {
    "lastUpdated": "2022-05-12T06:46:17.796+00:00"
  },
  "identifier": {
    "type": {
      "text": "ClinicalDocument VersionNumber"
    },
    "value": "1"
  },
  "type": "message",
  "entry": [ {
    "fullUrl": "urn:uuid:A12F527F-3808-44BC-9272-8C8A92884A37",
    "resource": {
      "resourceType": "MessageHeader",
      "id": "A12F527F-3808-44BC-9272-8C8A92884A37",
      "event": {
        "system": "https://fhir.nhs.uk/STU3/CodeSystem/EventType-1",
        "code": "referral-1",
        "display": "Referral"
      },
      "destination": [ {
        "endpoint": "urn:nhs-uk:addressing:ods:20000729:DOSServiceID:2000072936"
      } ],
      "timestamp": "2020-10-30T18:29:05.000+00:00",
      "source": {
        "name": "NHS 111 Adaptor",
        "endpoint": "http://localhost:8080/report"
      },
      "reason": {
        "coding": [ {
          "system": "urn:nhs-itk:ns:201005:interaction",
          "code": "urn:nhs-itk:interaction:primaryNHS111RepeatCallerDocumentSet-v1-0"
        } ]
      }
    }
  }, {
    "fullUrl": "urn:uuid:cf538f27-ebf4-4506-9564-36750ef36620",
    "resource": {
      "resourceType": "Encounter",
      "id": "cf538f27-ebf4-4506-9564-36750ef36620",
      "identifier": [ {
        "system": "2.16.840.1.113883.2.1.3.2.4.18.34",
        "value": "CF1F65AB-2392-4582-9E14-F0384358CB6A"
      }, {
        "system": "2.16.840.1.113883.2.1.3.2.4.18.35",
        "value": "7434927"
      } ],
      "status": "finished",
      "type": [ {
        "text": "111 Encounter Referral"
      } ],
      "subject": {
        "reference": "urn:uuid:073e5d1c-7f4c-4e0d-9510-10c5705e4b41"
      },
      "participant": [ {
        "type": [ {
          "coding": [ {
            "system": "http://hl7.org/fhir/ValueSet/encounter-participant-type",
            "code": "PPRF",
            "display": "Author"
          } ]
        } ],
        "individual": {
          "reference": "urn:uuid:f314c6e4-3075-4a9a-926e-46dca36ab880"
        }
      }, {
        "type": [ {
          "coding": [ {
            "system": "http://hl7.org/fhir/ValueSet/encounter-participant-type",
            "code": "ATND",
            "display": "Responsible Party"
          } ]
        } ],
        "individual": {
          "reference": "urn:uuid:c97e559c-2cfd-4907-a66b-606c7849a823"
        }
      } ],
      "period": {
        "start": "2020-10-30T18:28:13+00:00",
        "end": "2020-10-30T18:28:58+00:00"
      },
      "location": [ {
        "location": {
          "reference": "urn:uuid:63042910-3609-41a6-b9fd-cd2f40e9e1ba"
        },
        "status": "active"
      }, {
        "location": {
          "reference": "urn:uuid:564e235e-8e93-42e9-ba75-12bbec062587"
        },
        "status": "completed"
      } ],
      "serviceProvider": {
        "reference": "urn:uuid:ce384030-1ef7-4608-bdef-ea7f98703f27"
      }
    }
  }, {
    "fullUrl": "urn:uuid:ce384030-1ef7-4608-bdef-ea7f98703f27",
    "resource": {
      "resourceType": "Organization",
      "id": "ce384030-1ef7-4608-bdef-ea7f98703f27",
      "active": true,
      "type": [ {
        "text": "CST"
      } ],
      "name": "Devon Doctors Group"
    }
  }, {
    "fullUrl": "urn:uuid:f314c6e4-3075-4a9a-926e-46dca36ab880",
    "resource": {
      "resourceType": "Practitioner",
      "id": "f314c6e4-3075-4a9a-926e-46dca36ab880",
      "active": true,
      "name": [ {
        "use": "official",
        "family": "Service Advisor",
        "given": [ "Dental" ]
      } ]
    }
  }, {
    "fullUrl": "urn:uuid:c97e559c-2cfd-4907-a66b-606c7849a823",
    "resource": {
      "resourceType": "Practitioner",
      "id": "c97e559c-2cfd-4907-a66b-606c7849a823",
      "active": true,
      "name": [ {
        "use": "official",
        "family": "Eggleton",
        "given": [ "Dr. Mark" ]
      } ]
    }
  }, {
    "fullUrl": "urn:uuid:63042910-3609-41a6-b9fd-cd2f40e9e1ba",
    "resource": {
      "resourceType": "Location",
      "id": "63042910-3609-41a6-b9fd-cd2f40e9e1ba",
      "managingOrganization": {
        "reference": "urn:uuid:2a8a8de5-df15-4e41-9212-93f8cc83abee"
      }
    }
  }, {
    "fullUrl": "urn:uuid:2a8a8de5-df15-4e41-9212-93f8cc83abee",
    "resource": {
      "resourceType": "Organization",
      "id": "2a8a8de5-df15-4e41-9212-93f8cc83abee",
      "identifier": [ {
        "value": "J85990"
      } ],
      "type": [ {
        "text": "GP Practice"
      } ],
      "name": "Test Somerset"
    }
  }, {
    "fullUrl": "urn:uuid:564e235e-8e93-42e9-ba75-12bbec062587",
    "resource": {
      "resourceType": "Location",
      "id": "564e235e-8e93-42e9-ba75-12bbec062587",
      "name": "Incident Location",
      "address": {
        "type": "physical",
        "line": [ "NHS England", "Quarry House Quarry Hill", "Leeds", "West Yorkshire" ],
        "postalCode": "LS2 7UE"
      }
    }
  }, {
    "fullUrl": "urn:uuid:073e5d1c-7f4c-4e0d-9510-10c5705e4b41",
    "resource": {
      "resourceType": "Patient",
      "id": "073e5d1c-7f4c-4e0d-9510-10c5705e4b41",
      "identifier": [ {
        "extension": [ {
          "url": "https://fhir.hl7.org.uk/STU3/StructureDefinition/Extension-CareConnect-NHSNumberVerificationStatus-1",
          "valueCodeableConcept": {
            "coding": [ {
              "system": "https://fhir.hl7.org.uk/STU3/StructureDefinition/Extension-CareConnect-NHSNumberVerificationStatus-1",
              "code": "02"
            } ]
          }
        } ],
        "system": "https://fhir.nhs.uk/Id/nhs-number",
        "value": "9990238359"
      } ],
      "active": true,
      "name": [ {
        "use": "official",
        "family": "Xxtestpatientdzadn",
        "given": [ "Scrdonotuse" ]
      } ],
      "telecom": [ {
        "system": "phone",
        "value": "tel:01702123456",
        "use": "home"
      }, {
        "system": "phone",
        "value": "tel:01702123456"
      } ],
      "gender": "female",
      "birthDate": "1965-02-17",
      "address": [ {
        "use": "home",
        "line": [ "NHS England", "Quarry House Quarry Hill", "Leeds", "West Yorkshire" ],
        "postalCode": "LS2 7UE"
      } ],
      "generalPractitioner": [ {
        "reference": "urn:uuid:825e8768-be8f-4750-b8f4-94814e51d33e"
      } ]
    }
  }, {
    "fullUrl": "urn:uuid:825e8768-be8f-4750-b8f4-94814e51d33e",
    "resource": {
      "resourceType": "Organization",
      "id": "825e8768-be8f-4750-b8f4-94814e51d33e",
      "identifier": [ {
        "value": "J85990"
      } ],
      "type": [ {
        "text": "GP Practice"
      } ],
      "name": "Test Somerset"
    }
  }, {
    "fullUrl": "urn:uuid:5e64edd2-5301-4670-9941-58f8204cf909",
    "resource": {
      "resourceType": "HealthcareService",
      "id": "5e64edd2-5301-4670-9941-58f8204cf909",
      "active": true,
      "providedBy": {
        "reference": "urn:uuid:90eb4e96-b4cc-47e7-9a9e-19bed48394e0"
      },
      "location": [ {
        "reference": "urn:uuid:ed30bdbd-2c1c-4c43-8090-35af52d1d7fc"
      } ],
      "name": "**TESTING ONLY** DO NOT SEND PATIENTS - ED Test Service for EDDI"
    }
  }, {
    "fullUrl": "urn:uuid:ed30bdbd-2c1c-4c43-8090-35af52d1d7fc",
    "resource": {
      "resourceType": "Location",
      "id": "ed30bdbd-2c1c-4c43-8090-35af52d1d7fc",
      "managingOrganization": {
        "reference": "urn:uuid:90eb4e96-b4cc-47e7-9a9e-19bed48394e0"
      }
    }
  }, {
    "fullUrl": "urn:uuid:90eb4e96-b4cc-47e7-9a9e-19bed48394e0",
    "resource": {
      "resourceType": "Organization",
      "id": "90eb4e96-b4cc-47e7-9a9e-19bed48394e0",
      "identifier": [ {
        "value": "20000729"
      } ],
      "type": [ {
        "coding": [ {
          "code": "PRCP",
          "display": "**TESTING ONLY** DO NOT SEND PATIENTS - ED Test Service for EDDI"
        } ]
      } ],
      "name": "**TESTING ONLY** DO NOT SEND PATIENTS - ED Test Service for EDDI"
    }
  }, {
    "fullUrl": "urn:uuid:3d0ac266-d78d-494a-b930-0a272f93f065",
    "resource": {
      "resourceType": "ReferralRequest",
      "id": "3d0ac266-d78d-494a-b930-0a272f93f065",
      "status": "active",
      "intent": "plan",
      "priority": "routine",
      "subject": {
        "reference": "urn:uuid:073e5d1c-7f4c-4e0d-9510-10c5705e4b41"
      },
      "context": {
        "reference": "urn:uuid:cf538f27-ebf4-4506-9564-36750ef36620"
      },
      "occurrencePeriod": {
        "start": "2020-10-30T18:29:05+00:00"
      },
      "authoredOn": "2020-10-30T18:28:58+00:00",
      "requester": {
        "agent": {
          "reference": "urn:uuid:daac263d-3999-4a86-be3a-8d49975635ab"
        },
        "onBehalfOf": {
          "reference": "urn:uuid:ce384030-1ef7-4608-bdef-ea7f98703f27"
        }
      },
      "recipient": [ {
        "reference": "urn:uuid:5e64edd2-5301-4670-9941-58f8204cf909"
      } ],
      "reasonReference": [ {
        "reference": "urn:uuid:092fb370-80b5-442c-bebc-ea65df9b0461"
      } ],
      "supportingInfo": [ {
        "reference": "urn:uuid:86be7b7d-657b-4333-8fbf-d5c82cbf48af"
      } ]
    }
  }, {
    "fullUrl": "urn:uuid:86be7b7d-657b-4333-8fbf-d5c82cbf48af",
    "resource": {
      "resourceType": "ProcedureRequest",
      "id": "86be7b7d-657b-4333-8fbf-d5c82cbf48af",
      "status": "active",
      "intent": "plan",
      "priority": "routine",
      "doNotPerform": false,
      "code": {
        "coding": [ {
          "system": "2.16.840.1.113883.2.1.3.2.4.17.325",
          "code": "Dx02",
          "display": "Attend a Treatment Centre within 1 hour"
        } ]
      },
      "subject": {
        "reference": "urn:uuid:073e5d1c-7f4c-4e0d-9510-10c5705e4b41"
      },
      "occurrencePeriod": {
        "start": "2020-10-30T18:29:05+00:00"
      },
      "reasonReference": [ {
        "reference": "urn:uuid:092fb370-80b5-442c-bebc-ea65df9b0461"
      } ]
    }
  }, {
    "fullUrl": "urn:uuid:39ada3d4-351d-45ab-bf49-297ad8ae6dc2",
    "resource": {
      "resourceType": "Composition",
      "id": "39ada3d4-351d-45ab-bf49-297ad8ae6dc2",
      "identifier": {
        "use": "usual",
        "value": "B53175B4-0A4A-4503-A6CD-94333AA01645"
      },
      "status": "final",
      "type": {
        "coding": [ {
          "system": "http://snomed.info/sct",
          "code": "371531000",
          "display": "Report of clinical encounter (record artifact)"
        } ]
      },
      "subject": {
        "reference": "urn:uuid:073e5d1c-7f4c-4e0d-9510-10c5705e4b41"
      },
      "encounter": {
        "reference": "urn:uuid:cf538f27-ebf4-4506-9564-36750ef36620"
      },
      "date": "2020-10-30T18:29:05+00:00",
      "author": [ {
        "reference": "urn:uuid:f314c6e4-3075-4a9a-926e-46dca36ab880"
      } ],
      "title": "111 Report",
      "confidentiality": "N",
      "section": [ {
        "section": [ {
          "title": "Patient's Reported Condition",
          "text": {
            "status": "generated",
            "div": "<div xmlns=\"http://www.w3.org/1999/xhtml\">TEST&lt;br/&gt;</div>"
          }
        }, {
          "title": "Pathways Disposition",
          "text": {
            "status": "generated",
            "div": "<div xmlns=\"http://www.w3.org/1999/xhtml\">Attend a Treatment Centre within 1 hour (Dx02)\n                                                    &lt;br/&gt;&lt;br/&gt;\n                                                    Selected service: **TESTING ONLY** DO NOT SEND PATIENTS - ED Test Se&lt;br/&gt;</div>"
          }
        }, {
          "title": "Consultation Summary",
          "text": {
            "status": "generated",
            "div": "<div xmlns=\"http://www.w3.org/1999/xhtml\">Illness&lt;br/&gt;Warm to touch&lt;br/&gt;Nose bleeding freely&lt;br/&gt;Nose bleeding despite first aid measures&lt;br/&gt;</div>"
          }
        }, {
          "title": "Pathways Assessment",
          "text": {
            "status": "generated",
            "div": "<div xmlns=\"http://www.w3.org/1999/xhtml\">An injury or health problem was the reason for the contact.&lt;br/&gt;Heavy bleeding had not occurred in the previous 2 hours.&lt;br/&gt;An illness or health problem was the main problem.&lt;br/&gt;User Comments: TEST&lt;br/&gt;The individual was not fighting for breath.&lt;br/&gt;The main reason for the assessment was not an allergic reaction, heart attack, chest/upper back pain, probable stroke, recent fit/seizure or suicide attempt.&lt;br/&gt;The main reason for contact was not new confusion, declared diabetic hypo/hyperglycaemia, or ICD shock.&lt;br/&gt;The skin on the torso felt normal, warm or hot.&lt;br/&gt;Pathway selected - Nosebleeds without Injury&lt;br/&gt;The individual was not feeling faint or dizzy.&lt;br/&gt;The nose was continuing to bleed.&lt;br/&gt;There was no nasal foreign body.&lt;br/&gt;Constant pressure had been applied to the soft part of the nose for at least 10 minutes.&lt;br/&gt;Instructions given were: The individual needs to attend a treatment centre within 1 hour.&lt;br/&gt;Directory of Services referral: **TESTING ONLY** DO NOT SEND PATIENTS - ED Test Service for EDDI&lt;br/&gt;Advice given:\n                                                    Worsening\n                                                    &lt;br/&gt;</div>"
          }
        }, {
          "title": "Advice Given",
          "text": {
            "status": "generated",
            "div": "<div xmlns=\"http://www.w3.org/1999/xhtml\">If there are any new symptoms, or if the condition gets worse, changes or you have any other concerns, call us back.&lt;br/&gt;&lt;br/&gt;</div>"
          }
        }, {
          "title": "Special Patient Notes",
          "text": {
            "status": "generated",
            "div": "<div xmlns=\"http://www.w3.org/1999/xhtml\">Special Notes from an external system were flagged as being present for this patient.</div>"
          }
        } ]
      }, {
        "title": "ReferralRequest",
        "entry": [ {
          "reference": "urn:uuid:3d0ac266-d78d-494a-b930-0a272f93f065"
        } ]
      }, {
        "title": "QuestionnaireResponse",
        "entry": [ {
          "reference": "urn:uuid:708fde4d-6366-47ca-ab36-c47de12e9d56"
        } ]
      }, {
        "title": "QuestionnaireResponse",
        "entry": [ {
          "reference": "urn:uuid:7bdcf1fa-3eb6-4989-ab2d-c1028ad8088e"
        } ]
      }, {
        "title": "QuestionnaireResponse",
        "entry": [ {
          "reference": "urn:uuid:3ddd8d6e-040b-41a4-8445-a430a744bdc3"
        } ]
      }, {
        "title": "QuestionnaireResponse",
        "entry": [ {
          "reference": "urn:uuid:ae2f4f15-e11f-4d4e-b70f-18f08935569d"
        } ]
      }, {
        "title": "QuestionnaireResponse",
        "entry": [ {
          "reference": "urn:uuid:cd44c099-76c5-4bca-996c-472aba953335"
        } ]
      }, {
        "title": "QuestionnaireResponse",
        "entry": [ {
          "reference": "urn:uuid:f7fd894d-4eb5-4dc1-a42a-379445aa243f"
        } ]
      }, {
        "title": "QuestionnaireResponse",
        "entry": [ {
          "reference": "urn:uuid:6cc184a9-9a29-4d66-a005-6a415c1a87dd"
        } ]
      }, {
        "title": "QuestionnaireResponse",
        "entry": [ {
          "reference": "urn:uuid:6f6853eb-2660-4dad-a178-a876719b257c"
        } ]
      }, {
        "title": "QuestionnaireResponse",
        "entry": [ {
          "reference": "urn:uuid:d93f937a-c033-4dec-a9f2-2f389a27ad19"
        } ]
      }, {
        "title": "QuestionnaireResponse",
        "entry": [ {
          "reference": "urn:uuid:2bf00bec-5857-4d79-8805-71cf373767d7"
        } ]
      }, {
        "title": "QuestionnaireResponse",
        "entry": [ {
          "reference": "urn:uuid:7615e21b-ee34-4303-b4ec-6872a9807825"
        } ]
      }, {
        "title": "QuestionnaireResponse",
        "entry": [ {
          "reference": "urn:uuid:cdb2daf1-da0a-470a-9daf-ece67d070e1c"
        } ]
      }, {
        "title": "QuestionnaireResponse",
        "entry": [ {
          "reference": "urn:uuid:c8e44edb-84d6-4093-9889-1b833f29aa7c"
        } ]
      }, {
        "title": "QuestionnaireResponse",
        "entry": [ {
          "reference": "urn:uuid:57c4a0a5-835e-4af4-afb5-87147798b390"
        } ]
      }, {
        "title": "QuestionnaireResponse",
        "entry": [ {
          "reference": "urn:uuid:4207f653-ef92-41a3-acb7-3e12c0c04161"
        } ]
      }, {
        "title": "QuestionnaireResponse",
        "entry": [ {
          "reference": "urn:uuid:5f3fecf0-66e2-488a-92c2-9c5a24d9afd3"
        } ]
      }, {
        "title": "QuestionnaireResponse",
        "entry": [ {
          "reference": "urn:uuid:166a0ca8-9f33-4b53-a790-85cf0b35ce6d"
        } ]
      }, {
        "title": "QuestionnaireResponse",
        "entry": [ {
          "reference": "urn:uuid:9f9b14f5-8f05-462f-a0d8-1edaeff6d1d0"
        } ]
      }, {
        "title": "QuestionnaireResponse",
        "entry": [ {
          "reference": "urn:uuid:28a0fd60-59a7-4496-9ee0-bc5fdf3bf259"
        } ]
      }, {
        "title": "QuestionnaireResponse",
        "entry": [ {
          "reference": "urn:uuid:9301e734-5097-4428-8fce-ef9c0aeea8a1"
        } ]
      }, {
        "title": "QuestionnaireResponse",
        "entry": [ {
          "reference": "urn:uuid:670de77d-f980-4fe6-ba2d-825477354b00"
        } ]
      }, {
        "title": "QuestionnaireResponse",
        "entry": [ {
          "reference": "urn:uuid:cd750dff-617a-41ca-a97e-2a27fabb1320"
        } ]
      }, {
        "title": "QuestionnaireResponse",
        "entry": [ {
          "reference": "urn:uuid:c3d09c69-cb84-4c8c-bd57-6197714c998b"
        } ]
      } ]
    }
  }, {
    "fullUrl": "urn:uuid:74ea7e90-5a90-4e3f-8cff-6dfd98aa8b00",
    "resource": {
      "resourceType": "Consent",
      "id": "74ea7e90-5a90-4e3f-8cff-6dfd98aa8b00",
      "identifier": {
        "use": "usual",
        "value": "B53175B4-0A4A-4503-A6CD-94333AA01645"
      },
      "status": "active",
      "patient": {
        "reference": "urn:uuid:073e5d1c-7f4c-4e0d-9510-10c5705e4b41"
      },
      "period": {
        "start": "2020-10-30T18:28:13+00:00",
        "end": "2020-10-30T18:28:58+00:00"
      },
      "consentingParty": [ {
        "reference": "urn:uuid:073e5d1c-7f4c-4e0d-9510-10c5705e4b41"
      } ],
      "action": [ {
        "coding": [ {
          "system": "http://snomed.info/sct",
          "code": "425691002",
          "display": "Consent given for electronic record sharing"
        } ],
        "text": "Consent given for electronic record sharing"
      } ],
      "organization": [ {
        "reference": "urn:uuid:ce384030-1ef7-4608-bdef-ea7f98703f27"
      } ],
      "policyRule": "http://hl7.org/fhir/ConsentPolicy/opt-out",
      "data": [ {
        "meaning": "related",
        "reference": {
          "reference": "urn:uuid:cf538f27-ebf4-4506-9564-36750ef36620"
        }
      } ]
    }
  }, {
    "fullUrl": "urn:uuid:092fb370-80b5-442c-bebc-ea65df9b0461",
    "resource": {
      "resourceType": "Condition",
      "id": "092fb370-80b5-442c-bebc-ea65df9b0461",
      "clinicalStatus": "active",
      "verificationStatus": "unknown",
      "subject": {
        "reference": "urn:uuid:073e5d1c-7f4c-4e0d-9510-10c5705e4b41"
      },
      "context": {
        "reference": "urn:uuid:cf538f27-ebf4-4506-9564-36750ef36620"
      },
      "evidence": [ {
        "detail": [ {
          "reference": "urn:uuid:708fde4d-6366-47ca-ab36-c47de12e9d56"
        } ]
      }, {
        "detail": [ {
          "reference": "urn:uuid:7bdcf1fa-3eb6-4989-ab2d-c1028ad8088e"
        } ]
      }, {
        "detail": [ {
          "reference": "urn:uuid:3ddd8d6e-040b-41a4-8445-a430a744bdc3"
        } ]
      }, {
        "detail": [ {
          "reference": "urn:uuid:ae2f4f15-e11f-4d4e-b70f-18f08935569d"
        } ]
      }, {
        "detail": [ {
          "reference": "urn:uuid:cd44c099-76c5-4bca-996c-472aba953335"
        } ]
      }, {
        "detail": [ {
          "reference": "urn:uuid:f7fd894d-4eb5-4dc1-a42a-379445aa243f"
        } ]
      }, {
        "detail": [ {
          "reference": "urn:uuid:6cc184a9-9a29-4d66-a005-6a415c1a87dd"
        } ]
      }, {
        "detail": [ {
          "reference": "urn:uuid:6f6853eb-2660-4dad-a178-a876719b257c"
        } ]
      }, {
        "detail": [ {
          "reference": "urn:uuid:d93f937a-c033-4dec-a9f2-2f389a27ad19"
        } ]
      }, {
        "detail": [ {
          "reference": "urn:uuid:2bf00bec-5857-4d79-8805-71cf373767d7"
        } ]
      }, {
        "detail": [ {
          "reference": "urn:uuid:7615e21b-ee34-4303-b4ec-6872a9807825"
        } ]
      }, {
        "detail": [ {
          "reference": "urn:uuid:cdb2daf1-da0a-470a-9daf-ece67d070e1c"
        } ]
      }, {
        "detail": [ {
          "reference": "urn:uuid:c8e44edb-84d6-4093-9889-1b833f29aa7c"
        } ]
      }, {
        "detail": [ {
          "reference": "urn:uuid:57c4a0a5-835e-4af4-afb5-87147798b390"
        } ]
      }, {
        "detail": [ {
          "reference": "urn:uuid:4207f653-ef92-41a3-acb7-3e12c0c04161"
        } ]
      }, {
        "detail": [ {
          "reference": "urn:uuid:5f3fecf0-66e2-488a-92c2-9c5a24d9afd3"
        } ]
      }, {
        "detail": [ {
          "reference": "urn:uuid:166a0ca8-9f33-4b53-a790-85cf0b35ce6d"
        } ]
      }, {
        "detail": [ {
          "reference": "urn:uuid:9f9b14f5-8f05-462f-a0d8-1edaeff6d1d0"
        } ]
      }, {
        "detail": [ {
          "reference": "urn:uuid:28a0fd60-59a7-4496-9ee0-bc5fdf3bf259"
        } ]
      }, {
        "detail": [ {
          "reference": "urn:uuid:9301e734-5097-4428-8fce-ef9c0aeea8a1"
        } ]
      }, {
        "detail": [ {
          "reference": "urn:uuid:670de77d-f980-4fe6-ba2d-825477354b00"
        } ]
      }, {
        "detail": [ {
          "reference": "urn:uuid:cd750dff-617a-41ca-a97e-2a27fabb1320"
        } ]
      }, {
        "detail": [ {
          "reference": "urn:uuid:c3d09c69-cb84-4c8c-bd57-6197714c998b"
        } ]
      } ]
    }
  }, {
    "fullUrl": "urn:uuid:708fde4d-6366-47ca-ab36-c47de12e9d56",
    "resource": {
      "resourceType": "QuestionnaireResponse",
      "id": "708fde4d-6366-47ca-ab36-c47de12e9d56",
      "identifier": {
        "value": "7434927"
      },
      "questionnaire": {
        "reference": "urn:uuid:1a1fa8cd-fc6c-4967-a83d-f02c3550dc4b"
      },
      "status": "completed",
      "subject": {
        "reference": "urn:uuid:073e5d1c-7f4c-4e0d-9510-10c5705e4b41"
      },
      "context": {
        "reference": "urn:uuid:cf538f27-ebf4-4506-9564-36750ef36620"
      },
      "authored": "2020-10-30T18:29:05+00:00",
      "item": [ {
        "linkId": "Tx220074",
        "text": "What is the reason for the contact?",
        "answer": [ {
          "valueString": "an injury or other health problem"
        } ]
      } ]
    }
  }, {
    "fullUrl": "urn:uuid:1a1fa8cd-fc6c-4967-a83d-f02c3550dc4b",
    "resource": {
      "resourceType": "Questionnaire",
      "id": "1a1fa8cd-fc6c-4967-a83d-f02c3550dc4b",
      "identifier": [ {
        "value": "7434927"
      } ],
      "version": "2020-10-30T18:29:05.808Z",
      "status": "active",
      "experimental": false,
      "date": "2020-10-30T18:29:05+00:00",
      "publisher": "User ID: 'RB12' User name: 'Rachel Boyer' User skill set: 'T3'",
      "lastReviewDate": "2020-10-30",
      "subjectType": [ "Patient" ],
      "item": [ {
        "linkId": "7434927",
        "prefix": "5",
        "text": "What is the reason for the contact?",
        "type": "choice",
        "required": true,
        "repeats": false,
        "option": [ {
          "valueString": "an injury or other health problem, Selected: true"
        }, {
          "valueString": "labour or childbirth, Selected: false"
        }, {
          "valueString": "a need to access another healthcare service, Selected: false"
        }, {
          "valueString": "a healthcare professional requesting contact with another clinician, Selected: false"
        }, {
          "valueString": "a report of results or tests, Selected: false"
        }, {
          "valueString": "a possible failure of contraception, Selected: false"
        }, {
          "valueString": "more, Selected: false"
        } ]
      } ]
    }
  }, {
    "fullUrl": "urn:uuid:7bdcf1fa-3eb6-4989-ab2d-c1028ad8088e",
    "resource": {
      "resourceType": "QuestionnaireResponse",
      "id": "7bdcf1fa-3eb6-4989-ab2d-c1028ad8088e",
      "identifier": {
        "value": "7434927"
      },
      "questionnaire": {
        "reference": "urn:uuid:67206484-1fa1-4a64-b312-bccb871590f8"
      },
      "status": "completed",
      "subject": {
        "reference": "urn:uuid:073e5d1c-7f4c-4e0d-9510-10c5705e4b41"
      },
      "context": {
        "reference": "urn:uuid:cf538f27-ebf4-4506-9564-36750ef36620"
      },
      "authored": "2020-10-30T18:29:05+00:00",
      "item": [ {
        "linkId": "Tx221807",
        "text": "STRING:to'Immediatethreatstolife(SPA/OOHversion)'-'Majorbloodloss'stem",
        "answer": [ {
          "valueString": "\"present\""
        } ]
      } ]
    }
  }, {
    "fullUrl": "urn:uuid:67206484-1fa1-4a64-b312-bccb871590f8",
    "resource": {
      "resourceType": "Questionnaire",
      "id": "67206484-1fa1-4a64-b312-bccb871590f8",
      "identifier": [ {
        "value": "7434927"
      } ],
      "version": "2020-10-30T18:29:05.808Z",
      "status": "active",
      "experimental": false,
      "date": "2020-10-30T18:29:05+00:00",
      "publisher": "User ID: 'RB12' User name: 'Rachel Boyer' User skill set: 'T3'",
      "lastReviewDate": "2020-10-30",
      "subjectType": [ "Patient" ],
      "item": [ {
        "linkId": "7434927",
        "prefix": "200",
        "text": "STRING:to'Immediatethreatstolife(SPA/OOHversion)'-'Majorbloodloss'stem",
        "type": "choice",
        "required": true,
        "repeats": false,
        "option": [ {
          "valueString": "\"present\", Selected: true"
        } ]
      } ]
    }
  }, {
    "fullUrl": "urn:uuid:3ddd8d6e-040b-41a4-8445-a430a744bdc3",
    "resource": {
      "resourceType": "QuestionnaireResponse",
      "id": "3ddd8d6e-040b-41a4-8445-a430a744bdc3",
      "identifier": {
        "value": "7434927"
      },
      "questionnaire": {
        "reference": "urn:uuid:58f29586-7e33-4772-8a03-743226ad448c"
      },
      "status": "completed",
      "subject": {
        "reference": "urn:uuid:073e5d1c-7f4c-4e0d-9510-10c5705e4b41"
      },
      "context": {
        "reference": "urn:uuid:cf538f27-ebf4-4506-9564-36750ef36620"
      },
      "authored": "2020-10-30T18:29:05+00:00"
    }
  }, {
    "fullUrl": "urn:uuid:58f29586-7e33-4772-8a03-743226ad448c",
    "resource": {
      "resourceType": "Questionnaire",
      "id": "58f29586-7e33-4772-8a03-743226ad448c",
      "identifier": [ {
        "value": "7434927"
      } ],
      "version": "2020-10-30T18:29:05.808Z",
      "status": "active",
      "experimental": false,
      "date": "2020-10-30T18:29:05+00:00",
      "publisher": "User ID: 'RB12' User name: 'Rachel Boyer' User skill set: 'T3'",
      "lastReviewDate": "2020-10-30",
      "subjectType": [ "Patient" ]
    }
  }, {
    "fullUrl": "urn:uuid:ae2f4f15-e11f-4d4e-b70f-18f08935569d",
    "resource": {
      "resourceType": "QuestionnaireResponse",
      "id": "ae2f4f15-e11f-4d4e-b70f-18f08935569d",
      "identifier": {
        "value": "7434927"
      },
      "questionnaire": {
        "reference": "urn:uuid:70f0a272-3268-4ec8-bcd3-c87be2747926"
      },
      "status": "completed",
      "subject": {
        "reference": "urn:uuid:073e5d1c-7f4c-4e0d-9510-10c5705e4b41"
      },
      "context": {
        "reference": "urn:uuid:cf538f27-ebf4-4506-9564-36750ef36620"
      },
      "authored": "2020-10-30T18:29:05+00:00",
      "item": [ {
        "linkId": "Tx221799",
        "text": "STRING:injury,illnessorlabourestablishedinEntryFlow",
        "answer": [ {
          "valueString": "\"present\""
        } ]
      } ]
    }
  }, {
    "fullUrl": "urn:uuid:70f0a272-3268-4ec8-bcd3-c87be2747926",
    "resource": {
      "resourceType": "Questionnaire",
      "id": "70f0a272-3268-4ec8-bcd3-c87be2747926",
      "identifier": [ {
        "value": "7434927"
      } ],
      "version": "2020-10-30T18:29:05.808Z",
      "status": "active",
      "experimental": false,
      "date": "2020-10-30T18:29:05+00:00",
      "publisher": "User ID: 'RB12' User name: 'Rachel Boyer' User skill set: 'T3'",
      "lastReviewDate": "2020-10-30",
      "subjectType": [ "Patient" ],
      "item": [ {
        "linkId": "7434927",
        "prefix": "0",
        "text": "STRING:injury,illnessorlabourestablishedinEntryFlow",
        "type": "choice",
        "required": true,
        "repeats": false,
        "option": [ {
          "valueString": "\"present\", Selected: true"
        } ]
      } ]
    }
  }, {
    "fullUrl": "urn:uuid:cd44c099-76c5-4bca-996c-472aba953335",
    "resource": {
      "resourceType": "QuestionnaireResponse",
      "id": "cd44c099-76c5-4bca-996c-472aba953335",
      "identifier": {
        "value": "7434927"
      },
      "questionnaire": {
        "reference": "urn:uuid:396019b4-57ca-41d3-a5f8-62e305a2f82c"
      },
      "status": "completed",
      "subject": {
        "reference": "urn:uuid:073e5d1c-7f4c-4e0d-9510-10c5705e4b41"
      },
      "context": {
        "reference": "urn:uuid:cf538f27-ebf4-4506-9564-36750ef36620"
      },
      "authored": "2020-10-30T18:29:05+00:00",
      "item": [ {
        "linkId": "Tx224120",
        "text": "Have you been bleeding RED BLOOD very heavily IN THE LAST 2 HOURS?",
        "answer": [ {
          "valueString": "no"
        } ]
      } ]
    }
  }, {
    "fullUrl": "urn:uuid:396019b4-57ca-41d3-a5f8-62e305a2f82c",
    "resource": {
      "resourceType": "Questionnaire",
      "id": "396019b4-57ca-41d3-a5f8-62e305a2f82c",
      "identifier": [ {
        "value": "7434927"
      } ],
      "version": "2020-10-30T18:29:05.808Z",
      "status": "active",
      "experimental": false,
      "date": "2020-10-30T18:29:05+00:00",
      "publisher": "User ID: 'RB12' User name: 'Rachel Boyer' User skill set: 'T3'",
      "lastReviewDate": "2020-10-30",
      "subjectType": [ "Patient" ],
      "item": [ {
        "linkId": "7434927",
        "prefix": "10100",
        "text": "Have you been bleeding RED BLOOD very heavily IN THE LAST 2 HOURS?",
        "type": "choice",
        "required": true,
        "repeats": false,
        "option": [ {
          "valueString": "yes, Selected: false"
        }, {
          "valueString": "not sure, Selected: false"
        }, {
          "valueString": "no, Selected: true"
        } ]
      } ]
    }
  }, {
    "fullUrl": "urn:uuid:f7fd894d-4eb5-4dc1-a42a-379445aa243f",
    "resource": {
      "resourceType": "QuestionnaireResponse",
      "id": "f7fd894d-4eb5-4dc1-a42a-379445aa243f",
      "identifier": {
        "value": "7434927"
      },
      "questionnaire": {
        "reference": "urn:uuid:18b24c81-cef5-47d8-ace8-2e0fbf2e8191"
      },
      "status": "completed",
      "subject": {
        "reference": "urn:uuid:073e5d1c-7f4c-4e0d-9510-10c5705e4b41"
      },
      "context": {
        "reference": "urn:uuid:cf538f27-ebf4-4506-9564-36750ef36620"
      },
      "authored": "2020-10-30T18:29:05+00:00",
      "item": [ {
        "linkId": "Tx221343",
        "text": "SocialConcernsExcluded",
        "answer": [ {
          "valueString": "==\"present\""
        } ]
      } ]
    }
  }, {
    "fullUrl": "urn:uuid:18b24c81-cef5-47d8-ace8-2e0fbf2e8191",
    "resource": {
      "resourceType": "Questionnaire",
      "id": "18b24c81-cef5-47d8-ace8-2e0fbf2e8191",
      "identifier": [ {
        "value": "7434927"
      } ],
      "version": "2020-10-30T18:29:05.808Z",
      "status": "active",
      "experimental": false,
      "date": "2020-10-30T18:29:05+00:00",
      "publisher": "User ID: 'RB12' User name: 'Rachel Boyer' User skill set: 'T3'",
      "lastReviewDate": "2020-10-30",
      "subjectType": [ "Patient" ],
      "item": [ {
        "linkId": "7434927",
        "prefix": "1100",
        "text": "SocialConcernsExcluded",
        "type": "choice",
        "required": true,
        "repeats": false,
        "option": [ {
          "valueString": "==\"present\", Selected: true"
        }, {
          "valueString": "*, Selected: false"
        } ]
      } ]
    }
  }, {
    "fullUrl": "urn:uuid:6cc184a9-9a29-4d66-a005-6a415c1a87dd",
    "resource": {
      "resourceType": "QuestionnaireResponse",
      "id": "6cc184a9-9a29-4d66-a005-6a415c1a87dd",
      "identifier": {
        "value": "7434927"
      },
      "questionnaire": {
        "reference": "urn:uuid:3b532aba-bc48-4b7e-a82a-be077e6e4776"
      },
      "status": "completed",
      "subject": {
        "reference": "urn:uuid:073e5d1c-7f4c-4e0d-9510-10c5705e4b41"
      },
      "context": {
        "reference": "urn:uuid:cf538f27-ebf4-4506-9564-36750ef36620"
      },
      "authored": "2020-10-30T18:29:05+00:00",
      "item": [ {
        "linkId": "Tx130011",
        "text": "What is the main problem?",
        "answer": [ {
          "valueString": "illness or other health problem (specify)"
        } ]
      } ]
    }
  }, {
    "fullUrl": "urn:uuid:3b532aba-bc48-4b7e-a82a-be077e6e4776",
    "resource": {
      "resourceType": "Questionnaire",
      "id": "3b532aba-bc48-4b7e-a82a-be077e6e4776",
      "identifier": [ {
        "value": "7434927"
      } ],
      "version": "2020-10-30T18:29:05.808Z",
      "status": "active",
      "experimental": false,
      "date": "2020-10-30T18:29:05+00:00",
      "publisher": "User ID: 'RB12' User name: 'Rachel Boyer' User skill set: 'T3'",
      "lastReviewDate": "2020-10-30",
      "subjectType": [ "Patient" ],
      "item": [ {
        "linkId": "7434927",
        "prefix": "2300",
        "text": "What is the main problem?",
        "type": "choice",
        "required": true,
        "repeats": false,
        "option": [ {
          "valueString": "the individual has been told to follow a particular course of action (specify), Selected: false"
        }, {
          "valueString": "the individual is an identified frequent caller, Selected: false"
        }, {
          "valueString": "injury (specify), Selected: false"
        }, {
          "valueString": "illness or other health problem (specify), Selected: true"
        }, {
          "valueString": "child protection/vulnerable adult concern, Selected: false"
        }, {
          "valueString": "social or domestic emergency, Selected: false"
        }, {
          "valueString": "the environment potentially poses an immediate threat to life (specify), Selected: false"
        } ]
      } ]
    }
  }, {
    "fullUrl": "urn:uuid:6f6853eb-2660-4dad-a178-a876719b257c",
    "resource": {
      "resourceType": "QuestionnaireResponse",
      "id": "6f6853eb-2660-4dad-a178-a876719b257c",
      "identifier": {
        "value": "7434927"
      },
      "questionnaire": {
        "reference": "urn:uuid:c61a7d4b-a163-4a1a-9fda-f5bd49b62967"
      },
      "status": "completed",
      "subject": {
        "reference": "urn:uuid:073e5d1c-7f4c-4e0d-9510-10c5705e4b41"
      },
      "context": {
        "reference": "urn:uuid:cf538f27-ebf4-4506-9564-36750ef36620"
      },
      "authored": "2020-10-30T18:29:05+00:00"
    }
  }, {
    "fullUrl": "urn:uuid:c61a7d4b-a163-4a1a-9fda-f5bd49b62967",
    "resource": {
      "resourceType": "Questionnaire",
      "id": "c61a7d4b-a163-4a1a-9fda-f5bd49b62967",
      "identifier": [ {
        "value": "7434927"
      } ],
      "version": "2020-10-30T18:29:05.808Z",
      "status": "active",
      "experimental": false,
      "date": "2020-10-30T18:29:05+00:00",
      "publisher": "User ID: 'RB12' User name: 'Rachel Boyer' User skill set: 'T3'",
      "lastReviewDate": "2020-10-30",
      "subjectType": [ "Patient" ]
    }
  }, {
    "fullUrl": "urn:uuid:d93f937a-c033-4dec-a9f2-2f389a27ad19",
    "resource": {
      "resourceType": "QuestionnaireResponse",
      "id": "d93f937a-c033-4dec-a9f2-2f389a27ad19",
      "identifier": {
        "value": "7434927"
      },
      "questionnaire": {
        "reference": "urn:uuid:c143b2e8-9fe7-4e9d-85f4-4c6272e9ddf0"
      },
      "status": "completed",
      "subject": {
        "reference": "urn:uuid:073e5d1c-7f4c-4e0d-9510-10c5705e4b41"
      },
      "context": {
        "reference": "urn:uuid:cf538f27-ebf4-4506-9564-36750ef36620"
      },
      "authored": "2020-10-30T18:29:05+00:00",
      "item": [ {
        "linkId": "Tx61025",
        "text": "Are you so breathless that speaking more than a few words is impossible?",
        "answer": [ {
          "valueString": "no"
        } ]
      } ]
    }
  }, {
    "fullUrl": "urn:uuid:c143b2e8-9fe7-4e9d-85f4-4c6272e9ddf0",
    "resource": {
      "resourceType": "Questionnaire",
      "id": "c143b2e8-9fe7-4e9d-85f4-4c6272e9ddf0",
      "identifier": [ {
        "value": "7434927"
      } ],
      "version": "2020-10-30T18:29:05.808Z",
      "status": "active",
      "experimental": false,
      "date": "2020-10-30T18:29:05+00:00",
      "publisher": "User ID: 'RB12' User name: 'Rachel Boyer' User skill set: 'T3'",
      "lastReviewDate": "2020-10-30",
      "subjectType": [ "Patient" ],
      "item": [ {
        "linkId": "7434927",
        "prefix": "0",
        "text": "Are you so breathless that speaking more than a few words is impossible?",
        "type": "choice",
        "required": true,
        "repeats": false,
        "option": [ {
          "valueString": "yes, Selected: false"
        }, {
          "valueString": "not sure, Selected: false"
        }, {
          "valueString": "no, Selected: true"
        } ]
      } ]
    }
  }, {
    "fullUrl": "urn:uuid:2bf00bec-5857-4d79-8805-71cf373767d7",
    "resource": {
      "resourceType": "QuestionnaireResponse",
      "id": "2bf00bec-5857-4d79-8805-71cf373767d7",
      "identifier": {
        "value": "7434927"
      },
      "questionnaire": {
        "reference": "urn:uuid:7850f2b5-de97-4ce1-96c1-6ec054f59e26"
      },
      "status": "completed",
      "subject": {
        "reference": "urn:uuid:073e5d1c-7f4c-4e0d-9510-10c5705e4b41"
      },
      "context": {
        "reference": "urn:uuid:cf538f27-ebf4-4506-9564-36750ef36620"
      },
      "authored": "2020-10-30T18:29:05+00:00",
      "item": [ {
        "linkId": "Tx220845",
        "text": "SYSTEM_FLUPANDEMIC",
        "answer": [ {
          "valueString": "==\"pandemic\""
        } ]
      } ]
    }
  }, {
    "fullUrl": "urn:uuid:7850f2b5-de97-4ce1-96c1-6ec054f59e26",
    "resource": {
      "resourceType": "Questionnaire",
      "id": "7850f2b5-de97-4ce1-96c1-6ec054f59e26",
      "identifier": [ {
        "value": "7434927"
      } ],
      "version": "2020-10-30T18:29:05.808Z",
      "status": "active",
      "experimental": false,
      "date": "2020-10-30T18:29:05+00:00",
      "publisher": "User ID: 'RB12' User name: 'Rachel Boyer' User skill set: 'T3'",
      "lastReviewDate": "2020-10-30",
      "subjectType": [ "Patient" ],
      "item": [ {
        "linkId": "7434927",
        "prefix": "100",
        "text": "SYSTEM_FLUPANDEMIC",
        "type": "choice",
        "required": true,
        "repeats": false,
        "option": [ {
          "valueString": "==\"pandemic\", Selected: true"
        }, {
          "valueString": "*, Selected: false"
        } ]
      } ]
    }
  }, {
    "fullUrl": "urn:uuid:7615e21b-ee34-4303-b4ec-6872a9807825",
    "resource": {
      "resourceType": "QuestionnaireResponse",
      "id": "7615e21b-ee34-4303-b4ec-6872a9807825",
      "identifier": {
        "value": "7434927"
      },
      "questionnaire": {
        "reference": "urn:uuid:bf1c9b4f-2483-44c0-9235-b146fb96f4b5"
      },
      "status": "completed",
      "subject": {
        "reference": "urn:uuid:073e5d1c-7f4c-4e0d-9510-10c5705e4b41"
      },
      "context": {
        "reference": "urn:uuid:cf538f27-ebf4-4506-9564-36750ef36620"
      },
      "authored": "2020-10-30T18:29:05+00:00",
      "item": [ {
        "linkId": "Tx223440",
        "text": "WHAT IS SAID TO BE THE MAIN REASON FOR THIS CONTACT?",
        "answer": [ {
          "valueString": "more"
        } ]
      } ]
    }
  }, {
    "fullUrl": "urn:uuid:bf1c9b4f-2483-44c0-9235-b146fb96f4b5",
    "resource": {
      "resourceType": "Questionnaire",
      "id": "bf1c9b4f-2483-44c0-9235-b146fb96f4b5",
      "identifier": [ {
        "value": "7434927"
      } ],
      "version": "2020-10-30T18:29:05.808Z",
      "status": "active",
      "experimental": false,
      "date": "2020-10-30T18:29:05+00:00",
      "publisher": "User ID: 'RB12' User name: 'Rachel Boyer' User skill set: 'T3'",
      "lastReviewDate": "2020-10-30",
      "subjectType": [ "Patient" ],
      "item": [ {
        "linkId": "7434927",
        "prefix": "5200",
        "text": "WHAT IS SAID TO BE THE MAIN REASON FOR THIS CONTACT?",
        "type": "choice",
        "required": true,
        "repeats": false,
        "option": [ {
          "valueString": "a probable allergic reaction now, Selected: false"
        }, {
          "valueString": "a probable heart attack, Selected: false"
        }, {
          "valueString": "chest or upper back pain, Selected: false"
        }, {
          "valueString": "a probable stroke or mini-stroke, Selected: false"
        }, {
          "valueString": "a probable fit or seizure within the last 12 hours, Selected: false"
        }, {
          "valueString": "a suicide attempt, Selected: false"
        }, {
          "valueString": "more, Selected: true"
        } ]
      } ]
    }
  }, {
    "fullUrl": "urn:uuid:cdb2daf1-da0a-470a-9daf-ece67d070e1c",
    "resource": {
      "resourceType": "QuestionnaireResponse",
      "id": "cdb2daf1-da0a-470a-9daf-ece67d070e1c",
      "identifier": {
        "value": "7434927"
      },
      "questionnaire": {
        "reference": "urn:uuid:4a7ad05e-bb5e-4d2c-8318-1d61d33aba6d"
      },
      "status": "completed",
      "subject": {
        "reference": "urn:uuid:073e5d1c-7f4c-4e0d-9510-10c5705e4b41"
      },
      "context": {
        "reference": "urn:uuid:cf538f27-ebf4-4506-9564-36750ef36620"
      },
      "authored": "2020-10-30T18:29:05+00:00",
      "item": [ {
        "linkId": "Tx220032",
        "text": "WHAT IS SAID TO BE THE MAIN REASON FOR THIS CONTACT?",
        "answer": [ {
          "valueString": "none of the above"
        } ]
      } ]
    }
  }, {
    "fullUrl": "urn:uuid:4a7ad05e-bb5e-4d2c-8318-1d61d33aba6d",
    "resource": {
      "resourceType": "Questionnaire",
      "id": "4a7ad05e-bb5e-4d2c-8318-1d61d33aba6d",
      "identifier": [ {
        "value": "7434927"
      } ],
      "version": "2020-10-30T18:29:05.808Z",
      "status": "active",
      "experimental": false,
      "date": "2020-10-30T18:29:05+00:00",
      "publisher": "User ID: 'RB12' User name: 'Rachel Boyer' User skill set: 'T3'",
      "lastReviewDate": "2020-10-30",
      "subjectType": [ "Patient" ],
      "item": [ {
        "linkId": "7434927",
        "prefix": "2200",
        "text": "WHAT IS SAID TO BE THE MAIN REASON FOR THIS CONTACT?",
        "type": "choice",
        "required": true,
        "repeats": false,
        "option": [ {
          "valueString": "new confusion now, Selected: false"
        }, {
          "valueString": "a diabetic hypo (low blood sugar) or a diabetic hyper (high blood sugar), Selected: false"
        }, {
          "valueString": "recovery from an ICD (implanted cardioverter defibrillator) shock, Selected: false"
        }, {
          "valueString": "none of the above, Selected: true"
        } ]
      } ]
    }
  }, {
    "fullUrl": "urn:uuid:c8e44edb-84d6-4093-9889-1b833f29aa7c",
    "resource": {
      "resourceType": "QuestionnaireResponse",
      "id": "c8e44edb-84d6-4093-9889-1b833f29aa7c",
      "identifier": {
        "value": "7434927"
      },
      "questionnaire": {
        "reference": "urn:uuid:37ba9d1e-e820-463b-9858-e1db86359bd6"
      },
      "status": "completed",
      "subject": {
        "reference": "urn:uuid:073e5d1c-7f4c-4e0d-9510-10c5705e4b41"
      },
      "context": {
        "reference": "urn:uuid:cf538f27-ebf4-4506-9564-36750ef36620"
      },
      "authored": "2020-10-30T18:29:05+00:00",
      "item": [ {
        "linkId": "Tx223142",
        "text": "Does the skin on the chest, back or abdomen feel a normal temperature?",
        "answer": [ {
          "valueString": "yes - normal, warm or hot"
        } ]
      } ]
    }
  }, {
    "fullUrl": "urn:uuid:37ba9d1e-e820-463b-9858-e1db86359bd6",
    "resource": {
      "resourceType": "Questionnaire",
      "id": "37ba9d1e-e820-463b-9858-e1db86359bd6",
      "identifier": [ {
        "value": "7434927"
      } ],
      "version": "2020-10-30T18:29:05.808Z",
      "status": "active",
      "experimental": false,
      "date": "2020-10-30T18:29:05+00:00",
      "publisher": "User ID: 'RB12' User name: 'Rachel Boyer' User skill set: 'T3'",
      "lastReviewDate": "2020-10-30",
      "subjectType": [ "Patient" ],
      "item": [ {
        "linkId": "7434927",
        "prefix": "4200",
        "text": "Does the skin on the chest, back or abdomen feel a normal temperature?",
        "type": "choice",
        "required": true,
        "repeats": false,
        "option": [ {
          "valueString": "yes - normal, warm or hot, Selected: true"
        }, {
          "valueString": "not sure, Selected: false"
        }, {
          "valueString": "no - cool OR cold, Selected: false"
        }, {
          "valueString": "not safe to touch, Selected: false"
        } ]
      } ]
    }
  }, {
    "fullUrl": "urn:uuid:57c4a0a5-835e-4af4-afb5-87147798b390",
    "resource": {
      "resourceType": "QuestionnaireResponse",
      "id": "57c4a0a5-835e-4af4-afb5-87147798b390",
      "identifier": {
        "value": "7434927"
      },
      "questionnaire": {
        "reference": "urn:uuid:34ae59be-3bcf-414a-b19d-393ef1ed0b3c"
      },
      "status": "completed",
      "subject": {
        "reference": "urn:uuid:073e5d1c-7f4c-4e0d-9510-10c5705e4b41"
      },
      "context": {
        "reference": "urn:uuid:cf538f27-ebf4-4506-9564-36750ef36620"
      },
      "authored": "2020-10-30T18:29:05+00:00",
      "item": [ {
        "linkId": "Tx221724",
        "text": "STRING:ShockAsked",
        "answer": [ {
          "valueString": "\"present\""
        } ]
      } ]
    }
  }, {
    "fullUrl": "urn:uuid:34ae59be-3bcf-414a-b19d-393ef1ed0b3c",
    "resource": {
      "resourceType": "Questionnaire",
      "id": "34ae59be-3bcf-414a-b19d-393ef1ed0b3c",
      "identifier": [ {
        "value": "7434927"
      } ],
      "version": "2020-10-30T18:29:05.808Z",
      "status": "active",
      "experimental": false,
      "date": "2020-10-30T18:29:05+00:00",
      "publisher": "User ID: 'RB12' User name: 'Rachel Boyer' User skill set: 'T3'",
      "lastReviewDate": "2020-10-30",
      "subjectType": [ "Patient" ],
      "item": [ {
        "linkId": "7434927",
        "prefix": "3700",
        "text": "STRING:ShockAsked",
        "type": "choice",
        "required": true,
        "repeats": false,
        "option": [ {
          "valueString": "\"present\", Selected: true"
        } ]
      } ]
    }
  }, {
    "fullUrl": "urn:uuid:4207f653-ef92-41a3-acb7-3e12c0c04161",
    "resource": {
      "resourceType": "QuestionnaireResponse",
      "id": "4207f653-ef92-41a3-acb7-3e12c0c04161",
      "identifier": {
        "value": "7434927"
      },
      "questionnaire": {
        "reference": "urn:uuid:4c02c20b-c619-4e77-947d-1838fe1f0c24"
      },
      "status": "completed",
      "subject": {
        "reference": "urn:uuid:073e5d1c-7f4c-4e0d-9510-10c5705e4b41"
      },
      "context": {
        "reference": "urn:uuid:cf538f27-ebf4-4506-9564-36750ef36620"
      },
      "authored": "2020-10-30T18:29:05+00:00"
    }
  }, {
    "fullUrl": "urn:uuid:4c02c20b-c619-4e77-947d-1838fe1f0c24",
    "resource": {
      "resourceType": "Questionnaire",
      "id": "4c02c20b-c619-4e77-947d-1838fe1f0c24",
      "identifier": [ {
        "value": "7434927"
      } ],
      "version": "2020-10-30T18:29:05.808Z",
      "status": "active",
      "experimental": false,
      "date": "2020-10-30T18:29:05+00:00",
      "publisher": "User ID: 'RB12' User name: 'Rachel Boyer' User skill set: 'T3'",
      "lastReviewDate": "2020-10-30",
      "subjectType": [ "Patient" ]
    }
  }, {
    "fullUrl": "urn:uuid:5f3fecf0-66e2-488a-92c2-9c5a24d9afd3",
    "resource": {
      "resourceType": "QuestionnaireResponse",
      "id": "5f3fecf0-66e2-488a-92c2-9c5a24d9afd3",
      "identifier": {
        "value": "7434927"
      },
      "questionnaire": {
        "reference": "urn:uuid:03e4e89a-480c-4a1f-a0a3-b7d3c157a821"
      },
      "status": "completed",
      "subject": {
        "reference": "urn:uuid:073e5d1c-7f4c-4e0d-9510-10c5705e4b41"
      },
      "context": {
        "reference": "urn:uuid:cf538f27-ebf4-4506-9564-36750ef36620"
      },
      "authored": "2020-10-30T18:29:05+00:00",
      "item": [ {
        "linkId": "Tx42307",
        "text": "Are you feeling faint or dizzy?",
        "answer": [ {
          "valueString": "no"
        } ]
      } ]
    }
  }, {
    "fullUrl": "urn:uuid:03e4e89a-480c-4a1f-a0a3-b7d3c157a821",
    "resource": {
      "resourceType": "Questionnaire",
      "id": "03e4e89a-480c-4a1f-a0a3-b7d3c157a821",
      "identifier": [ {
        "value": "7434927"
      } ],
      "version": "2020-10-30T18:29:05.808Z",
      "status": "active",
      "experimental": false,
      "date": "2020-10-30T18:29:05+00:00",
      "publisher": "User ID: 'RB12' User name: 'Rachel Boyer' User skill set: 'T3'",
      "lastReviewDate": "2020-10-30",
      "subjectType": [ "Patient" ],
      "item": [ {
        "linkId": "7434927",
        "prefix": "0",
        "text": "Are you feeling faint or dizzy?",
        "type": "choice",
        "required": true,
        "repeats": false,
        "option": [ {
          "valueString": "yes, Selected: false"
        }, {
          "valueString": "not sure, Selected: false"
        }, {
          "valueString": "no, Selected: true"
        } ]
      } ]
    }
  }, {
    "fullUrl": "urn:uuid:166a0ca8-9f33-4b53-a790-85cf0b35ce6d",
    "resource": {
      "resourceType": "QuestionnaireResponse",
      "id": "166a0ca8-9f33-4b53-a790-85cf0b35ce6d",
      "identifier": {
        "value": "7434927"
      },
      "questionnaire": {
        "reference": "urn:uuid:223d37e2-591c-42a4-93b8-d9e8bb932742"
      },
      "status": "completed",
      "subject": {
        "reference": "urn:uuid:073e5d1c-7f4c-4e0d-9510-10c5705e4b41"
      },
      "context": {
        "reference": "urn:uuid:cf538f27-ebf4-4506-9564-36750ef36620"
      },
      "authored": "2020-10-30T18:29:05+00:00",
      "item": [ {
        "linkId": "Tx1260",
        "text": "Is the nose still bleeding?",
        "answer": [ {
          "valueString": "yes"
        } ]
      } ]
    }
  }, {
    "fullUrl": "urn:uuid:223d37e2-591c-42a4-93b8-d9e8bb932742",
    "resource": {
      "resourceType": "Questionnaire",
      "id": "223d37e2-591c-42a4-93b8-d9e8bb932742",
      "identifier": [ {
        "value": "7434927"
      } ],
      "version": "2020-10-30T18:29:05.808Z",
      "status": "active",
      "experimental": false,
      "date": "2020-10-30T18:29:05+00:00",
      "publisher": "User ID: 'RB12' User name: 'Rachel Boyer' User skill set: 'T3'",
      "lastReviewDate": "2020-10-30",
      "subjectType": [ "Patient" ],
      "item": [ {
        "linkId": "7434927",
        "prefix": "100",
        "text": "Is the nose still bleeding?",
        "type": "choice",
        "required": true,
        "repeats": false,
        "option": [ {
          "valueString": "yes, Selected: true"
        }, {
          "valueString": "not sure, Selected: false"
        }, {
          "valueString": "no, Selected: false"
        } ]
      } ]
    }
  }, {
    "fullUrl": "urn:uuid:9f9b14f5-8f05-462f-a0d8-1edaeff6d1d0",
    "resource": {
      "resourceType": "QuestionnaireResponse",
      "id": "9f9b14f5-8f05-462f-a0d8-1edaeff6d1d0",
      "identifier": {
        "value": "7434927"
      },
      "questionnaire": {
        "reference": "urn:uuid:e24686a6-96c2-46dd-87f6-8b47487f36d4"
      },
      "status": "completed",
      "subject": {
        "reference": "urn:uuid:073e5d1c-7f4c-4e0d-9510-10c5705e4b41"
      },
      "context": {
        "reference": "urn:uuid:cf538f27-ebf4-4506-9564-36750ef36620"
      },
      "authored": "2020-10-30T18:29:05+00:00",
      "item": [ {
        "linkId": "Tx1258",
        "text": "Is anything stuck up the nose?",
        "answer": [ {
          "valueString": "no"
        } ]
      } ]
    }
  }, {
    "fullUrl": "urn:uuid:e24686a6-96c2-46dd-87f6-8b47487f36d4",
    "resource": {
      "resourceType": "Questionnaire",
      "id": "e24686a6-96c2-46dd-87f6-8b47487f36d4",
      "identifier": [ {
        "value": "7434927"
      } ],
      "version": "2020-10-30T18:29:05.808Z",
      "status": "active",
      "experimental": false,
      "date": "2020-10-30T18:29:05+00:00",
      "publisher": "User ID: 'RB12' User name: 'Rachel Boyer' User skill set: 'T3'",
      "lastReviewDate": "2020-10-30",
      "subjectType": [ "Patient" ],
      "item": [ {
        "linkId": "7434927",
        "prefix": "300",
        "text": "Is anything stuck up the nose?",
        "type": "choice",
        "required": true,
        "repeats": false,
        "option": [ {
          "valueString": "yes, Selected: false"
        }, {
          "valueString": "not sure, Selected: false"
        }, {
          "valueString": "no, Selected: true"
        } ]
      } ]
    }
  }, {
    "fullUrl": "urn:uuid:28a0fd60-59a7-4496-9ee0-bc5fdf3bf259",
    "resource": {
      "resourceType": "QuestionnaireResponse",
      "id": "28a0fd60-59a7-4496-9ee0-bc5fdf3bf259",
      "identifier": {
        "value": "7434927"
      },
      "questionnaire": {
        "reference": "urn:uuid:f2c1efb6-531f-449c-9c7b-e6cb9de7ced0"
      },
      "status": "completed",
      "subject": {
        "reference": "urn:uuid:073e5d1c-7f4c-4e0d-9510-10c5705e4b41"
      },
      "context": {
        "reference": "urn:uuid:cf538f27-ebf4-4506-9564-36750ef36620"
      },
      "authored": "2020-10-30T18:29:05+00:00",
      "item": [ {
        "linkId": "Tx1259",
        "text": "Have you pinched the soft part of the nose for AT LEAST 10 MINUTES without a break?",
        "answer": [ {
          "valueString": "yes"
        } ]
      } ]
    }
  }, {
    "fullUrl": "urn:uuid:f2c1efb6-531f-449c-9c7b-e6cb9de7ced0",
    "resource": {
      "resourceType": "Questionnaire",
      "id": "f2c1efb6-531f-449c-9c7b-e6cb9de7ced0",
      "identifier": [ {
        "value": "7434927"
      } ],
      "version": "2020-10-30T18:29:05.808Z",
      "status": "active",
      "experimental": false,
      "date": "2020-10-30T18:29:05+00:00",
      "publisher": "User ID: 'RB12' User name: 'Rachel Boyer' User skill set: 'T3'",
      "lastReviewDate": "2020-10-30",
      "subjectType": [ "Patient" ],
      "item": [ {
        "linkId": "7434927",
        "prefix": "1500",
        "text": "Have you pinched the soft part of the nose for AT LEAST 10 MINUTES without a break?",
        "type": "choice",
        "required": true,
        "repeats": false,
        "option": [ {
          "valueString": "yes, Selected: true"
        }, {
          "valueString": "not sure, Selected: false"
        }, {
          "valueString": "no, Selected: false"
        } ]
      } ]
    }
  }, {
    "fullUrl": "urn:uuid:9301e734-5097-4428-8fce-ef9c0aeea8a1",
    "resource": {
      "resourceType": "QuestionnaireResponse",
      "id": "9301e734-5097-4428-8fce-ef9c0aeea8a1",
      "identifier": {
        "value": "7434927"
      },
      "questionnaire": {
        "reference": "urn:uuid:f79d6b70-21fe-491d-b48b-33ad155a5eaa"
      },
      "status": "completed",
      "subject": {
        "reference": "urn:uuid:073e5d1c-7f4c-4e0d-9510-10c5705e4b41"
      },
      "context": {
        "reference": "urn:uuid:cf538f27-ebf4-4506-9564-36750ef36620"
      },
      "authored": "2020-10-30T18:29:05+00:00",
      "item": [ {
        "linkId": "Tx221512",
        "text": "STRING:SDEDFullEDassessmentandmanagementcapability",
        "answer": [ {
          "valueString": "\"ED full ED assessment and management capability\""
        } ]
      } ]
    }
  }, {
    "fullUrl": "urn:uuid:f79d6b70-21fe-491d-b48b-33ad155a5eaa",
    "resource": {
      "resourceType": "Questionnaire",
      "id": "f79d6b70-21fe-491d-b48b-33ad155a5eaa",
      "identifier": [ {
        "value": "7434927"
      } ],
      "version": "2020-10-30T18:29:05.808Z",
      "status": "active",
      "experimental": false,
      "date": "2020-10-30T18:29:05+00:00",
      "publisher": "User ID: 'RB12' User name: 'Rachel Boyer' User skill set: 'T3'",
      "lastReviewDate": "2020-10-30",
      "subjectType": [ "Patient" ],
      "item": [ {
        "linkId": "7434927",
        "prefix": "1700",
        "text": "STRING:SDEDFullEDassessmentandmanagementcapability",
        "type": "choice",
        "required": true,
        "repeats": false,
        "option": [ {
          "valueString": "\"ED full ED assessment and management capability\", Selected: true"
        } ]
      } ]
    }
  }, {
    "fullUrl": "urn:uuid:670de77d-f980-4fe6-ba2d-825477354b00",
    "resource": {
      "resourceType": "QuestionnaireResponse",
      "id": "670de77d-f980-4fe6-ba2d-825477354b00",
      "identifier": {
        "value": "7434927"
      },
      "questionnaire": {
        "reference": "urn:uuid:e7a924d3-4495-4c21-ba08-00d99bb9f9c9"
      },
      "status": "completed",
      "subject": {
        "reference": "urn:uuid:073e5d1c-7f4c-4e0d-9510-10c5705e4b41"
      },
      "context": {
        "reference": "urn:uuid:cf538f27-ebf4-4506-9564-36750ef36620"
      },
      "authored": "2020-10-30T18:29:05+00:00"
    }
  }, {
    "fullUrl": "urn:uuid:e7a924d3-4495-4c21-ba08-00d99bb9f9c9",
    "resource": {
      "resourceType": "Questionnaire",
      "id": "e7a924d3-4495-4c21-ba08-00d99bb9f9c9",
      "identifier": [ {
        "value": "7434927"
      } ],
      "version": "2020-10-30T18:29:05.808Z",
      "status": "active",
      "experimental": false,
      "date": "2020-10-30T18:29:05+00:00",
      "publisher": "User ID: 'RB12' User name: 'Rachel Boyer' User skill set: 'T3'",
      "lastReviewDate": "2020-10-30",
      "subjectType": [ "Patient" ]
    }
  }, {
    "fullUrl": "urn:uuid:cd750dff-617a-41ca-a97e-2a27fabb1320",
    "resource": {
      "resourceType": "QuestionnaireResponse",
      "id": "cd750dff-617a-41ca-a97e-2a27fabb1320",
      "identifier": {
        "value": "7434927"
      },
      "questionnaire": {
        "reference": "urn:uuid:e2b396b6-9834-4642-865c-b513d5df9cb6"
      },
      "status": "completed",
      "subject": {
        "reference": "urn:uuid:073e5d1c-7f4c-4e0d-9510-10c5705e4b41"
      },
      "context": {
        "reference": "urn:uuid:cf538f27-ebf4-4506-9564-36750ef36620"
      },
      "authored": "2020-10-30T18:29:05+00:00"
    }
  }, {
    "fullUrl": "urn:uuid:e2b396b6-9834-4642-865c-b513d5df9cb6",
    "resource": {
      "resourceType": "Questionnaire",
      "id": "e2b396b6-9834-4642-865c-b513d5df9cb6",
      "identifier": [ {
        "value": "7434927"
      } ],
      "version": "2020-10-30T18:29:05.808Z",
      "status": "active",
      "experimental": false,
      "date": "2020-10-30T18:29:05+00:00",
      "publisher": "User ID: 'RB12' User name: 'Rachel Boyer' User skill set: 'T3'",
      "lastReviewDate": "2020-10-30",
      "subjectType": [ "Patient" ]
    }
  }, {
    "fullUrl": "urn:uuid:c3d09c69-cb84-4c8c-bd57-6197714c998b",
    "resource": {
      "resourceType": "QuestionnaireResponse",
      "id": "c3d09c69-cb84-4c8c-bd57-6197714c998b",
      "identifier": {
        "value": "7434927"
      },
      "questionnaire": {
        "reference": "urn:uuid:f4625c8e-4ec1-4c28-9347-8bbda8b608ab"
      },
      "status": "completed",
      "subject": {
        "reference": "urn:uuid:073e5d1c-7f4c-4e0d-9510-10c5705e4b41"
      },
      "context": {
        "reference": "urn:uuid:cf538f27-ebf4-4506-9564-36750ef36620"
      },
      "authored": "2020-10-30T18:29:05+00:00"
    }
  }, {
    "fullUrl": "urn:uuid:f4625c8e-4ec1-4c28-9347-8bbda8b608ab",
    "resource": {
      "resourceType": "Questionnaire",
      "id": "f4625c8e-4ec1-4c28-9347-8bbda8b608ab",
      "identifier": [ {
        "value": "7434927"
      } ],
      "version": "2020-10-30T18:29:05.808Z",
      "status": "active",
      "experimental": false,
      "date": "2020-10-30T18:29:05+00:00",
      "publisher": "User ID: 'RB12' User name: 'Rachel Boyer' User skill set: 'T3'",
      "lastReviewDate": "2020-10-30",
      "subjectType": [ "Patient" ]
    }
  }, {
    "fullUrl": "urn:uuid:5bd5c1d9-038e-41ca-96fd-df756c37f7a1",
    "resource": {
      "resourceType": "Observation",
      "id": "5bd5c1d9-038e-41ca-96fd-df756c37f7a1",
      "status": "final",
      "code": {
        "coding": [ {
          "system": "http://snomed.info/sct",
          "code": "33962009",
          "display": "Presenting complaint"
        } ]
      },
      "subject": {
        "reference": "urn:uuid:073e5d1c-7f4c-4e0d-9510-10c5705e4b41"
      },
      "context": {
        "reference": "urn:uuid:cf538f27-ebf4-4506-9564-36750ef36620"
      }
    }
  }, {
    "fullUrl": "urn:uuid:6a692594-45fa-40fd-86d2-f4d77947d502",
    "resource": {
      "resourceType": "PractitionerRole",
      "id": "6a692594-45fa-40fd-86d2-f4d77947d502",
      "practitioner": {
        "reference": "urn:uuid:f314c6e4-3075-4a9a-926e-46dca36ab880"
      },
      "organization": {
        "reference": "urn:uuid:3c54f352-d168-4e1e-99b7-fe352022b7ef"
      },
      "code": [ {
        "coding": [ {
          "system": "2.16.840.1.113883.2.1.3.2.4.17.339",
          "code": "OTHER",
          "display": "Assessed by"
        } ]
      } ]
    }
  }, {
    "fullUrl": "urn:uuid:3c54f352-d168-4e1e-99b7-fe352022b7ef",
    "resource": {
      "resourceType": "Organization",
      "id": "3c54f352-d168-4e1e-99b7-fe352022b7ef",
      "identifier": [ {
        "value": "Y00397"
      } ],
      "name": "Devon 111 (Devon Doctors Group)"
    }
  }, {
    "fullUrl": "urn:uuid:e47c3b35-fdf6-42ae-80d3-e4a4caacb794",
    "resource": {
      "resourceType": "PractitionerRole",
      "id": "e47c3b35-fdf6-42ae-80d3-e4a4caacb794",
      "practitioner": {
        "reference": "urn:uuid:c97e559c-2cfd-4907-a66b-606c7849a823"
      },
      "organization": {
        "reference": "urn:uuid:a85057b1-9302-4b09-b2f1-3aeaa4f2fc32"
      },
      "code": [ {
        "coding": [ {
          "system": "2.16.840.1.113883.2.1.3.2.4.17.196",
          "code": "R0010",
          "display": "Medical Director"
        } ]
      } ]
    }
  }, {
    "fullUrl": "urn:uuid:a85057b1-9302-4b09-b2f1-3aeaa4f2fc32",
    "resource": {
      "resourceType": "Organization",
      "id": "a85057b1-9302-4b09-b2f1-3aeaa4f2fc32",
      "identifier": [ {
        "value": "Y00397"
      } ],
      "name": "Devon Doctors Group"
    }
  }, {
    "fullUrl": "urn:uuid:03b0bf5a-bf94-4681-8107-c44e857ec5e6",
    "resource": {
      "resourceType": "RelatedPerson",
      "id": "03b0bf5a-bf94-4681-8107-c44e857ec5e6",
      "patient": {
        "reference": "urn:uuid:073e5d1c-7f4c-4e0d-9510-10c5705e4b41"
      },
      "relationship": {
        "coding": [ {
          "system": "http://hl7.org/fhir/v2/0131",
          "code": "C",
          "display": "Emergency Contact"
        } ]
      },
      "telecom": [ {
        "system": "phone",
        "value": "tel:01702123456"
      } ]
    }
  }, {
    "fullUrl": "urn:uuid:daac263d-3999-4a86-be3a-8d49975635ab",
    "resource": {
      "resourceType": "Device",
      "id": "daac263d-3999-4a86-be3a-8d49975635ab",
      "model": "111 Adaptor",
      "version": "1.0.1"
    }
  }, {
    "fullUrl": "urn:uuid:0bbc799e-3a25-4c8f-9a17-539f26a81146",
    "resource": {
      "resourceType": "List",
      "id": "0bbc799e-3a25-4c8f-9a17-539f26a81146",
      "status": "current",
      "mode": "working",
      "title": "111 Report List",
      "code": {
        "coding": [ {
          "system": "http://snomed.info/sct",
          "code": "225390008",
          "display": "Triage"
        } ]
      },
      "subject": {
        "reference": "urn:uuid:073e5d1c-7f4c-4e0d-9510-10c5705e4b41"
      },
      "encounter": {
        "reference": "urn:uuid:cf538f27-ebf4-4506-9564-36750ef36620"
      },
      "date": "2020-10-30T18:29:05+00:00",
      "source": {
        "reference": "urn:uuid:daac263d-3999-4a86-be3a-8d49975635ab"
      },
      "orderedBy": {
        "coding": [ {
          "system": "http://hl7.org/fhir/list-order",
          "code": "event-date",
          "display": "Sorted by Event Date"
        } ]
      },
      "entry": [ {
        "item": {
          "reference": "urn:uuid:2a8a8de5-df15-4e41-9212-93f8cc83abee"
        }
      }, {
        "item": {
          "reference": "urn:uuid:90eb4e96-b4cc-47e7-9a9e-19bed48394e0"
        }
      }, {
        "item": {
          "reference": "urn:uuid:ce384030-1ef7-4608-bdef-ea7f98703f27"
        }
      }, {
        "item": {
          "reference": "urn:uuid:825e8768-be8f-4750-b8f4-94814e51d33e"
        }
      }, {
        "item": {
          "reference": "urn:uuid:a85057b1-9302-4b09-b2f1-3aeaa4f2fc32"
        }
      }, {
        "item": {
          "reference": "urn:uuid:c97e559c-2cfd-4907-a66b-606c7849a823"
        }
      }, {
        "item": {
          "reference": "urn:uuid:5bd5c1d9-038e-41ca-96fd-df756c37f7a1"
        }
      }, {
        "item": {
          "reference": "urn:uuid:03b0bf5a-bf94-4681-8107-c44e857ec5e6"
        }
      }, {
        "item": {
          "reference": "urn:uuid:3c54f352-d168-4e1e-99b7-fe352022b7ef"
        }
      }, {
        "item": {
          "reference": "urn:uuid:f314c6e4-3075-4a9a-926e-46dca36ab880"
        }
      }, {
        "item": {
          "reference": "urn:uuid:092fb370-80b5-442c-bebc-ea65df9b0461"
        }
      }, {
        "item": {
          "reference": "urn:uuid:3b532aba-bc48-4b7e-a82a-be077e6e4776"
        }
      }, {
        "item": {
          "reference": "urn:uuid:03e4e89a-480c-4a1f-a0a3-b7d3c157a821"
        }
      }, {
        "item": {
          "reference": "urn:uuid:18b24c81-cef5-47d8-ace8-2e0fbf2e8191"
        }
      }, {
        "item": {
          "reference": "urn:uuid:9301e734-5097-4428-8fce-ef9c0aeea8a1"
        }
      }, {
        "item": {
          "reference": "urn:uuid:bf1c9b4f-2483-44c0-9235-b146fb96f4b5"
        }
      }, {
        "item": {
          "reference": "urn:uuid:cd44c099-76c5-4bca-996c-472aba953335"
        }
      }, {
        "item": {
          "reference": "urn:uuid:57c4a0a5-835e-4af4-afb5-87147798b390"
        }
      }, {
        "item": {
          "reference": "urn:uuid:e7a924d3-4495-4c21-ba08-00d99bb9f9c9"
        }
      }, {
        "item": {
          "reference": "urn:uuid:3ddd8d6e-040b-41a4-8445-a430a744bdc3"
        }
      }, {
        "item": {
          "reference": "urn:uuid:e24686a6-96c2-46dd-87f6-8b47487f36d4"
        }
      }, {
        "item": {
          "reference": "urn:uuid:708fde4d-6366-47ca-ab36-c47de12e9d56"
        }
      }, {
        "item": {
          "reference": "urn:uuid:6f6853eb-2660-4dad-a178-a876719b257c"
        }
      }, {
        "item": {
          "reference": "urn:uuid:6cc184a9-9a29-4d66-a005-6a415c1a87dd"
        }
      }, {
        "item": {
          "reference": "urn:uuid:c61a7d4b-a163-4a1a-9fda-f5bd49b62967"
        }
      }, {
        "item": {
          "reference": "urn:uuid:37ba9d1e-e820-463b-9858-e1db86359bd6"
        }
      }, {
        "item": {
          "reference": "urn:uuid:cd750dff-617a-41ca-a97e-2a27fabb1320"
        }
      }, {
        "item": {
          "reference": "urn:uuid:d93f937a-c033-4dec-a9f2-2f389a27ad19"
        }
      }, {
        "item": {
          "reference": "urn:uuid:e2b396b6-9834-4642-865c-b513d5df9cb6"
        }
      }, {
        "item": {
          "reference": "urn:uuid:c3d09c69-cb84-4c8c-bd57-6197714c998b"
        }
      }, {
        "item": {
          "reference": "urn:uuid:4a7ad05e-bb5e-4d2c-8318-1d61d33aba6d"
        }
      }, {
        "item": {
          "reference": "urn:uuid:67206484-1fa1-4a64-b312-bccb871590f8"
        }
      }, {
        "item": {
          "reference": "urn:uuid:4207f653-ef92-41a3-acb7-3e12c0c04161"
        }
      }, {
        "item": {
          "reference": "urn:uuid:9f9b14f5-8f05-462f-a0d8-1edaeff6d1d0"
        }
      }, {
        "item": {
          "reference": "urn:uuid:5f3fecf0-66e2-488a-92c2-9c5a24d9afd3"
        }
      }, {
        "item": {
          "reference": "urn:uuid:166a0ca8-9f33-4b53-a790-85cf0b35ce6d"
        }
      }, {
        "item": {
          "reference": "urn:uuid:ae2f4f15-e11f-4d4e-b70f-18f08935569d"
        }
      }, {
        "item": {
          "reference": "urn:uuid:7615e21b-ee34-4303-b4ec-6872a9807825"
        }
      }, {
        "item": {
          "reference": "urn:uuid:f2c1efb6-531f-449c-9c7b-e6cb9de7ced0"
        }
      }, {
        "item": {
          "reference": "urn:uuid:34ae59be-3bcf-414a-b19d-393ef1ed0b3c"
        }
      }, {
        "item": {
          "reference": "urn:uuid:cdb2daf1-da0a-470a-9daf-ece67d070e1c"
        }
      }, {
        "item": {
          "reference": "urn:uuid:7bdcf1fa-3eb6-4989-ab2d-c1028ad8088e"
        }
      }, {
        "item": {
          "reference": "urn:uuid:70f0a272-3268-4ec8-bcd3-c87be2747926"
        }
      }, {
        "item": {
          "reference": "urn:uuid:c8e44edb-84d6-4093-9889-1b833f29aa7c"
        }
      }, {
        "item": {
          "reference": "urn:uuid:396019b4-57ca-41d3-a5f8-62e305a2f82c"
        }
      }, {
        "item": {
          "reference": "urn:uuid:f7fd894d-4eb5-4dc1-a42a-379445aa243f"
        }
      }, {
        "item": {
          "reference": "urn:uuid:f4625c8e-4ec1-4c28-9347-8bbda8b608ab"
        }
      }, {
        "item": {
          "reference": "urn:uuid:7850f2b5-de97-4ce1-96c1-6ec054f59e26"
        }
      }, {
        "item": {
          "reference": "urn:uuid:4c02c20b-c619-4e77-947d-1838fe1f0c24"
        }
      }, {
        "item": {
          "reference": "urn:uuid:2bf00bec-5857-4d79-8805-71cf373767d7"
        }
      }, {
        "item": {
          "reference": "urn:uuid:c143b2e8-9fe7-4e9d-85f4-4c6272e9ddf0"
        }
      }, {
        "item": {
          "reference": "urn:uuid:223d37e2-591c-42a4-93b8-d9e8bb932742"
        }
      }, {
        "item": {
          "reference": "urn:uuid:58f29586-7e33-4772-8a03-743226ad448c"
        }
      }, {
        "item": {
          "reference": "urn:uuid:f79d6b70-21fe-491d-b48b-33ad155a5eaa"
        }
      }, {
        "item": {
          "reference": "urn:uuid:1a1fa8cd-fc6c-4967-a83d-f02c3550dc4b"
        }
      }, {
        "item": {
          "reference": "urn:uuid:670de77d-f980-4fe6-ba2d-825477354b00"
        }
      }, {
        "item": {
          "reference": "urn:uuid:28a0fd60-59a7-4496-9ee0-bc5fdf3bf259"
        }
      }, {
        "item": {
          "reference": "urn:uuid:3d0ac266-d78d-494a-b930-0a272f93f065"
        }
      } ]
    }
  } ]
}